# Time (seconds),Accel_X,Accel_Y,Accel_Z,Gyro_X,Gyro_Y,Gyro_Z
0.0099999,6.078877925872803,-3.514688014984131,5.937620162963867,-26.275634765625,-57.891845703125,33.416748046875
0.029999900000000003,5.724536418914795,-3.5458126068115234,6.076483726501465,-42.205810546875,-67.2607421875,76.47705078125
0.0499999,5.30076265335083,-4.041412353515625,6.138733386993408,-22.979736328125,-67.474365234375,93.414306640625
0.0699999,4.793191909790039,-4.800374507904053,6.224924564361572,-15.5792236328125,-56.8695068359375,74.9664306640625
0.08999990000000001,4.3622355461120605,-5.698200225830078,6.275202751159668,-63.0950927734375,-59.8602294921875,63.4918212890625
0.10999990000000001,3.8786067962646484,-6.232107162475586,6.411672115325928,-83.465576171875,-86.97509765625,84.6099853515625
0.1299999,3.4811692237854004,-6.959944248199463,6.289567947387695,-63.7969970703125,-108.9630126953125,109.619140625
0.14999990000000002,3.2609026432037354,-7.42681360244751,6.045359134674072,-28.411865234375,-78.521728515625,66.1163330078125
0.1699999,3.220201253890991,-8.176198959350586,5.614402770996094,-50.96435546875,-46.295166015625,25.87890625
0.1899999,3.359065055847168,-8.489839553833008,5.173870086669922,-67.4285888671875,-59.844970703125,14.2364501953125
0.20999990000000002,3.313575267791748,-8.528146743774414,5.16429328918457,-79.89501953125,-74.737548828125,41.9464111328125
0.2299999,3.1220390796661377,-8.518569946289062,5.243301868438721,-40.924072265625,-73.30322265625,74.3408203125
0.2499999,2.7293899059295654,-8.62630844116211,5.4444146156311035,-0.1220703125,-50.5828857421875,75.1190185546875
0.2699999,2.315192937850952,-9.040505409240723,5.585672378540039,-27.5726318359375,-40.6951904296875,61.492919921875
0.28999990000000003,1.987187385559082,-9.404424667358398,5.638344764709473,-60.8978271484375,-62.713623046875,51.3153076171875
0.3099999,1.7357962131500244,-9.78989028930664,5.48272180557251,-53.6346435546875,-76.3702392578125,39.1693115234375
0.3299999,1.5107412338256836,-9.835380554199219,5.216965675354004,0.8392333984375,-39.8406982421875,11.6729736328125
0.34999990000000003,1.2952631711959839,-9.797073364257812,4.797980308532715,0.9307861328125,-16.4794921875,-3.4027099609375
0.3699999,1.0582371950149536,-9.57441234588623,4.469974517822266,-25.146484375,-24.59716796875,-2.227783203125
0.3899999,0.8667010068893433,-9.246406555175781,4.292803764343262,-28.0914306640625,-27.6947021484375,-6.011962890625
0.40999990000000003,0.7158663272857666,-8.939949035644531,4.256890773773193,-24.3072509765625,-31.7535400390625,-14.22119140625
0.4299999,0.6248866319656372,-8.757989883422852,4.278438568115234,-18.73779296875,-33.4625244140625,-12.6190185546875
0.4499999,0.5746083855628967,-8.65743350982666,4.333505153656006,-16.5863037109375,-43.88427734375,-9.58251953125
0.4699999,0.5027823448181152,-8.647856712341309,4.347870349884033,-14.22119140625,-65.4296875,-5.1727294921875
0.4899999,0.45250412821769714,-8.78193187713623,4.364629745483398,-19.5465087890625,-81.451416015625,2.38037109375
0.5099999,0.4405331015586853,-8.987833023071289,4.247313976287842,-11.23046875,-89.141845703125,2.25830078125
0.5299999,0.49559974670410156,-9.27034854888916,4.077325344085693,-3.173828125,-79.4677734375,-2.227783203125
0.5499999,0.6129156351089478,-9.552865028381348,3.797203779220581,4.364013671875,-74.64599609375,-6.9427490234375
0.5699999,0.7613561153411865,-9.75397777557373,3.450044631958008,9.6282958984375,-79.6661376953125,-10.498046875
0.5899998999999999,0.9313444495201111,-9.895236015319824,3.0406360626220703,22.3388671875,-77.0111083984375,-11.1846923828125
0.6099998999999999,1.094150185585022,-9.921571731567383,2.5953147411346436,27.069091796875,-75.86669921875,-14.190673828125
0.6299999,1.2713210582733154,-9.888052940368652,2.2242133617401123,9.8419189453125,-77.94189453125,-16.754150390625
0.6499999,1.4437036514282227,-9.84256362915039,1.8986018896102905,-0.701904296875,-87.432861328125,-18.2952880859375
0.6699999,1.6160861253738403,-9.859322547912598,1.6519991159439087,11.962890625,-91.8426513671875,-19.4244384765625
0.6899999,1.8100165128707886,-9.93354320526123,1.4197616577148438,35.919189453125,-86.1358642578125,-16.326904296875
0.7099999,1.9943699836730957,-10.041281700134277,1.1851298809051514,38.543701171875,-85.479736328125,-14.9688720703125
0.7299998999999999,2.126051187515259,-10.050858497619629,0.9816226959228516,38.421630859375,-88.653564453125,-15.655517578125
0.7499998999999999,2.1930887699127197,-9.926360130310059,0.8547300100326538,43.9453125,-91.217041015625,-8.4075927734375
0.7699999,2.1356279850006104,-9.701305389404297,0.8092401623725891,36.0565185546875,-100.1434326171875,-5.706787109375
0.7899999,2.0231003761291504,-9.502586364746094,0.7326257228851318,36.224365234375,-106.3995361328125,-4.7454833984375
0.8099999,1.900996208190918,-9.299078941345215,0.5889736413955688,42.8619384765625,-106.8115234375,-4.638671875
0.8299999,1.7621324062347412,-9.11233139038086,0.38546648621559143,29.4952392578125,-107.36083984375,-7.8582763671875
0.8499998999999999,1.6831238269805908,-8.947132110595703,0.10055647045373917,22.15576171875,-105.9112548828125,-6.072998046875
0.8699998999999999,1.659181833267212,-8.832210540771484,-0.2585737705230713,30.5328369140625,-103.57666015625,-2.3956298828125
0.8899999,1.6831238269805908,-8.741230010986328,-0.6344634294509888,33.4014892578125,-104.9652099609375,-5.706787109375
0.9099999,1.8579005002975464,-8.760383605957031,-1.0534487962722778,24.7650146484375,-100.677490234375,-5.8746337890625
0.9299999,2.1116859912872314,-8.865729331970215,-1.4389152526855469,21.392822265625,-92.681884765625,-6.2713623046875
0.9499999,2.4827871322631836,-8.944737434387207,-1.7932571172714233,35.614013671875,-87.799072265625,-7.8887939453125
0.9699998999999999,2.8107926845550537,-9.030928611755371,-1.965639591217041,30.94482421875,-83.0535888671875,-11.3983154296875
0.9899998999999999,3.1244332790374756,-9.062053680419922,-2.0877439975738525,19.0887451171875,-84.8541259765625,-9.4757080078125
1.0099999,3.2632968425750732,-9.047688484191895,-2.0159177780151367,12.969970703125,-88.2415771484375,-8.30078125
1.0299999,3.3255462646484375,-8.992621421813965,-1.8339585065841675,12.664794921875,-87.0819091796875,-8.575439453125
1.0499999,3.3494882583618164,-8.968679428100586,-1.6352397203445435,17.7154541015625,-84.28955078125,-5.767822265625
1.0699999,3.4189200401306152,-8.99740982055664,-1.5298948287963867,15.869140625,-79.193115234375,-6.7291259765625
1.0899999,3.5027170181274414,-9.030928611755371,-1.53707754611969,8.3465576171875,-70.4193115234375,-18.06640625
1.1099999,3.6320040225982666,-9.01895809173584,-1.6112977266311646,22.15576171875,-58.3343505859375,-21.6827392578125
1.1299999,3.7708675861358643,-9.014169692993164,-1.6950948238372803,36.1175537109375,-51.666259765625,-11.7950439453125
1.1499999,4.003105163574219,-9.057265281677246,-1.7980455160140991,28.900146484375,-48.3856201171875,-10.80322265625
1.1699998999999999,4.271255970001221,-9.141061782836914,-1.9105730056762695,22.3846435546875,-40.252685546875,-25.909423828125
1.1899998999999999,4.606443881988525,-9.239224433898926,-2.0374655723571777,15.716552734375,-32.3333740234375,-36.3006591796875
1.2099999,4.845864295959473,-9.205705642700195,-2.0470423698425293,26.0467529296875,-25.8636474609375,-31.524658203125
1.2299999,5.058948040008545,-8.980650901794434,-1.946485996246338,37.200927734375,-20.56884765625,-18.0511474609375
1.2499999,5.147533416748047,-8.71489429473877,-1.7334020137786865,22.5982666015625,-16.754150390625,-19.3328857421875
1.2699999,5.231330871582031,-8.382100105285645,-1.50355863571167,24.169921875,-7.01904296875,-28.350830078125
1.2899999,5.293580055236816,-8.123526573181152,-1.237802267074585,21.7742919921875,-1.8157958984375,-29.11376953125
1.3099999,5.310339450836182,-7.869740962982178,-0.9528923034667969,12.0849609375,-10.4217529296875,-31.951904296875
1.3299999,5.355829238891602,-7.6351094245910645,-0.6416460275650024,0.7171630859375,-17.7154541015625,-30.9906005859375
1.3499999,5.403713226318359,-7.4555439949035645,-0.4141969084739685,4.94384765625,-11.7034912109375,-29.0679931640625
1.3699999,5.458779811859131,-7.29034423828125,-0.2106897532939911,33.294677734375,6.1187744140625,-17.4713134765625
1.3899999,5.5545477867126465,-7.132327079772949,-0.10773907601833344,40.9698486328125,5.0201416015625,-5.9814453125
1.4099999,5.616796970367432,-7.003039836883545,0.033518824726343155,15.7928466796875,-16.693115234375,5.7525634765625
1.4299998999999999,5.770026206970215,-7.007828235626221,0.10295066982507706,1.708984375,-28.7628173828125,10.6201171875
1.4499999,5.920860767364502,-7.134721279144287,0.1412578970193863,0.5645751953125,-26.3824462890625,2.899169921875
1.4699999,6.141127586364746,-7.407660007476807,0.05506663769483566,7.9193115234375,-18.12744140625,-3.2196044921875
1.4899999,6.294356346130371,-7.728483200073242,0.0071826050989329815,-6.744384765625,-3.9825439453125,-9.674072265625
1.5099999,6.50025749206543,-8.008605003356934,-0.0933738648891449,-21.8658447265625,11.260986328125,-25.238037109375
1.5299999,6.567295074462891,-8.24084186553955,-0.10773907601833344,-38.8336181640625,26.1383056640625,-46.38671875
1.5499999,6.6630635261535645,-8.360552787780762,-0.1843535304069519,-48.919677734375,34.759521484375,-60.943603515625
1.5699999,6.751648902893066,-8.324639320373535,-0.40222588181495667,-57.3577880859375,37.6434326171875,-61.370849609375
1.5899999,6.811503887176514,-8.087613105773926,-0.7422025203704834,-66.0247802734375,49.346923828125,-64.2852783203125
1.6099999,6.890512466430664,-7.663839817047119,-1.070208191871643,-62.8204345703125,70.465087890625,-59.9517822265625
1.6299999,6.959944248199463,-7.137115478515625,-1.2545616626739502,-51.7425537109375,79.3609619140625,-47.1954345703125
1.6499999,7.029376029968262,-6.660669326782227,-1.1851298809051514,-42.633056640625,75.714111328125,-36.163330078125
1.6699999,7.139509677886963,-6.349422931671143,-0.9720458984375,-45.8831787109375,74.5849609375,-32.3486328125
1.6899998999999999,7.307103633880615,-6.191405773162842,-0.8236053586006165,-51.025390625,86.578369140625,-34.149169921875
1.7099999,7.532158374786377,-6.205770969390869,-0.7445967197418213,-60.943603515625,105.2093505859375,-34.9273681640625
1.7299999,7.833827972412109,-6.268020153045654,-0.8236053586006165,-63.0035400390625,112.762451171875,-36.834716796875
1.7499999,8.10437297821045,-6.337451934814453,-0.9481038451194763,-49.7283935546875,124.9542236328125,-38.0096435546875
1.7699999,8.377311706542969,-6.337451934814453,-1.0965443849563599,-37.3077392578125,137.75634765625,-35.552978515625
1.7899999,8.530540466308594,-6.2201361656188965,-1.2856862545013428,-44.12841796875,134.0789794921875,-26.7791748046875
1.8099999,8.547300338745117,-5.954379558563232,-1.3934253454208374,-64.7125244140625,125.06103515625,-15.9454345703125
1.8299999,8.367734909057617,-5.60722017288208,-1.280897855758667,-71.6094970703125,126.03759765625,-9.6282958984375
1.8499999,8.008605003356934,-5.305551052093506,-0.9385270476341248,-49.9114990234375,139.7247314453125,6.3629150390625
1.8699999,7.484274387359619,-5.231330871582031,-0.2082955539226532,-29.4647216796875,152.03857421875,23.86474609375
1.8899999,6.938396453857422,-5.365406036376953,0.7350199222564697,-27.64892578125,151.6265869140625,28.38134765625
1.9099999,6.481103897094727,-5.686229228973389,1.7046716213226318,-49.102783203125,132.1868896484375,14.9078369140625
1.9299998999999999,6.143521785736084,-6.016628742218018,2.583343744277954,-76.1260986328125,117.8131103515625,-4.94384765625
1.9499999,5.944802761077881,-6.303933143615723,3.2178070545196533,-66.6046142578125,119.2474365234375,-6.1187744140625
1.9699999,5.880159378051758,-6.540958881378174,3.758896589279175,-29.3121337890625,139.4500732421875,16.5252685546875
1.9899999,5.92325496673584,-6.785167694091797,4.177882194519043,-7.2479248046875,142.8070068359375,42.205810546875
2.0099999,6.086060523986816,-6.9695210456848145,4.417302131652832,-11.749267578125,121.0784912109375,38.238525390625
2.0299999,6.45476770401001,-7.12035608291626,4.484339714050293,-45.7916259765625,105.9417724609375,8.60595703125
2.0499999,6.830657482147217,-7.084442615509033,4.4077253341674805,-68.756103515625,99.517822265625,-17.51708984375
2.0699999,7.163451671600342,-6.97430944442749,4.367023944854736,-42.05322265625,93.7957763671875,1.495361328125
2.0899999,7.376535415649414,-6.754043102264404,4.402936935424805,9.796142578125,82.5653076171875,48.8128662109375
2.1099999,7.390900611877441,-6.495469093322754,4.477157115936279,18.8140869140625,66.71142578125,64.0411376953125
2.1299999,7.307103633880615,-6.375759124755859,4.484339714050293,-19.71435546875,54.3212890625,39.886474609375
2.1499999,7.026981830596924,-6.375759124755859,4.529829502105713,-50.59814453125,50.262451171875,5.828857421875
2.1699999,6.619967937469482,-6.481103897094727,4.642356872558594,-49.3927001953125,44.2352294921875,-0.5035400390625
2.1899999,6.023811340332031,-6.603208065032959,4.903325080871582,-49.6063232421875,29.7698974609375,7.3699951171875
2.2099999,5.310339450836182,-6.651092529296875,5.310339450836182,-60.5926513671875,17.27294921875,18.0511474609375
2.2299999,4.680664539337158,-6.833051681518555,5.693411827087402,-60.6689453125,-0.6866455078125,31.280517578125
2.2499999,4.110844135284424,-6.981492042541504,6.007051944732666,-36.4532470703125,-4.608154296875,27.2674560546875
2.2699999,3.737348794937134,-7.2352776527404785,6.22731876373291,-28.900146484375,-2.38037109375,31.402587890625
2.2899999,3.469198226928711,-7.364564418792725,6.3063273429870605,-41.168212890625,-3.7994384765625,34.088134765625
2.3099999,3.2752678394317627,-7.524975776672363,6.339846134185791,-35.2020263671875,-0.6103515625,49.3316650390625
2.3299999,3.1699230670928955,-7.817068576812744,6.296750545501709,-9.2620849609375,3.7841796875,63.140869140625
2.3499999,3.117250680923462,-8.195352554321289,6.191405773162842,12.0086669921875,16.11328125,52.764892578125
2.3699999,3.1890766620635986,-8.695740699768066,5.987898349761963,-15.68603515625,23.01025390625,49.530029296875
2.3899999,3.251325845718384,-8.99740982055664,5.722142219543457,-48.15673828125,9.307861328125,38.63525390625
2.4099999,3.3207578659057617,-9.191340446472168,5.408501625061035,-46.9207763671875,-6.04248046875,34.9884033203125
2.4299999,3.3016040325164795,-9.263166427612305,5.104437828063965,-30.853271484375,0.823974609375,28.8848876953125
2.4499999,3.203441858291626,-9.251194953918457,4.778826713562012,-32.1044921875,26.0009765625,14.0380859375
2.4699999,3.002328872680664,-9.222464561462402,4.522646903991699,-40.2679443359375,66.3604736328125,5.9051513671875
2.4899999,2.7317841053009033,-9.069235801696777,4.3406877517700195,-33.721923828125,82.33642578125,0.518798828125
2.5099999,2.403778553009033,-8.96149730682373,4.2975921630859375,-30.0140380859375,62.98828125,12.908935546875
2.5299999,2.049436569213867,-8.887276649475098,4.333505153656006,-22.7203369140625,33.2489013671875,26.885986328125
2.5499999,1.7573440074920654,-8.918401718139648,4.3406877517700195,-20.7061767578125,10.650634765625,25.0091552734375
2.5699999,1.5083470344543457,-9.069235801696777,4.268861770629883,-29.72412109375,-9.2010498046875,26.7333984375
2.5899999,1.3455413579940796,-9.366117477416992,4.129997730255127,-21.91162109375,-17.2271728515625,27.1759033203125
2.6099999,1.2186486721038818,-9.670180320739746,3.995922565460205,-8.575439453125,-12.7410888671875,20.5841064453125
2.6299999,1.1252747774124146,-9.979032516479492,3.8977603912353516,-14.1754150390625,-10.3759765625,12.969970703125
2.6499999,1.072602391242981,-10.230423927307129,3.8762125968933105,-28.1219482421875,-16.937255859375,11.16943359375
2.6699999,1.048660397529602,-10.36449909210205,3.8139634132385254,-20.08056640625,-28.3966064453125,7.232666015625
2.6899999,1.0821791887283325,-10.441113471984863,3.732560396194458,-15.777587890625,-38.909912109375,1.5411376953125
2.7099999,1.170764684677124,-10.41956615447998,3.512293815612793,-22.9339599609375,-51.544189453125,-9.490966796875
2.7299999,1.3096283674240112,-10.299856185913086,3.227383852005005,-30.9906005859375,-59.0972900390625,-13.5650634765625
2.7499999,1.4437036514282227,-10.093954086303711,2.8634653091430664,-22.8118896484375,-54.0313720703125,-9.979248046875
2.7699999,1.577778935432434,-9.885659217834473,2.499546527862549,-18.6920166015625,-48.88916015625,-4.425048828125
2.7899999,1.680729627609253,-9.720458984375,2.1475989818573,-21.9573974609375,-44.3572998046875,-9.857177734375
2.8099999,1.7094600200653076,-9.607931137084961,1.8746598958969116,-13.702392578125,-35.2935791015625,-13.8702392578125
2.8299999,1.6855180263519287,-9.521739959716797,1.6663644313812256,-0.79345703125,-33.5845947265625,-6.927490234375
2.8499999,1.599326729774475,-9.421183586120605,1.5969325304031372,-11.90185546875,-40.2679443359375,-2.105712890625
2.8699999,1.4891934394836426,-9.399636268615723,1.6304513216018677,-27.6947021484375,-44.3878173828125,-7.99560546875
2.8899999,1.4245500564575195,-9.533711433410645,1.7310078144073486,-29.4342041015625,-51.239013671875,-13.0157470703125
2.9099999,1.4484920501708984,-9.775525093078613,1.800439715385437,-11.3983154296875,-58.5174560546875,-13.61083984375
2.9299999,1.5466543436050415,-10.077195167541504,1.8052281141281128,0.823974609375,-61.309814453125,-9.2315673828125
2.9499999,1.7094600200653076,-10.261548042297363,1.6950948238372803,-3.570556640625,-64.02587890625,-11.9476318359375
2.9699999,1.8363527059555054,-10.311826705932617,1.482010841369629,-6.4239501953125,-69.5343017578125,-18.7225341796875
2.9899999,1.941697597503662,-10.218452453613281,1.2497732639312744,-0.7171630859375,-70.465087890625,-18.1121826171875
3.0099999,1.9752163887023926,-10.010157585144043,1.0247182846069336,6.866455078125,-67.19970703125,-12.2833251953125
3.0299999,1.9943699836730957,-9.832986831665039,0.8451532125473022,2.2430419921875,-68.115234375,-11.2457275390625
3.0499999,2.075772762298584,-9.718064308166504,0.6368576288223267,4.058837890625,-70.526123046875,-14.556884765625
3.0699999,2.1811177730560303,-9.627084732055664,0.4620809257030487,27.618408203125,-59.478759765625,-14.5263671875
3.0899999,2.293645143508911,-9.567230224609375,0.33279404044151306,35.3851318359375,-48.4466552734375,-11.3983154296875
3.1099999,2.367865562438965,-9.464279174804688,0.3064578175544739,19.2718505859375,-56.365966796875,-12.20703125
3.1299999,2.3702597618103027,-9.332598686218262,0.40222588181495667,8.514404296875,-71.197509765625,-13.6566162109375
3.1499999,2.3511061668395996,-9.2033109664917,0.47644615173339844,22.674560546875,-76.324462890625,-8.209228515625
3.1699999,2.3104045391082764,-9.057265281677246,0.47405192255973816,36.590576171875,-71.258544921875,2.0294189453125
3.1899999,2.2601263523101807,-8.865729331970215,0.4429273009300232,22.8729248046875,-72.021484375,2.288818359375
3.2099999,2.205059766769409,-8.78193187713623,0.43095630407333374,7.87353515625,-83.648681640625,-0.6103515625
3.2299999,2.1547815799713135,-8.841787338256836,0.42856210470199585,19.4854736328125,-95.977783203125,-3.204345703125
3.2499999,2.1332337856292725,-9.016563415527344,0.3926490843296051,30.548095703125,-99.3804931640625,-9.033203125
3.2699999,2.1116859912872314,-9.181763648986816,0.24660277366638184,29.632568359375,-96.13037109375,-7.171630859375
3.2899999,2.10210919380188,-9.246406555175781,0.023942016065120697,22.03369140625,-100.006103515625,0.274658203125
3.3099999,2.1116859912872314,-9.320627212524414,-0.22505496442317963,11.2152099609375,-114.74609375,-2.9296875
3.3299999000000002,2.207453966140747,-9.493009567260742,-0.5051765441894531,9.33837890625,-124.6795654296875,-17.303466796875
3.3499999,2.4396915435791016,-9.77791976928711,-0.8547300100326538,7.5836181640625,-123.504638671875,-29.4952392578125
3.3699999,2.7485435009002686,-10.091560363769531,-1.2282254695892334,7.6446533203125,-112.8997802734375,-32.89794921875
3.3899999,3.114856481552124,-10.42195987701416,-1.5682021379470825,10.498046875,-110.6109619140625,-43.0908203125
3.4099999,3.3877954483032227,-10.716446876525879,-1.8124107122421265,10.1470947265625,-115.6768798828125,-67.2454833984375
3.4299999,3.5936968326568604,-10.960655212402344,-1.965639591217041,12.3443603515625,-113.34228515625,-74.4781494140625
3.4499999,3.6511576175689697,-11.058817863464355,-1.9608511924743652,9.27734375,-95.001220703125,-66.009521484375
3.4699999,3.620033025741577,-10.8505220413208,-1.9297266006469727,22.9644775390625,-82.794189453125,-59.3719482421875
3.4899999,3.4787750244140625,-10.35252857208252,-1.7597382068634033,36.1480712890625,-76.0498046875,-57.769775390625
3.5099999,3.335123062133789,-9.727641105651855,-1.5490485429763794,32.2418212890625,-72.1893310546875,-55.5877685546875
3.5299999,3.1675288677215576,-9.059659004211426,-1.3215993642807007,30.3497314453125,-73.9288330078125,-53.1005859375
3.5499999,3.0837318897247314,-8.480262756347656,-1.0965443849563599,48.004150390625,-67.2607421875,-40.557861328125
3.5699999,3.0550012588500977,-8.001421928405762,-0.9265560507774353,52.4444580078125,-67.8558349609375,-35.125732421875
3.5899999,3.157952070236206,-7.6566572189331055,-0.8667010068893433,31.6925048828125,-76.4617919921875,-38.14697265625
3.6099999,3.3255462646484375,-7.362170219421387,-0.8954314589500427,20.721435546875,-82.763671875,-47.66845703125
3.6299999,3.5936968326568604,-7.177816867828369,-1.0247182846069336,29.2816162109375,-84.8846435546875,-43.27392578125
3.6499999,3.892971992492676,-7.096413612365723,-1.2425906658172607,48.431396484375,-81.878662109375,-30.94482421875
3.6699999,4.20421838760376,-7.141903877258301,-1.4867992401123047,53.1463623046875,-71.96044921875,-23.0712890625
3.6899999,4.529829502105713,-7.287950038909912,-1.764526605606079,54.5654296875,-62.2406005859375,-22.8729248046875
3.7099999,4.809951305389404,-7.493851184844971,-1.9584569931030273,57.3577880859375,-55.6640625,-18.9971923828125
3.7299999,5.058948040008545,-7.663839817047119,-2.054224967956543,54.6417236328125,-55.6182861328125,-12.1917724609375
3.7499999,5.236119270324707,-7.814674377441406,-2.0877439975738525,47.2259521484375,-60.546875,-14.2364501953125
3.7699999,5.370194435119629,-7.977479934692383,-2.0853497982025146,42.938232421875,-57.06787109375,-16.4337158203125
3.7899999,5.463568210601807,-8.121131896972656,-2.073378562927246,52.6580810546875,-46.44775390625,-11.871337890625
3.8099999,5.509057998657227,-8.303091049194336,-2.013523578643799,51.0406494140625,-47.607421875,-7.476806640625
3.8299999000000002,5.559336185455322,-8.482656478881836,-1.886630892753601,34.0423583984375,-58.990478515625,-9.8114013671875
3.8499999,5.556941986083984,-8.619126319885254,-1.7693150043487549,23.0560302734375,-63.751220703125,-16.4794921875
3.8699999,5.571307182312012,-8.652645111083984,-1.7477672100067139,29.4189453125,-51.33056640625,-18.12744140625
3.8899999,5.578489780426025,-8.5903959274292,-1.843535304069519,31.4788818359375,-34.912109375,-20.69091796875
3.9099999,5.600037574768066,-8.406042098999023,-1.9967641830444336,5.5694580078125,-34.0118408203125,-32.379150390625
3.9299999,5.638344764709473,-8.188169479370117,-2.1356279850006104,-18.5394287109375,-42.083740234375,-47.9583740234375
3.9499999,5.683835029602051,-8.01339340209961,-2.2577321529388428,-13.18359375,-31.8603515625,-48.7213134765625
3.9699999,5.724536418914795,-7.843404769897461,-2.2912509441375732,5.2032470703125,-10.528564453125,-46.173095703125
3.9899999,5.774814605712891,-7.718906402587891,-2.2673089504241943,0.5645751953125,-4.180908203125,-46.539306640625
4.0099999,5.837063789367676,-7.608773231506348,-2.097320795059204,-35.58349609375,-15.899658203125,-57.7239990234375
4.029999900000001,5.904101371765137,-7.436390399932861,-1.8938134908676147,-71.47216796875,-35.919189453125,-92.9718017578125
4.0499999,5.999869346618652,-7.163451671600342,-1.764526605606079,-73.5015869140625,-39.48974609375,-108.4747314453125
4.069999900000001,6.191405773162842,-6.823474884033203,-1.8411411046981812,-67.7337646484375,-21.9573974609375,-92.5750732421875
4.0899999000000005,6.48828649520874,-6.337451934814453,-2.212242364883423,-68.6187744140625,-18.9971923828125,-94.7418212890625
4.1099999,6.914454460144043,-6.004657745361328,-2.6839001178741455,-85.052490234375,-22.0184326171875,-109.100341796875
4.1299999000000005,7.352593421936035,-5.609614372253418,-3.2992098331451416,-85.4644775390625,-24.3682861328125,-140.167236328125
4.1499999,7.673416614532471,-5.169081687927246,-3.73016619682312,-91.217041015625,-16.5863037109375,-149.84130859375
4.1699999000000005,7.790732383728027,-4.649539470672607,-3.995922565460205,-78.0792236328125,-0.732421875,-114.471435546875
4.1899999,7.7428483963012695,-3.9695863723754883,-4.055777549743652,-40.069580078125,-4.1351318359375,-97.015380859375
4.209999900000001,7.601590633392334,-3.205836057662964,-4.165910720825195,-22.674560546875,-3.3721923828125,-100.9521484375
4.2299999,7.501033782958984,-2.6168625354766846,-4.19224739074707,-56.09130859375,14.373779296875,-93.1396484375
4.249999900000001,7.433996200561523,-2.0614075660705566,-4.264073371887207,-68.9849853515625,36.6363525390625,-76.3397216796875
4.2699999,7.400477409362793,-1.577778935432434,-4.307168960571289,-47.4090576171875,34.97314453125,-64.3768310546875
4.289999900000001,7.536946773529053,-1.2832920551300049,-4.268861770629883,-56.488037109375,27.679443359375,-35.58349609375
4.3099999,7.738059997558594,-1.0247182846069336,-4.316745758056641,-72.2198486328125,45.0897216796875,-9.246826171875
4.329999900000001,8.188169479370117,-1.048660397529602,-4.347870349884033,-61.4471435546875,73.3489990234375,-1.40380859375
4.3499999,8.643068313598633,-1.2186486721038818,-4.235342979431152,-43.0450439453125,83.67919921875,-17.791748046875
4.369999900000001,9.08838939666748,-1.4844050407409668,-3.9240965843200684,-36.1480712890625,67.6727294921875,-33.294677734375
4.3899999,9.500192642211914,-1.6136919260025024,-3.5194764137268066,-57.3577880859375,45.7000732421875,-26.702880859375
4.409999900000001,10.053253173828125,-1.8076223134994507,-3.0382418632507324,-96.5423583984375,41.3970947265625,-17.5933837890625
4.4299999,10.788272857666016,-2.032677173614502,-2.7317841053009033,-92.559814453125,69.2138671875,-18.85986328125
4.449999900000001,11.597513198852539,-2.343923568725586,-2.387019157409668,-69.5343017578125,90.0726318359375,-42.205810546875
4.4699999,12.11705493927002,-2.451662540435791,-1.9608511924743652,-68.0999755859375,60.791015625,-53.4515380859375
4.489999900000001,12.198457717895508,-2.2385785579681396,-1.659181833267212,-65.7958984375,32.1044921875,-33.294677734375
4.5099999,11.906365394592285,-1.656787633895874,-1.5298948287963867,-60.8673095703125,26.6265869140625,-26.763916015625
4.529999900000001,11.441889762878418,-1.0342950820922852,-1.6041151285171509,-56.2744140625,46.8902587890625,-37.689208984375
4.5499999,11.049241065979004,-0.5219359993934631,-1.7693150043487549,-45.0897216796875,70.556640625,-39.6881103515625
4.569999900000001,10.711658477783203,-0.24181437492370605,-1.800439715385437,-42.5262451171875,76.47705078125,-41.4886474609375
4.5899999000000005,10.376470565795898,-0.002394201699644327,-1.6065093278884888,-52.2308349609375,65.8721923828125,-44.5709228515625
4.609999900000001,9.983820915222168,0.2322375625371933,-1.2282254695892334,-58.3038330078125,59.0362548828125,-42.9534912109375
4.6299999000000005,9.555258750915527,0.507570743560791,-0.8188169598579407,-60.3790283203125,69.366455078125,-32.501220703125
4.6499999,9.165003776550293,0.8068459630012512,-0.49559974670410156,-50.6591796875,68.4661865234375,-26.06201171875
4.6699999000000005,8.791508674621582,1.070208191871643,-0.1604115068912506,-42.8314208984375,64.1632080078125,-26.0009765625
4.6899999,8.542511940002441,1.3024457693099976,0.06703764945268631,-31.2652587890625,57.1441650390625,-27.801513671875
4.709999900000001,8.413225173950195,1.460463047027588,0.26336219906806946,-26.4434814453125,40.924072265625,-23.86474609375
4.7299999,8.49941635131836,1.5945383310317993,0.304063618183136,-6.6070556640625,37.0941162109375,-11.2762451171875
4.749999900000001,8.681375503540039,1.7405846118927002,0.17238251864910126,33.02001953125,72.2808837890625,-4.5166015625
4.7699999,8.753201484680176,1.886630892753601,0.033518824726343155,50.7049560546875,112.030029296875,-8.087158203125
4.789999900000001,8.736441612243652,1.9057846069335938,0.07182604819536209,37.65869140625,104.4921875,11.474609375
4.8099999,8.56884765625,1.7573440074920654,0.2082955539226532,39.5355224609375,86.4410400390625,28.4881591796875
4.829999900000001,8.432378768920898,1.4460978507995605,0.545877993106842,26.3671875,95.5352783203125,34.4696044921875
4.8499999,8.434772491455078,1.048660397529602,0.8690952062606812,-0.9918212890625,118.438720703125,39.1082763671875
4.869999900000001,8.446743965148926,0.7326257228851318,1.1875240802764893,-13.1683349609375,125.54931640625,48.5687255859375
4.8899999,8.482656478881836,0.4141969084739685,1.7190368175506592,-29.8919677734375,131.500244140625,65.4449462890625
4.909999900000001,8.5903959274292,0,2.3989901542663574,-35.888671875,128.3111572265625,61.8743896484375
4.9299999,8.676587104797363,-0.4189853072166443,3.1747114658355713,-39.3218994140625,126.46484375,36.2091064453125
4.949999900000001,8.80587387084961,-0.7565677165985107,3.9600095748901367,-68.206787109375,122.314453125,32.7301025390625
4.9699999,8.892065048217773,-0.9361328482627869,4.771644115447998,-78.3538818359375,106.2774658203125,45.8984375
4.989999900000001,8.78432559967041,-0.8236053586006165,5.499481201171875,-51.361083984375,85.784912109375,43.27392578125
5.0099999,8.7484130859375,-0.768538773059845,6.138733386993408,-15.472412109375,70.8160400390625,44.2047119140625
5.029999900000001,8.676587104797363,-0.7230489253997803,6.4595561027526855,-4.1656494140625,58.258056640625,29.693603515625
5.0499999,8.664615631103516,-0.8236053586006165,6.610390663146973,-53.40576171875,46.20361328125,19.744873046875
5.069999900000001,8.686163902282715,-0.9026140570640564,6.67982292175293,-85.3271484375,24.2767333984375,26.3214111328125
5.0899999000000005,8.614337921142578,-0.950498104095459,6.710947513580322,-46.6461181640625,5.5389404296875,23.468017578125
5.109999900000001,8.609549522399902,-1.0821791887283325,6.789956092834473,-17.2882080078125,6.16455078125,26.5045166015625
5.1299999000000005,8.53532886505127,-1.2066776752471924,6.7492547035217285,-29.3426513671875,11.0931396484375,12.26806640625
5.1499999,8.47786808013916,-1.4077905416488647,6.701370716094971,-64.1937255859375,-0.5645751953125,5.2947998046875
5.1699999000000005,8.327033042907715,-1.5442601442337036,6.610390663146973,-69.4427490234375,-23.25439453125,13.7481689453125
5.1899999,8.192957878112793,-1.745373010635376,6.732495307922363,-54.840087890625,-9.368896484375,28.5797119140625
5.209999900000001,8.073247909545898,-2.0183119773864746,6.9910688400268555,-38.330078125,27.9388427734375,27.496337890625
5.2299999,7.893682956695557,-2.298433542251587,7.328651428222656,-22.1099853515625,39.794921875,12.4359130859375
5.249999900000001,7.716512203216553,-2.5522189140319824,7.632715225219727,-29.9072265625,21.6827392578125,34.5001220703125
5.2699999,7.3693528175354,-2.607285737991333,7.625532627105713,-52.0172119140625,-3.9825439453125,74.8291015625
5.289999900000001,6.845022678375244,-2.5546131134033203,7.33583402633667,-80.352783203125,7.049560546875,102.3712158203125
5.3099999,6.385335922241211,-2.628833532333374,6.955155849456787,-95.8099365234375,31.7535400390625,120.574951171875
5.329999900000001,5.39174222946167,-2.959233283996582,6.710947513580322,-90.88134765625,30.82275390625,128.2958984375
5.3499999,4.352658748626709,-3.8379054069519043,6.452373504638672,-54.6417236328125,72.3724365234375,122.7569580078125
5.369999900000001,3.3423056602478027,-4.898536682128906,6.54574728012085,-92.1630859375,166.3360595703125,44.0826416015625
5.3899999,2.913743495941162,-6.387730121612549,6.897695064544678,-134.9945068359375,157.1502685546875,-8.636474609375
5.409999900000001,3.1914708614349365,-7.642292022705078,7.101202011108398,-134.368896484375,6.5765380859375,44.097900390625
5.4299999,4.264073371887207,-8.530540466308594,7.924807548522949,-50.384521484375,-62.6373291015625,65.521240234375
5.449999900000001,5.377377033233643,-8.932766914367676,8.197746276855469,40.6036376953125,-62.1490478515625,57.8155517578125
5.4699999,6.112396717071533,-8.700529098510742,8.406042098999023,83.1298828125,-56.915283203125,47.1954345703125
5.489999900000001,6.294356346130371,-8.106766700744629,8.159439086914062,71.4569091796875,-69.732666015625,43.0450439453125
5.5099999,5.937620162963867,-7.429207801818848,7.7883381843566895,75.0732421875,-56.2896728515625,23.1170654296875
5.529999900000001,5.353435039520264,-6.710947513580322,7.295132637023926,81.84814453125,-58.1817626953125,-7.2174072265625
5.5499999,4.707000732421875,-6.054935932159424,7.017405033111572,64.910888671875,-75.7293701171875,-15.13671875
5.569999900000001,4.369418144226074,-5.698200225830078,6.71334171295166,59.2193603515625,-69.122314453125,-13.4429931640625
5.5899999000000005,4.3191399574279785,-5.463568210601807,6.596025466918945,83.5723876953125,-52.0172119140625,-15.228271484375
5.609999900000001,4.503493309020996,-5.540182590484619,6.378153324127197,115.29541015625,-69.2596435546875,-7.293701171875
5.6299999000000005,4.8051629066467285,-5.592854976654053,6.0405707359313965,128.875732421875,-63.0035400390625,-4.3182373046875
5.6499999,5.106832027435303,-5.540182590484619,5.822698593139648,86.029052734375,-56.7779541015625,-9.1094970703125
5.6699999000000005,5.286397457122803,-5.365406036376953,5.647922039031982,73.1201171875,-55.48095703125,-14.8773193359375
5.6899999,5.48272180557251,-5.173870086669922,5.882553577423096,96.6644287109375,-45.989990234375,-25.115966796875
5.709999900000001,5.767632007598877,-5.114014625549316,6.4595561027526855,154.1748046875,-36.9720458984375,-35.9344482421875
5.7299999,5.803544998168945,-5.25527286529541,6.67982292175293,225.8453369140625,-23.92578125,-34.8663330078125
5.749999900000001,6.0836663246154785,-5.260061264038086,6.976703643798828,161.5447998046875,-13.6566162109375,-3.4332275390625
5.7699999,6.035782337188721,-5.145139217376709,7.048529624938965,90.9881591796875,-16.11328125,12.2222900390625
5.789999900000001,6.208165168762207,-4.831499099731445,7.671022415161133,216.36962890625,-51.513671875,6.53076171875
5.8099999,6.1315507888793945,-4.378994941711426,7.513004779815674,414.459228515625,-119.32373046875,13.0462646484375
5.829999900000001,6.0836663246154785,-3.890577793121338,7.7643961906433105,210.4644775390625,-55.1910400390625,31.646728515625
5.8499999,5.9974751472473145,-3.3303346633911133,7.184999465942383,59.4635009765625,-54.26025390625,54.656982421875
5.869999900000001,5.9304375648498535,-2.894589900970459,6.631938934326172,78.4454345703125,-58.258056640625,61.5386962890625
5.8899999,6.179434776306152,-2.557007312774658,6.497863292694092,117.3248291015625,-51.727294921875,51.025390625
5.909999900000001,6.473921298980713,-2.427720546722412,6.596025466918945,138.946533203125,-48.8739013671875,34.3780517578125
5.9299999,6.722918510437012,-2.38462495803833,6.636727333068848,128.7841796875,-45.0286865234375,28.4881591796875
5.949999900000001,6.8162922859191895,-2.31758713722229,6.773196697235107,97.7325439453125,-39.7186279296875,38.3148193359375
5.9699999,6.864176273345947,-2.161964178085327,6.852205276489258,111.3128662109375,-49.652099609375,48.3245849609375
5.989999900000001,6.907271862030029,-2.006340980529785,7.017405033111572,145.56884765625,-53.5736083984375,46.630859375
6.0099999,7.089231014251709,-1.8387469053268433,7.151480674743652,137.26806640625,-54.3060302734375,35.552978515625
6.029999900000001,7.295132637023926,-1.7310078144073486,7.129932880401611,112.2589111328125,-60.9130859375,33.5845947265625
6.0499999,7.445967197418213,-1.6519991159439087,7.050923824310303,95.2606201171875,-61.9049072265625,41.32080078125
6.069999900000001,7.546523571014404,-1.5921441316604614,6.840234279632568,109.9853515625,-73.6236572265625,39.4287109375
6.0899999000000005,7.661445617675781,-1.5442601442337036,6.648698329925537,133.1634521484375,-91.7205810546875,35.9649658203125
6.109999900000001,7.829039573669434,-1.5634137392044067,6.461950302124023,156.1431884765625,-89.2333984375,31.6162109375
6.1299999000000005,7.975085735321045,-1.5658079385757446,6.086060523986816,190.2618408203125,-75.5767822265625,13.671875
6.149999900000001,8.037335395812988,-1.556231141090393,5.655104637145996,189.056396484375,-56.304931640625,8.331298828125
6.1699999000000005,8.018181800842285,-1.501164436340332,5.137956619262695,171.5087890625,-35.2935791015625,16.9525146484375
6.1899999,8.010998725891113,-1.4221558570861816,4.692635536193848,160.5987548828125,-16.6168212890625,24.1851806640625
6.209999900000001,8.030152320861816,-1.2761094570159912,4.371812343597412,156.6162109375,-2.9296875,21.759033203125
6.2299999,8.123526573181152,-1.1204863786697388,4.220977783203125,154.9530029296875,13.2293701171875,18.5699462890625
6.249999900000001,8.142680168151855,-0.9145850539207458,4.182670593261719,140.2740478515625,21.6522216796875,20.0958251953125
6.2699999,8.180987358093262,-0.7254431247711182,4.206612586975098,121.063232421875,16.2200927734375,30.4412841796875
6.289999900000001,8.255207061767578,-0.5363011956214905,4.304774761199951,117.523193359375,0.91552734375,36.92626953125
6.3099999,8.437167167663574,-0.43095630407333374,4.3861775398254395,120.635986328125,-9.4451904296875,29.9224853515625
6.329999900000001,8.69095230102539,-0.3902548849582672,4.41969633102417,112.548828125,-9.5977783203125,27.77099609375
6.3499999,8.942343711853027,-0.40701428055763245,4.333505153656006,95.489501953125,-7.38525390625,29.2816162109375
6.369999900000001,9.119514465332031,-0.42616790533065796,4.189853191375732,80.1239013671875,-3.1585693359375,23.6053466796875
6.3899999,9.136273384094238,-0.36152446269989014,4.084507942199707,77.8350830078125,3.173828125,4.608154296875
6.409999900000001,8.99740982055664,-0.21787235140800476,4.003105163574219,93.475341796875,2.105712890625,-10.1318359375
6.4299999,8.801085472106934,0.002394201699644327,3.955221176147461,102.691650390625,6.34765625,-5.31005859375
6.449999900000001,8.540117263793945,0.2825157940387726,3.8762125968933105,94.5587158203125,13.18359375,-1.7547607421875
6.4699999,8.422801971435547,0.5267243981361389,3.734954595565796,85.3424072265625,11.993408203125,1.3275146484375
6.489999900000001,8.451532363891602,0.7398083209991455,3.6152446269989014,82.2601318359375,2.4261474609375,12.4053955078125
6.5099999,8.650250434875488,0.8092401623725891,3.603273630142212,86.7919921875,-8.575439453125,14.5416259765625
6.529999900000001,8.911218643188477,0.871489405632019,3.670311212539673,98.4649658203125,-6.500244140625,-4.1046142578125
6.5499999,9.160215377807617,0.9265560507774353,3.7445313930511475,124.8321533203125,7.87353515625,-17.4407958984375
6.569999900000001,9.277531623840332,1.115697979927063,3.758896589279175,125.6256103515625,6.0882568359375,-11.1541748046875
6.5899999000000005,9.241618156433105,1.381454348564148,3.627215623855591,113.9068603515625,-12.0849609375,4.6539306640625
6.609999900000001,9.100360870361328,1.6304513216018677,3.3949780464172363,104.644775390625,-26.9317626953125,17.1966552734375
6.6299999000000005,8.880094528198242,1.766920804977417,3.071760892868042,101.470947265625,-26.1383056640625,17.852783203125
6.649999900000001,8.683769226074219,1.8483237028121948,2.7054479122161865,102.0050048828125,-12.115478515625,11.688232421875
6.6699999000000005,8.592789649963379,1.8124107122421265,2.363077163696289,88.56201171875,-7.904052734375,21.484375
6.6899999,8.614337921142578,1.7573440074920654,2.1164743900299072,71.59423828125,-15.838623046875,39.7186279296875
6.709999900000001,8.808267593383789,1.5610195398330688,1.9704279899597168,77.08740234375,-22.8118896484375,36.5447998046875
6.7299999,9.023746490478516,1.357512354850769,1.800439715385437,89.3402099609375,-10.650634765625,8.97216796875
6.749999900000001,9.210494041442871,1.139639973640442,1.6280571222305298,66.3909912109375,-1.8463134765625,-2.197265625
6.7699999,9.320627212524414,1.0319008827209473,1.3766659498214722,30.3955078125,-3.4637451171875,15.472412109375
6.789999900000001,9.301473617553711,0.9481038451194763,1.2761094570159912,13.275146484375,-6.8359375,34.3475341796875
6.8099999,9.287108421325684,0.9744400978088379,1.3407529592514038,28.717041015625,-13.4124755859375,31.005859375
6.829999900000001,9.301473617553711,1.0247182846069336,1.460463047027588,55.2978515625,-22.0794677734375,22.2930908203125
6.8499999,9.32302188873291,1.1468225717544556,1.5107412338256836,49.957275390625,-19.9737548828125,19.10400390625
6.869999900000001,9.351752281188965,1.2641384601593018,1.37906014919281,17.2119140625,-26.79443359375,24.90234375
6.8899999,9.327810287475586,1.3120225667953491,1.1348515748977661,-2.01416015625,-64.697265625,22.7203369140625
6.909999900000001,9.421183586120605,1.2497732639312744,1.0630255937576294,3.021240234375,-80.99365234375,34.881591796875
6.9299999,9.493009567260742,1.1516109704971313,1.0678139925003052,33.6151123046875,-64.788818359375,14.556884765625
6.949999900000001,9.445125579833984,1.137245774269104,1.1540051698684692,53.0853271484375,-46.661376953125,-16.0675048828125
6.9699999,9.59835433959961,1.173158884048462,1.0989385843276978,44.7235107421875,-50.2777099609375,2.9144287109375
6.989999900000001,9.497797966003418,1.3407529592514038,1.0438719987869263,-7.781982421875,-74.8443603515625,-1.495361328125
7.0099999,9.552865028381348,1.558625340461731,0.7374141216278076,-8.056640625,-69.2901611328125,-10.406494140625
7.029999900000001,9.524134635925293,1.802833914756775,0.6991068720817566,3.9215087890625,-45.3033447265625,-13.1378173828125
7.0499999,9.48343276977539,2.1715409755706787,0.3878606855869293,12.9852294921875,-58.2275390625,-3.4637451171875
7.069999900000001,9.394847869873047,2.387019157409668,0.004788403399288654,5.4931640625,-68.145751953125,12.481689453125
7.0899999000000005,9.330204010009766,2.561795711517334,-0.6153098344802856,-27.34375,-69.793701171875,3.5400390625
7.109999900000001,9.32302188873291,2.535459518432617,-1.2425906658172607,-51.177978515625,-54.595947265625,-7.8887939453125
7.1299999000000005,9.32541561126709,2.535459518432617,-1.8124107122421265,-38.1622314453125,-34.3475341796875,-11.1236572265625
7.149999900000001,9.301473617553711,2.4827871322631836,-2.145204782485962,-33.4930419921875,-37.0330810546875,-5.55419921875
7.1699999000000005,9.263166427612305,2.4827871322631836,-2.346317768096924,-47.882080078125,-40.374755859375,4.6539306640625
7.1899999,9.301473617553711,2.3726539611816406,-2.497152328491211,-65.093994140625,-46.8292236328125,11.90185546875
7.209999900000001,9.41400146484375,2.1356279850006104,-2.5234885215759277,-83.43505859375,-61.2335205078125,1.7242431640625
7.2299999,9.674968719482422,1.9297266006469727,-2.513911724090576,-84.625244140625,-65.9332275390625,-14.1143798828125
7.249999900000001,9.892841339111328,1.764526605606079,-2.365471363067627,-85.3271484375,-68.0084228515625,-30.1361083984375
7.2699999,10.101137161254883,1.7142484188079834,-2.2816741466522217,-85.99853515625,-59.0362548828125,-27.2064208984375
7.289999900000001,10.228029251098633,1.6376339197158813,-2.2577321529388428,-98.8311767578125,-55.2215576171875,-15.716552734375
7.3099999,10.29746150970459,1.5203180313110352,-2.252943754196167,-123.4283447265625,-65.2313232421875,-24.4293212890625
7.329999900000001,10.32858657836914,1.4101848602294922,-2.3558945655822754,-126.129150390625,-66.070556640625,-46.56982421875
7.3499999,10.204087257385254,1.4077905416488647,-2.322375535964966,-128.11279296875,-62.5457763671875,-51.7578125
7.369999900000001,10.012551307678223,1.6711528301239014,-2.3367409706115723,-120.54443359375,-57.6324462890625,-33.2794189453125
7.3899999,9.821015357971191,2.0590133666992188,-2.3487119674682617,-114.7308349609375,-52.703857421875,-7.4310302734375
7.409999900000001,9.77791976928711,2.4612393379211426,-2.4899697303771973,-120.086669921875,-53.0548095703125,2.6702880859375
7.4299999,9.706093788146973,2.7293899059295654,-2.765302896499634,-125.213623046875,-58.2122802734375,-19.7296142578125
7.449999900000001,9.619902610778809,2.87064790725708,-3.069366693496704,-127.899169921875,-48.3856201171875,-41.6107177734375
7.4699999,9.320627212524414,3.071760892868042,-3.3925838470458984,-119.842529296875,-38.5894775390625,-41.6717529296875
7.489999900000001,8.892065048217773,3.3734302520751953,-3.5745432376861572,-115.78369140625,-34.210205078125,-26.79443359375
7.5099999,8.468291282653809,3.8115692138671875,-3.620033025741577,-108.795166015625,-30.8380126953125,-17.303466796875
7.529999900000001,8.17380428314209,4.20421838760376,-3.6798880100250244,-89.35546875,-26.1383056640625,-14.801025390625
7.5499999,7.994239330291748,4.434061527252197,-3.7253777980804443,-85.3118896484375,-8.758544921875,-31.890869140625
7.569999900000001,7.960720539093018,4.477157115936279,-3.804386615753174,-97.5799560546875,10.3302001953125,-47.0123291015625
7.5899999000000005,8.034940719604492,4.417302131652832,-3.885789394378662,-108.3221435546875,23.5595703125,-55.816650390625
7.609999900000001,8.01339340209961,4.364629745483398,-3.7445313930511475,-133.48388671875,51.2542724609375,-50.689697265625
7.6299999000000005,8.066065788269043,4.338293552398682,-3.354276657104492,-144.1497802734375,74.1424560546875,-46.0205078125
7.649999900000001,7.922413349151611,4.553771495819092,-2.8131868839263916,-127.6702880859375,66.95556640625,-87.9364013671875
7.6699999000000005,7.620744228363037,4.9583916664123535,-2.161964178085327,-106.7657470703125,39.093017578125,-104.888916015625
7.6899999,7.268796443939209,5.530605792999268,-1.414973258972168,-116.5618896484375,23.9105224609375,-80.0933837890625
7.709999900000001,6.780379295349121,6.236895561218262,-0.7757213711738586,-91.2933349609375,0.274658203125,-57.9833984375
7.7299999,6.466738700866699,6.88332986831665,-0.272938996553421,-48.40087890625,-4.82177734375,-34.5611572265625
7.749999900000001,6.244078159332275,7.357381820678711,0.15562310814857483,-58.28857421875,-2.9144287109375,-34.9884033203125
7.7699999,6.119579315185547,7.762001991271973,0.14365209639072418,-54.5196533203125,-27.9693603515625,-48.9959716796875
7.789999900000001,6.0405707359313965,8.092401504516602,0.06703764945268631,-74.7833251953125,-50.5218505859375,-49.072265625
7.8099999,6.026205539703369,8.370129585266113,0.3064578175544739,-121.7041015625,-41.748046875,-33.721923828125
7.829999900000001,5.8203043937683105,8.62391471862793,0.811634361743927,-28.2135009765625,-14.09912109375,-46.1883544921875
7.8499999,5.793968200683594,8.810662269592285,1.0989385843276978,143.5394287109375,24.6124267578125,-52.5970458984375
7.869999900000001,5.66228723526001,8.89685344696045,1.3886369466781616,77.056884765625,37.5213623046875,-41.0308837890625
7.8899999,5.590460777282715,8.992621421813965,1.0079588890075684,0.1678466796875,50.2471923828125,-41.6259765625
7.909999900000001,5.542576789855957,9.08838939666748,0.5027823448181152,-31.1431884765625,50.78125,-48.553466796875
7.9299999,5.415684223175049,9.191340446472168,0.18914192914962769,-61.3250732421875,35.614013671875,-63.079833984375
7.949999900000001,5.1595048904418945,9.253589630126953,0.24181437492370605,-100.799560546875,45.22705078125,-47.607421875
7.9699999,4.807557106018066,9.255983352661133,0.5219359993934631,-113.46435546875,59.50927734375,-30.0140380859375
7.989999900000001,4.431667327880859,9.136273384094238,1.2832920551300049,-127.5177001953125,65.0787353515625,-34.149169921875
8.0099999,4.094084739685059,8.980650901794434,2.1116859912872314,-75.042724609375,31.7230224609375,-32.9437255859375
8.0299999,3.9217023849487305,8.767566680908203,3.0789434909820557,-34.1033935546875,8.6517333984375,-27.191162109375
8.049999900000001,3.6798880100250244,8.571242332458496,3.773261785507202,-24.2462158203125,18.157958984375,-19.256591796875
8.069999900000001,3.708618402481079,8.33182144165039,4.1395745277404785,-15.7928466796875,31.1279296875,-3.0364990234375
8.0899999,3.7612907886505127,8.020575523376465,4.225766181945801,-14.892578125,54.9468994140625,10.07080078125
8.1099999,3.9384617805480957,7.762001991271973,4.230554580688477,-24.871826171875,61.126708984375,-3.3721923828125
8.129999900000001,4.108449935913086,7.580042362213135,4.288015365600586,-21.6217041015625,51.1627197265625,-23.5595703125
8.149999900000001,4.2544965744018555,7.5417351722717285,4.508281707763672,-12.237548828125,37.2314453125,-7.14111328125
8.1699999,4.244919776916504,7.558494567871094,4.900930881500244,13.1683349609375,24.10888671875,9.5062255859375
8.1899999,4.2329487800598145,7.63989782333374,5.130774021148682,68.634033203125,14.9383544921875,2.3956298828125
8.2099999,4.101267337799072,7.7428483963012695,5.1595048904418945,91.400146484375,28.2745361328125,-2.5482177734375
8.229999900000001,4.02465295791626,7.881711959838867,4.8937482833862305,59.50927734375,44.9066162109375,8.6517333984375
8.2499999,3.8977603912353516,8.094796180725098,4.481945514678955,37.90283203125,53.6956787109375,20.69091796875
8.2699999,3.794809579849243,8.283937454223633,3.9887399673461914,34.6221923828125,49.3621826171875,14.2669677734375
8.2899999,3.8067808151245117,8.389283180236816,3.6990416049957275,-5.2642822265625,40.0543212890625,11.6729736328125
8.309999900000001,3.751713991165161,8.413225173950195,3.6367924213409424,-27.6031494140625,29.3426513671875,7.110595703125
8.3299999,3.7253777980804443,8.446743965148926,3.6798880100250244,14.34326171875,25.1922607421875,-0.274658203125
8.3499999,3.670311212539673,8.497021675109863,3.8714241981506348,46.69189453125,28.778076171875,11.0321044921875
8.3699999,3.5673606395721436,8.652645111083984,3.9863457679748535,36.1175537109375,38.2537841796875,13.36669921875
8.389999900000001,3.450044631958008,8.899248123168945,3.971980571746826,10.3607177734375,43.6859130859375,18.85986328125
8.4099999,3.354276657104492,9.136273384094238,3.9911341667175293,-14.5111083984375,42.0989990234375,33.3709716796875
8.4299999,3.272873640060425,9.308655738830566,4.098873138427734,-3.23486328125,39.8101806640625,41.1529541015625
8.4499999,3.265691041946411,9.38048267364502,4.273650169372559,30.0140380859375,35.7818603515625,34.85107421875
8.469999900000001,3.2968156337738037,9.318233489990234,4.441244125366211,32.3944091796875,30.242919921875,35.552978515625
8.4899999,3.3710360527038574,9.205705642700195,4.431667327880859,21.7742919921875,31.768798828125,47.393798828125
8.5099999,3.4332852363586426,9.011775016784668,4.3406877517700195,12.14599609375,35.3851318359375,54.534912109375
8.5299999,3.5194764137268066,8.753201484680176,4.177882194519043,15.8538818359375,34.332275390625,56.33544921875
8.549999900000001,3.6320040225982666,8.468291282653809,4.046200752258301,31.005859375,36.468505859375,56.9000244140625
8.569999900000001,3.778050184249878,8.149862289428711,4.041412353515625,39.3218994140625,42.205810546875,60.5010986328125
8.5899999,3.9408559799194336,7.908048152923584,3.9647979736328125,61.7218017578125,48.8739013671875,60.9588623046875
8.6099999,4.168305397033691,7.6997528076171875,4.019864559173584,58.074951171875,51.7120361328125,59.051513671875
8.629999900000001,4.431667327880859,7.544129371643066,4.1874589920043945,35.82763671875,54.1229248046875,58.59375
8.649999900000001,4.685452938079834,7.450755596160889,4.41969633102417,43.365478515625,49.5452880859375,50.4302978515625
8.6699999,4.881777286529541,7.400477409362793,4.63517427444458,67.0623779296875,41.9769287109375,38.75732421875
8.6899999,4.977545261383057,7.338228225708008,4.853046894073486,65.7501220703125,48.2330322265625,37.9180908203125
8.709999900000001,5.006275653839111,7.2352776527404785,4.912901878356934,59.1278076171875,54.351806640625,43.609619140625
8.729999900000001,4.9368438720703125,7.048529624938965,4.876988887786865,53.22265625,51.1627197265625,39.7186279296875
8.7499999,4.879383087158203,6.8043212890625,4.76924991607666,44.1741943359375,43.8690185546875,32.5775146484375
8.7699999,4.738125324249268,6.495469093322754,4.67827033996582,33.3099365234375,40.2374267578125,32.7911376953125
8.7899999,4.572925090789795,6.2632317543029785,4.587290287017822,42.7398681640625,39.0472412109375,30.548095703125
8.809999900000001,4.345476150512695,6.121973514556885,4.431667327880859,67.2607421875,43.4417724609375,24.96337890625
8.8299999,4.168305397033691,6.086060523986816,4.359841346740723,48.370361328125,49.8504638671875,30.9295654296875
8.8499999,4.151545524597168,6.098031520843506,4.290409564971924,15.655517578125,50.59814453125,40.9698486328125
8.8699999,4.213795185089111,6.160281181335449,4.242525577545166,-3.082275390625,40.557861328125,31.9061279296875
8.889999900000001,4.3861775398254395,6.232107162475586,4.314351558685303,-20.3399658203125,32.65380859375,22.003173828125
8.9099999,4.517858505249023,6.279991149902344,4.654327869415283,-31.9671630859375,40.740966796875,22.125244140625
8.9299999,4.525041103363037,6.404489517211914,5.066130638122559,-1.46484375,45.0286865234375,25.299072265625
8.9499999,4.462791919708252,6.596025466918945,5.473145008087158,38.7115478515625,37.9638671875,26.153564453125
8.969999900000001,4.455609321594238,6.7277069091796875,5.803544998168945,41.3360595703125,36.4227294921875,35.6292724609375
8.9899999,4.63517427444458,6.720524311065674,5.95677375793457,31.3720703125,42.8009033203125,55.206298828125
9.0099999,4.991910457611084,6.574477672576904,5.959167957305908,43.9453125,41.8701171875,52.703857421875
9.0299999,5.463568210601807,6.287173748016357,5.892130374908447,55.755615234375,35.491943359375,33.9813232421875
9.049999900000001,5.944802761077881,5.947196960449219,5.758055210113525,47.0123291015625,34.85107421875,28.717041015625
9.069999900000001,6.3973069190979,5.643133640289307,5.5760955810546875,28.045654296875,31.890869140625,37.7197265625
9.0899999,6.780379295349121,5.39174222946167,5.39174222946167,22.5982666015625,18.5089111328125,32.501220703125
9.1099999,7.010222434997559,5.183446884155273,5.2672438621521,25.390625,9.58251953125,4.82177734375
9.129999900000001,7.206547260284424,5.061342239379883,5.092466831207275,28.900146484375,5.9051513671875,-8.4075927734375
9.149999900000001,7.208941459655762,5.03021764755249,4.948814868927002,17.974853515625,6.103515625,-3.84521484375
9.1699999,7.182605266571045,5.137956619262695,4.72376012802124,18.0816650390625,-4.119873046875,-12.0391845703125
9.1899999,7.058106422424316,5.370194435119629,4.618414878845215,20.0347900390625,-14.862060546875,-25.5126953125
9.209999900000001,6.907271862030029,5.669469833374023,4.496310710906982,36.712646484375,-5.126953125,-23.0255126953125
9.229999900000001,6.651092529296875,6.069301128387451,4.331110954284668,45.3338623046875,5.615234375,-10.406494140625
9.2499999,6.466738700866699,6.414066314697266,4.091690540313721,32.1044921875,4.119873046875,6.1492919921875
9.2699999,6.380547523498535,6.593631267547607,3.864241600036621,10.2691650390625,-4.21142578125,12.7410888671875
9.2899999,6.428431510925293,6.6391215324401855,3.756502389907837,-8.4228515625,-20.5230712890625,1.3427734375
9.309999900000001,6.512228488922119,6.658275127410889,3.778050184249878,-1.1138916015625,-27.3895263671875,-20.6451416015625
9.3299999,6.509834289550781,6.648698329925537,3.797203779220581,29.6478271484375,-12.6800537109375,-28.7322998046875
9.3499999,6.411672115325928,6.732495307922363,3.780444383621216,26.8707275390625,-7.6904296875,-16.17431640625
9.3699999,6.246472358703613,6.8378400802612305,3.598485231399536,12.6495361328125,-25.5889892578125,-9.552001953125
9.389999900000001,6.117185115814209,6.919242858886719,3.40216064453125,-1.251220703125,-32.470703125,-19.8211669921875
9.4099999,5.96874475479126,6.998251438140869,3.265691041946411,5.7525634765625,-31.1279296875,-46.2188720703125
9.4299999,5.746084213256836,7.2137298583984375,3.1244332790374756,31.768798828125,-18.7835693359375,-62.5457763671875
9.4499999,5.286397457122803,7.568071365356445,3.07415509223938,32.7911376953125,-6.927490234375,-59.7686767578125
9.469999900000001,4.891354084014893,7.91283655166626,2.985569477081299,35.0189208984375,-1.5411376953125,-30.4412841796875
9.4899999,4.383783340454102,8.097189903259277,2.9065608978271484,27.3590087890625,-17.7459716796875,-29.296875
9.5099999,4.0964789390563965,7.99184513092041,2.698265314102173,31.25,-11.53564453125,-8.0718994140625
9.5299999,3.976768970489502,7.5201873779296875,2.6024973392486572,15.625,8.4228515625,18.5394287109375
9.549999900000001,4.043806552886963,7.0126166343688965,2.4660277366638184,15.9759521484375,9.27734375,2.50244140625
9.569999900000001,4.228160381317139,6.517016887664795,2.497152328491211,21.728515625,-1.40380859375,-26.153564453125
9.5899999,4.663905143737793,6.143521785736084,2.5737667083740234,27.8472900390625,13.00048828125,-13.7939453125
9.6099999,5.190629482269287,5.961562156677246,2.6144683361053467,7.4615478515625,6.53076171875,-9.7808837890625
9.629999900000001,5.774814605712891,5.870582580566406,2.6144683361053467,-8.1787109375,3.753662109375,-18.035888671875
9.649999900000001,6.354211330413818,5.947196960449219,2.4827871322631836,1.983642578125,16.082763671875,-33.63037109375
9.6699999,6.701370716094971,6.145915985107422,2.3319525718688965,0.091552734375,22.5372314453125,-53.2684326171875
9.6899999,6.842628479003906,6.402095317840576,2.207453966140747,-18.798828125,-3.7994384765625,-61.065673828125
9.709999900000001,6.823474884033203,6.658275127410889,2.0638017654418945,-22.430419921875,-19.500732421875,-50.3387451171875
9.729999900000001,6.799532890319824,6.854599475860596,1.9512743949890137,-20.7366943359375,-21.148681640625,-51.3153076171875
9.7499999,6.801927089691162,6.962338447570801,1.8171991109848022,-30.8074951171875,-39.2913818359375,-57.9681396484375
9.7699999,6.933608055114746,7.094019412994385,1.7717092037200928,-62.8204345703125,-73.028564453125,-62.80517578125
9.7899999,6.967126846313477,7.2137298583984375,1.7334020137786865,-64.483642578125,-66.192626953125,-64.6209716796875
9.809999900000001,6.904877662658691,7.347805023193359,1.9273324012756348,-49.7283935546875,-53.1768798828125,-53.1463623046875
9.8299999,6.677428722381592,7.546523571014404,2.2146365642547607,-26.3671875,-46.1273193359375,-38.482666015625
9.8499999,6.291962146759033,7.7763671875,2.612074136734009,-12.9547119140625,-51.177978515625,-36.041259765625
9.8699999,5.784391403198242,8.10437297821045,2.9496564865112305,-17.2576904296875,-69.64111328125,-46.0662841796875
9.889999900000001,5.216965675354004,8.463502883911133,3.141192674636841,-26.1993408203125,-84.747314453125,-50.201416015625
9.9099999,4.606443881988525,8.820239067077637,3.114856481552124,-30.8380126953125,-82.4127197265625,-42.0989990234375
9.9299999,4.005499362945557,9.069235801696777,2.9879636764526367,-34.1949462890625,-79.52880859375,-40.924072265625
9.9499999,3.49314022064209,9.217676162719727,2.8155810832977295,-32.6080322265625,-77.5909423828125,-41.717529296875
9.969999900000001,3.0813376903533936,9.318233489990234,2.7054479122161865,-28.564453125,-76.2481689453125,-44.281005859375
9.9899999,2.832340717315674,9.375694274902344,2.6240451335906982,-18.49365234375,-72.998046875,-45.318603515625
10.0099999,2.7293899059295654,9.346963882446289,2.5234885215759277,-11.322021484375,-70.953369140625,-40.1153564453125
10.0299999,2.784456491470337,9.239224433898926,2.3511061668395996,-8.97216796875,-74.70703125,-42.938232421875
10.049999900000001,2.983175277709961,9.045293807983398,2.1356279850006104,-12.1917724609375,-76.9805908203125,-49.530029296875
10.069999900000001,3.2393548488616943,8.851364135742188,1.920149803161621,-14.3280029296875,-72.2808837890625,-51.7425537109375
10.0899999,3.4835634231567383,8.774748802185059,1.7477672100067139,-19.8822021484375,-71.9451904296875,-51.788330078125
10.1099999,3.6822822093963623,8.820239067077637,1.6328455209732056,-22.552490234375,-73.089599609375,-42.1600341796875
10.129999900000001,3.8067808151245117,8.96389102935791,1.6352397203445435,-34.5611572265625,-63.04931640625,-30.76171875
10.149999900000001,3.869029998779297,9.133879661560059,1.8124107122421265,-55.17578125,-57.0526123046875,-27.069091796875
10.1699999,3.8307228088378906,9.299078941345215,2.118868589401245,-52.215576171875,-74.554443359375,-33.3709716796875
10.1899999,3.667917013168335,9.41639518737793,2.473210334777832,-33.8287353515625,-91.552734375,-44.4488525390625
10.209999900000001,3.4165258407592773,9.48343276977539,2.7006595134735107,-21.759033203125,-85.3271484375,-36.6668701171875
10.229999900000001,3.1076738834381104,9.452308654785156,2.650381326675415,-16.3421630859375,-74.951171875,-23.284912109375
10.2499999,2.8586769104003906,9.337387084960938,2.3750481605529785,-15.0909423828125,-71.96044921875,-21.8963623046875
10.2699999,2.7269957065582275,9.21288776397705,2.0685901641845703,-25.970458984375,-76.7822265625,-23.3612060546875
10.2899999,2.652775526046753,9.160215377807617,1.8315643072128296,-29.8309326171875,-81.634521484375,-25.1617431640625
10.309999900000001,2.741360902786255,9.227252960205078,1.6687586307525635,-13.275146484375,-82.09228515625,-20.355224609375
10.3299999,2.6839001178741455,9.334992408752441,1.501164436340332,-14.923095703125,-74.3865966796875,-22.674560546875
10.3499999,2.7485435009002686,9.3828763961792,1.213860273361206,-26.9775390625,-61.2030029296875,-7.01904296875
10.3699999,2.7222073078155518,9.294290542602539,0.8523358106613159,-41.8701171875,-59.3414306640625,-4.852294921875
10.389999900000001,2.7461493015289307,9.167398452758789,0.5291185975074768,-50.628662109375,-75.6072998046875,-19.6685791015625
10.4099999,2.75812029838562,9.095572471618652,0.35913026332855225,-42.6788330078125,-66.1773681640625,-25.7110595703125
10.4299999,2.676717519760132,9.196128845214844,0.35913026332855225,-34.11865234375,-41.6259765625,-30.4412841796875
10.4499999,2.52109432220459,9.402029991149902,0.5051765441894531,-44.2962646484375,-27.03857421875,-27.313232421875
10.469999900000001,2.3511061668395996,9.600749015808105,0.7158663272857666,-59.50927734375,-16.754150390625,-17.730712890625
10.4899999,2.1930887699127197,9.694122314453125,1.01753568649292,-59.8907470703125,-12.9241943359375,-13.7786865234375
10.5099999,2.030282974243164,9.770736694335938,1.3527239561080933,-47.8668212890625,-14.862060546875,-22.6898193359375
10.5299999,1.86508309841156,9.847352027893066,1.764526605606079,-55.5572509765625,-7.720947265625,-21.9879150390625
10.549999900000001,1.7525556087493896,9.892841339111328,2.2601263523101807,-71.10595703125,-4.0740966796875,-3.448486328125
10.569999900000001,1.7334020137786865,9.825803756713867,2.6839001178741455,-58.563232421875,-19.6990966796875,3.7078857421875
10.5899999,1.800439715385437,9.677363395690918,3.0382418632507324,-39.8406982421875,-21.484375,-9.5977783203125
10.6099999,1.7860745191574097,9.550470352172852,3.3207578659057617,-43.0755615234375,-7.32421875,-27.83203125
10.629999900000001,1.644816517829895,9.579200744628906,3.529053211212158,-47.7447509765625,-0.213623046875,-22.9644775390625
10.649999900000001,1.414973258972168,9.658209800720215,3.77565598487854,-42.4652099609375,-9.33837890625,4.8828125
10.6699999,1.2330138683319092,9.708487510681152,3.9815573692321777,-35.2630615234375,-20.5535888671875,20.2178955078125
10.6899999,1.1971008777618408,9.677363395690918,4.213795185089111,-41.8243408203125,-10.1165771484375,11.749267578125
10.709999900000001,1.2856862545013428,9.59835433959961,4.438849925994873,-51.727294921875,4.180908203125,3.8604736328125
10.729999900000001,1.479616641998291,9.481039047241211,4.726154327392578,-53.1005859375,15.350341796875,15.7928466796875
10.7499999,1.778891921043396,9.20091724395752,5.1331682205200195,-57.31201171875,6.34765625,28.228759765625
10.7699999,2.0877439975738525,8.793902397155762,5.626373767852783,-54.19921875,-17.5628662109375,16.90673828125
10.7899999,2.1787235736846924,8.279149055480957,6.165069580078125,-44.1131591796875,-24.566650390625,-3.509521484375
10.809999900000001,2.2457611560821533,8.010998725891113,6.584054470062256,-28.50341796875,-29.7698974609375,24.383544921875
10.8299999,1.9800047874450684,7.843404769897461,6.912060260772705,-23.49853515625,-24.90234375,47.088623046875
10.8499999,1.7956513166427612,7.910442352294922,7.16584587097168,-21.484375,-10.589599609375,46.2493896484375
10.8699999,1.6136919260025024,8.08043098449707,7.405265808105469,-5.2032470703125,15.838623046875,35.6597900390625
10.889999900000001,1.4460978507995605,8.31985092163086,7.716512203216553,6.744384765625,16.754150390625,44.61669921875
10.9099999,1.3096283674240112,8.678980827331543,8.066065788269043,6.3018798828125,-1.068115234375,66.3604736328125
10.9299999,1.259350061416626,9.050082206726074,8.429984092712402,-3.72314453125,-16.2200927734375,75.286865234375
10.9499999,1.2330138683319092,9.397241592407227,8.652645111083984,24.3682861328125,-27.2216796875,61.0198974609375
10.969999900000001,1.3551181554794312,9.68933391571045,8.741230010986328,52.032470703125,-17.242431640625,42.0074462890625
10.9899999,1.558625340461731,9.840168952941895,8.633491516113281,46.9970703125,-4.9285888671875,52.42919921875
11.0099999,1.8842366933822632,9.801861763000488,8.367734909057617,36.8194580078125,-7.6904296875,73.5015869140625
11.0299999,2.3343467712402344,9.490615844726562,7.989450931549072,50.84228515625,-9.27734375,84.47265625
11.049999900000001,2.9065608978271484,8.973467826843262,7.558494567871094,72.6318359375,-16.357421875,82.7178955078125
11.069999900000001,3.49314022064209,8.4108304977417,7.036558628082275,77.94189453125,-24.4293212890625,70.5718994140625
11.0899999,4.034229755401611,7.91283655166626,6.404489517211914,76.0040283203125,-24.5208740234375,60.5010986328125
11.1099999,4.467580318450928,7.570465564727783,5.772420406341553,70.281982421875,-18.310546875,60.699462890625
11.129999900000001,4.757278919219971,7.395689010620117,5.166687488555908,77.7587890625,-13.8397216796875,65.00244140625
11.149999900000001,4.93923807144165,7.362170219421387,4.639962673187256,84.716796875,-10.92529296875,73.2879638671875
11.1699999,5.0254292488098145,7.419631004333496,4.216189384460449,67.9168701171875,-14.58740234375,85.0067138671875
11.1899999,5.07570743560791,7.489062786102295,3.818751811981201,59.0667724609375,-16.6778564453125,87.82958984375
11.209999900000001,5.114014625549316,7.568071365356445,3.4572272300720215,60.2264404296875,-15.4266357421875,82.611083984375
11.229999900000001,5.0876784324646,7.613561630249023,3.0765492916107178,60.36376953125,-15.1214599609375,80.2459716796875
11.2499999,5.058948040008545,7.647080421447754,2.715024709701538,52.001953125,-12.237548828125,92.8192138671875
11.2699999,5.03021764755249,7.608773231506348,2.4851813316345215,34.149169921875,-6.7596435546875,104.736328125
11.2899999,5.054159641265869,7.496245384216309,2.3750481605529785,35.5072021484375,-4.302978515625,104.9346923828125
11.309999900000001,5.145139217376709,7.266402244567871,2.451662540435791,29.9224853515625,-9.8876953125,107.5439453125
11.3299999,5.329493045806885,6.933608055114746,2.671929121017456,13.9007568359375,-18.707275390625,120.0714111328125
11.3499999,5.547365188598633,6.473921298980713,2.9712042808532715,20.477294921875,-18.1427001953125,118.438720703125
11.3699999,5.853823184967041,5.9304375648498535,3.201047658920288,47.5616455078125,-17.08984375,115.3717041015625
11.389999900000001,6.157886981964111,5.382165431976318,3.3949780464172363,45.10498046875,-19.1497802734375,111.9842529296875
11.4099999,6.368576526641846,4.903325080871582,3.383007049560547,38.0096435546875,-20.477294921875,104.43115234375
11.4299999,6.464344501495361,4.532223701477051,3.2968156337738037,36.5142822265625,-23.5748291015625,111.0687255859375
11.4499999,6.418854713439941,4.230554580688477,3.023876667022705,57.464599609375,-25.909423828125,128.5552978515625
11.469999900000001,6.406883716583252,3.8546648025512695,2.784456491470337,56.9305419921875,-21.4996337890625,138.336181640625
11.4899999,6.48828649520874,3.428496837615967,2.5258827209472656,36.834716796875,-25.238037109375,144.10400390625
11.5099999,6.71334171295166,2.935291290283203,2.3343467712402344,40.34423828125,-32.2265625,137.1917724609375
11.5299999,7.010222434997559,2.389413356781006,2.212242364883423,56.45751953125,-24.90234375,124.298095703125
11.549999900000001,7.2783732414245605,1.8531121015548706,2.1356279850006104,53.4210205078125,-22.5982666015625,121.8414306640625
11.569999900000001,7.4555439949035645,1.3551181554794312,2.0829553604125977,44.586181640625,-23.681640625,122.528076171875
11.5899999,7.5417351722717285,0.8595184087753296,2.0829553604125977,45.47119140625,-20.721435546875,119.4610595703125
11.6099999,7.594407558441162,0.38546648621559143,2.233790159225464,56.2896728515625,-18.6004638671875,113.067626953125
11.629999900000001,7.603984832763672,-0.002394201699644327,2.346317768096924,88.8214111328125,-15.1214599609375,99.609375
11.649999900000001,7.603984832763672,-0.33518823981285095,2.4660277366638184,89.9505615234375,-9.8114013671875,95.9930419921875
11.6699999,7.630321025848389,-0.5434837937355042,2.4205379486083984,70.3125,-15.07568359375,114.593505859375
11.6899999,7.632715225219727,-0.706289529800415,2.233790159225464,68.328857421875,-17.1051025390625,122.2686767578125
11.709999900000001,7.637503623962402,-0.8858546018600464,1.9321208000183105,75.3631591796875,-11.29150390625,112.73193359375
11.729999900000001,7.613561630249023,-1.1109095811843872,1.5921441316604614,74.188232421875,-7.0037841796875,100.4791259765625
11.7499999,7.50582218170166,-1.4101848602294922,1.256955862045288,65.0482177734375,-2.1514892578125,95.1690673828125
11.7699999,7.3669586181640625,-1.7597382068634033,1.0223240852355957,58.135986328125,0.244140625,96.1151123046875
11.7899999,7.156269073486328,-2.1308395862579346,0.8667010068893433,61.7828369140625,3.9520263671875,91.4306640625
11.809999900000001,6.979097843170166,-2.607285737991333,0.8547300100326538,59.08203125,12.20703125,89.630126953125
11.8299999,6.854599475860596,-3.1052796840667725,0.9576807022094727,58.4869384765625,19.775390625,88.31787109375
11.8499999,6.754043102264404,-3.620033025741577,1.0199298858642578,79.2236328125,27.4505615234375,79.437255859375
11.8699999,6.734889507293701,-4.141968727111816,1.1037269830703735,82.0465087890625,36.9720458984375,75.531005859375
11.889999900000001,6.806715488433838,-4.644751071929932,1.139639973640442,61.065673828125,44.0216064453125,66.4215087890625
11.9099999,7.041347026824951,-5.157110691070557,1.2976573705673218,27.4658203125,44.3572998046875,53.89404296875
11.9299999,7.474697589874268,-5.679046630859375,1.5514427423477173,14.8773193359375,31.3568115234375,43.7469482421875
11.9499999,8.020575523376465,-6.09324312210083,1.9057846069335938,24.96337890625,25.1922607421875,27.3284912109375
11.969999900000001,8.537723541259766,-6.354211330413818,2.255337953567505,26.214599609375,24.383544921875,17.3187255859375
11.9899999,8.889671325683594,-6.3973069190979,2.4636335372924805,16.510009765625,15.9759521484375,17.2882080078125
12.0099999,8.96389102935791,-6.36378812789917,2.494758129119873,14.8162841796875,10.5133056640625,15.07568359375
12.0299999,8.827422142028809,-6.145915985107422,2.3774423599243164,33.355712890625,19.866943359375,-5.1116943359375
12.049999900000001,8.516175270080566,-5.846640586853027,2.276885747909546,40.1153564453125,46.38671875,-19.805908203125
12.069999900000001,8.209717750549316,-5.427655220031738,2.3798365592956543,21.148681640625,46.478271484375,-8.026123046875
12.0899999,7.948749542236328,-5.051765441894531,2.5929205417633057,34.1644287109375,34.60693359375,7.6751708984375
12.1099999,7.783549785614014,-4.774038314819336,3.00711727142334,39.031982421875,33.5540771484375,13.5498046875
12.129999900000001,7.69735860824585,-4.654327869415283,3.3925838470458984,31.3720703125,42.5567626953125,2.74658203125
12.149999900000001,7.644686222076416,-4.671087741851807,3.6822822093963623,27.16064453125,44.677734375,3.021240234375
12.1699999,7.642292022705078,-4.730942726135254,3.9264907836914062,9.4757080078125,35.21728515625,28.2135009765625
12.1899999,7.666234016418457,-4.869806289672852,4.122815132141113,-10.6048583984375,20.5535888671875,32.8369140625
12.209999900000001,7.68538761138916,-4.975151062011719,4.228160381317139,2.50244140625,18.2037353515625,15.0299072265625
12.229999900000001,7.649474620819092,-5.037400245666504,4.24970817565918,8.1787109375,25.6805419921875,0.885009765625
12.2499999,7.503427982330322,-4.999093055725098,4.2090067863464355,-11.2457275390625,13.824462890625,5.7373046875
12.2699999,7.3693528175354,-4.994304656982422,4.122815132141113,-35.980224609375,-12.2833251953125,22.3236083984375
12.289999900000002,7.438784599304199,-5.092466831207275,3.971980571746826,-40.8935546875,-16.5252685546875,10.55908203125
12.309999900000001,7.6782050132751465,-5.329493045806885,3.825934410095215,-34.11865234375,1.190185546875,-17.6849365234375
12.3299999,8.188169479370117,-5.657498836517334,3.737348794937134,-37.139892578125,14.1143798828125,-16.510009765625
12.3499999,8.78432559967041,-6.038176536560059,3.7469255924224854,-39.5660400390625,17.4713134765625,-4.08935546875
12.3699999,9.27034854888916,-6.354211330413818,3.7636849880218506,-44.036865234375,12.4664306640625,-27.191162109375
12.389999900000001,9.531316757202148,-6.473921298980713,3.8307228088378906,-59.99755859375,3.11279296875,-54.443359375
12.4099999,9.493009567260742,-6.251260757446289,3.84269380569458,-68.4661865234375,1.861572265625,-65.0482177734375
12.4299999,9.227252960205078,-5.714959621429443,3.861847400665283,-58.2275390625,5.4473876953125,-76.23291015625
12.4499999,8.777143478393555,-4.982333660125732,3.799597978591919,-44.0216064453125,-8.8348388671875,-87.9058837890625
12.469999900000001,8.219294548034668,-4.3191399574279785,3.3949780464172363,-55.511474609375,-32.53173828125,-95.0469970703125
12.4899999,7.6566572189331055,-3.8139634132385254,2.7916390895843506,-117.401123046875,-12.176513671875,-90.6982421875
12.5099999,7.113173484802246,-3.49314022064209,2.1045033931732178,-163.909912109375,6.927490234375,-71.4874267578125
12.5299999,6.854599475860596,-3.287238836288452,1.6855180263519287,-124.5574951171875,11.505126953125,-59.356689453125
12.549999900000001,7.005434036254883,-3.181894063949585,1.6112977266311646,-39.7186279296875,33.203125,-78.9947509765625
12.569999900000001,7.565677165985107,-3.136404275894165,1.8195933103561401,-2.8533935546875,70.220947265625,-102.2491455078125
12.5899999,8.437167167663574,-3.1699230670928955,2.049436569213867,-27.7557373046875,81.817626953125,-106.6131591796875
12.6099999,9.337387084960938,-3.2154128551483154,2.255337953567505,-63.6444091796875,64.544677734375,-108.88671875
12.629999900000001,10.134655952453613,-3.205836057662964,2.4420857429504395,-71.47216796875,57.220458984375,-121.612548828125
12.649999900000001,10.735600471496582,-3.1723172664642334,2.6431987285614014,-54.6875,71.22802734375,-146.54541015625
12.6699999,11.142614364624023,-3.0358476638793945,2.889801502227783,-51.422119140625,93.26171875,-168.914794921875
12.6899999,11.276689529418945,-2.806004285812378,3.07415509223938,-64.605712890625,111.1602783203125,-180.511474609375
12.709999900000001,11.14500904083252,-2.470816135406494,3.2848446369171143,-83.709716796875,109.5123291015625,-202.4688720703125
12.729999900000001,10.781089782714844,-2.056619167327881,3.557783842086792,-89.7369384765625,106.689453125,-209.5947265625
12.7499999,10.24239444732666,-1.5705963373184204,3.9408559799194336,-71.2890625,121.826171875,-190.7958984375
12.7699999,9.667786598205566,-1.173158884048462,4.496310710906982,-56.2896728515625,132.049560546875,-184.417724609375
12.789999900000002,8.973467826843262,-0.6392518281936646,5.169081687927246,-55.48095703125,127.3193359375,-186.0504150390625
12.809999900000001,8.22887134552002,-0.031124621629714966,5.791574001312256,-36.651611328125,133.2855224609375,-177.490234375
12.8299999,7.481880187988281,0.8092401623725891,6.332663536071777,-23.8494873046875,125,-161.7279052734375
12.8499999,6.847416877746582,1.7525556087493896,6.8162922859191895,-23.0560302734375,97.5494384765625,-157.40966796875
12.8699999,6.368576526641846,2.655169725418091,7.110779285430908,-8.1024169921875,82.427978515625,-152.6641845703125
12.889999900000001,6.117185115814209,3.4332852363586426,7.319074630737305,11.8408203125,69.9005126953125,-128.7841796875
12.9099999,5.985504150390625,4.01268196105957,7.283161640167236,26.2298583984375,62.896728515625,-103.515625
12.9299999,5.894524574279785,4.49870491027832,7.146692276000977,16.1895751953125,60.3790283203125,-108.9630126953125
12.9499999,5.817910194396973,4.982333660125732,6.97430944442749,-8.6669921875,56.4422607421875,-103.69873046875
12.969999900000001,5.6670756340026855,5.339069843292236,6.919242858886719,-15.56396484375,58.746337890625,-76.4617919921875
12.9899999,5.5760955810546875,5.461174011230469,7.1706342697143555,-15.625,58.746337890625,-50.8270263671875
13.0099999,5.386953830718994,5.463568210601807,7.5417351722717285,-8.4381103515625,17.7154541015625,-74.2034912109375
13.0299999,5.178658485412598,5.305551052093506,7.982268333435059,-1.190185546875,-7.8887939453125,-85.2203369140625
13.049999900000001,4.869806289672852,5.197812080383301,8.334216117858887,0.4119873046875,1.03759765625,-68.6798095703125
13.069999900000001,4.441244125366211,5.307945251464844,8.53293514251709,11.3067626953125,18.646240234375,-52.6580810546875
13.0899999,3.9600095748901367,5.518634796142578,8.724471092224121,3.0670166015625,34.7137451171875,-46.5087890625
13.1099999,3.5194764137268066,5.781997203826904,8.9064302444458,5.859375,40.130615234375,-33.3709716796875
13.129999900000001,3.157952070236206,5.932831764221191,9.10993766784668,9.8876953125,25.5279541015625,-24.35302734375
13.149999900000001,2.9759926795959473,5.92325496673584,9.346963882446289,1.52587890625,-3.662109375,-16.4031982421875
13.1699999,2.8874073028564453,5.827486991882324,9.512163162231445,9.033203125,-24.0936279296875,-36.1480712890625
13.1899999,2.9281086921691895,5.772420406341553,9.636661529541016,26.8707275390625,-26.824951171875,-55.8013916015625
13.209999900000001,2.9257144927978516,5.849034786224365,9.66299819946289,23.681640625,-21.9879150390625,-43.212890625
13.229999900000001,2.896984100341797,6.098031520843506,9.641449928283691,3.326416015625,-22.7508544921875,-20.56884765625
13.2499999,2.736572504043579,6.45476770401001,9.655815124511719,0.91552734375,-23.8494873046875,-22.0489501953125
13.2699999,2.580949544906616,6.873753070831299,9.737217903137207,25.2685546875,-24.139404296875,-32.5927734375
13.289999900000002,2.3918075561523438,7.328651428222656,9.95748519897461,29.8004150390625,-39.306640625,-19.927978515625
13.309999900000001,2.2409727573394775,7.735665798187256,10.18493366241455,17.3492431640625,-61.0504150390625,-1.7547607421875
13.3299999,2.2385785579681396,8.056488990783691,10.290278434753418,13.702392578125,-71.3043212890625,15.1824951171875
13.3499999,2.3582887649536133,8.214506149291992,10.26394271850586,19.683837890625,-68.1610107421875,23.1170654296875
13.3699999,2.655169725418091,8.195352554321289,10.098742485046387,33.233642578125,-61.8743896484375,22.4456787109375
13.389999900000001,3.0190882682800293,8.039729118347168,9.797073364257812,41.2445068359375,-70.0836181640625,24.4598388671875
13.4099999,3.378218650817871,7.850587368011475,9.299078941345215,37.6129150390625,-90.8966064453125,19.0277099609375
13.4299999,3.6607344150543213,7.723694801330566,8.667010307312012,24.3072509765625,-94.4976806640625,11.3983154296875
13.4499999,3.6535518169403076,7.745242595672607,7.910442352294922,30.0750732421875,-83.648681640625,11.41357421875
13.469999900000001,3.7158010005950928,7.943961143493652,7.127538681030273,46.875,-80.9326171875,13.1072998046875
13.4899999,3.4572272300720215,8.154650688171387,6.3973069190979,50.872802734375,-78.2470703125,24.0936279296875
13.5099999,3.426102638244629,8.274360656738281,5.810727596282959,30.8685302734375,-85.235595703125,44.73876953125
13.5299999,3.4141316413879395,8.147468566894531,5.396530628204346,24.3988037109375,-58.258056640625,67.474365234375
13.549999900000001,3.466804027557373,7.836222171783447,5.1331682205200195,42.6483154296875,-41.168212890625,68.9239501953125
13.569999900000001,3.670311212539673,7.419631004333496,5.037400245666504,50.7965087890625,-43.8385009765625,66.009521484375
13.5899999,3.931279182434082,6.962338447570801,5.039794445037842,38.9251708984375,-46.3104248046875,70.3277587890625
13.6099999,4.256890773773193,6.576871871948242,5.008669853210449,32.1197509765625,-59.5245361328125,67.169189453125
13.629999900000001,4.656722068786621,6.2847795486450195,4.910507678985596,31.1126708984375,-67.81005859375,62.652587890625
13.649999900000001,5.0469770431518555,6.081272125244141,4.72376012802124,27.923583984375,-60.3790283203125,67.32177734375
13.6699999,5.394136428833008,5.95677375793457,4.491522312164307,35.1715087890625,-44.12841796875,64.4683837890625
13.6899999,5.805939197540283,5.901707172393799,4.223371982574463,49.2095947265625,-34.4390869140625,57.0068359375
13.709999900000001,6.071695327758789,5.904101371765137,3.976768970489502,57.31201171875,-33.63037109375,68.6187744140625
13.729999900000001,6.277596950531006,5.959167957305908,3.7229835987091064,60.3485107421875,-38.055419921875,69.0460205078125
13.7499999,6.315904140472412,6.133944988250732,3.3925838470458984,60.5316162109375,-37.445068359375,67.0623779296875
13.7699999,6.119579315185547,6.335057735443115,3.1052796840667725,48.76708984375,-34.3017578125,75.286865234375
13.789999900000002,5.96874475479126,6.440402507781982,2.9688100814819336,38.055419921875,-29.4036865234375,88.470458984375
13.809999900000001,5.872976779937744,6.31829833984375,2.9903578758239746,46.8902587890625,-24.23095703125,96.25244140625
13.8299999,5.942408561706543,5.978321552276611,3.1220390796661377,56.7474365234375,-22.03369140625,101.01318359375
13.8499999,6.124367713928223,5.434837818145752,3.268085241317749,50.1708984375,-21.9268798828125,105.6365966796875
13.8699999,6.320692539215088,4.778826713562012,3.3686418533325195,41.3970947265625,-21.881103515625,108.82568359375
13.889999900000001,6.605602264404297,4.0749311447143555,3.383007049560547,49.86572265625,-28.0609130859375,111.2518310546875
13.9099999,6.818686485290527,3.3662476539611816,3.378218650817871,58.0596923828125,-32.470703125,102.7069091796875
13.9299999,7.050923824310303,2.7078421115875244,3.31118106842041,54.7027587890625,-29.5867919921875,98.052978515625
13.9499999,7.225700855255127,2.1284453868865967,3.160346269607544,46.875,-29.449462890625,104.0496826171875
13.969999900000001,7.319074630737305,1.6615760326385498,2.9448680877685547,46.20361328125,-34.11865234375,106.903076171875
13.9899999,7.33583402633667,1.2880805730819702,2.6815059185028076,53.3294677734375,-37.78076171875,102.5543212890625
14.0099999,7.326257228851318,0.9528923034667969,2.4229321479797363,58.53271484375,-35.2783203125,98.785400390625
14.0299999,7.309497833251953,0.6943184733390808,2.250549554824829,50.8880615234375,-27.4200439453125,95.8709716796875
14.049999900000001,7.292738437652588,0.40701428055763245,2.1164743900299072,66.680908203125,23.4527587890625,123.1536865234375
14.069999900000001,7.295132637023926,0.11971008777618408,2.1045033931732178,60.4705810546875,-7.87353515625,86.9598388671875
14.0899999,7.218518257141113,-0.1867477297782898,2.140416383743286,44.7998046875,-36.1785888671875,63.3697509765625
14.1099999,7.12035608291626,-0.4572925269603729,2.1475989818573,67.0928955078125,-20.69091796875,107.269287109375
14.129999900000001,7.000645637512207,-0.7565677165985107,2.1499931812286377,58.4869384765625,-20.843505859375,116.3787841796875
14.149999900000001,6.914454460144043,-1.070208191871643,2.1308395862579346,44.0216064453125,-39.61181640625,116.973876953125
14.1699999,6.936002254486084,-1.4508862495422363,2.1092917919158936,45.7305908203125,-35.6292724609375,103.82080078125
14.1899999,6.9455790519714355,-1.8579005002975464,2.0183119773864746,59.661865234375,-25.665283203125,87.82958984375
14.209999900000001,6.890512466430664,-2.2385785579681396,1.8818424940109253,60.1348876953125,-26.214599609375,69.549560546875
14.229999900000001,6.809109687805176,-2.52109432220459,1.6903064250946045,53.0242919921875,-28.350830078125,66.95556640625
14.2499999,6.607996463775635,-2.827552318572998,1.534683346748352,42.327880859375,-34.3475341796875,72.5555419921875
14.2699999,6.528987884521484,-3.0885202884674072,1.381454348564148,62.3626708984375,-24.444580078125,117.095947265625
14.289999900000002,6.428431510925293,-3.466804027557373,1.2497732639312744,58.807373046875,-36.468505859375,94.8638916015625
14.309999900000001,6.497863292694092,-3.869029998779297,1.094150185585022,51.2542724609375,-39.1082763671875,98.5260009765625
14.3299999,6.631938934326172,-4.316745758056641,0.8882488012313843,58.2275390625,-37.0025634765625,114.288330078125
14.3499999,6.833051681518555,-4.774038314819336,0.7565677165985107,64.7430419921875,-36.407470703125,119.0032958984375
14.3699999,7.043741226196289,-5.212177276611328,0.6200982332229614,80.6427001953125,-25.054931640625,110.565185546875
14.389999900000001,7.347805023193359,-5.7125654220581055,0.5889736413955688,76.72119140625,-11.9781494140625,111.5264892578125
14.4099999,7.592013359069824,-6.229712963104248,0.6368576288223267,62.6068115234375,-12.0086669921875,119.5526123046875
14.4299999,7.836222171783447,-6.742072105407715,0.7206547260284424,68.42041015625,-12.5885009765625,111.38916015625
14.4499999,8.01339340209961,-7.204153060913086,0.8379706144332886,86.181640625,-7.7667236328125,103.8818359375
14.469999900000001,7.982268333435059,-7.539340972900391,0.9361328482627869,67.7947998046875,-9.796142578125,102.6611328125
14.4899999,7.778761386871338,-7.73087739944458,0.9983820915222168,36.7279052734375,-30.8990478515625,113.128662109375
14.5099999,7.486668586730957,-7.7643961906433105,1.0869675874710083,25.604248046875,-58.3648681640625,136.474609375
14.5299999,7.026981830596924,-7.704541206359863,1.1276689767837524,52.642822265625,-58.380126953125,144.1802978515625
14.549999900000001,6.514622688293457,-7.508216381072998,1.0965443849563599,67.1234130859375,-39.093017578125,139.6942138671875
14.569999900000001,6.009446144104004,-7.457938194274902,0.9576807022094727,44.1131591796875,-36.7889404296875,167.633056640625
14.5899999,5.688623428344727,-7.757213592529297,0.8930372595787048,4.486083984375,-54.74853515625,190.673828125
14.6099999,5.453991413116455,-8.20492935180664,0.7637503147125244,27.0538330078125,-45.5780029296875,137.420654296875
14.629999900000001,5.257667064666748,-8.798690795898438,0.6584054827690125,45.5780029296875,-14.6942138671875,83.892822265625
14.649999900000001,5.018246650695801,-9.188945770263672,0.3998316824436188,23.162841796875,-19.7601318359375,81.9854736328125
14.6699999,4.793191909790039,-9.428366661071777,0.2944868206977844,-28.2745361328125,-18.85986328125,96.3287353515625
14.6899999,4.60165548324585,-9.583989143371582,0.26336219906806946,-13.092041015625,-8.72802734375,87.95166015625
14.709999900000001,4.537012100219727,-9.806650161743164,0.395043283700943,17.5018310546875,-4.608154296875,51.055908203125
14.729999900000001,4.424484729766846,-9.974244117736816,0.43095630407333374,8.026123046875,-3.662109375,38.6810302734375
14.7499999,4.173093795776367,-9.988609313964844,0.2537853717803955,-42.2210693359375,-10.43701171875,60.4705810546875
14.7699999,3.8714241981506348,-9.84256362915039,0.0454898327589035,-90.484619140625,-18.85986328125,85.662841796875
14.789999900000002,3.620033025741577,-9.567230224609375,-0.05027823522686958,-72.174072265625,-22.186279296875,85.3424072265625
14.809999900000001,3.399766445159912,-9.260771751403809,-0.07182604819536209,-12.5274658203125,-15.1824951171875,70.404052734375
14.8299999,3.205836057662964,-9.05247688293457,-0.05506663769483566,2.1209716796875,3.7078857421875,72.1435546875
14.8499999,2.892195701599121,-8.925583839416504,-0.21547815203666687,-30.33447265625,-1.434326171875,87.40234375
14.8699999,2.499546527862549,-8.923190116882324,-0.33039984107017517,-59.99755859375,-7.4005126953125,105.3466796875
14.889999900000001,2.166752576828003,-8.918401718139648,-0.3926490843296051,-48.614501953125,-6.2255859375,125.0762939453125
14.9099999,1.7956513166427612,-8.887276649475098,-0.21308395266532898,-30.4718017578125,-13.2904052734375,133.1939697265625
14.9299999,1.4269442558288574,-8.777143478393555,0.019153613597154617,-17.1966552734375,-21.820068359375,144.134521484375
14.9499999,0.9648633003234863,-8.710105895996094,0.2346317619085312,-6.1492919921875,-28.4271240234375,166.290283203125
14.969999900000001,0.4620809257030487,-8.774748802185059,0.3423708379268646,-1.861572265625,-35.3240966796875,181.304931640625
14.9899999,-0.07661445438861847,-9.038111686706543,0.33279404044151306,1.190185546875,-34.088134765625,175.7659912109375
15.0099999,-0.5746083855628967,-9.445125579833984,0.26096799969673157,-2.50244140625,-29.6783447265625,168.701171875
15.0299999,-1.0893617868423462,-9.90241813659668,0.17956513166427612,-11.322021484375,-36.56005859375,168.7164306640625
15.049999900000001,-1.6615760326385498,-10.292673110961914,0.05267243832349777,-7.0953369140625,-41.1529541015625,169.2962646484375
15.069999900000001,-2.293645143508911,-10.524910926818848,-0.08858546614646912,-10.68115234375,-39.2303466796875,164.581298828125
15.0899999,-2.918531894683838,-10.512939453125,-0.38067805767059326,-31.524658203125,-37.17041015625,158.2489013671875
15.1099999,-3.555389642715454,-10.405200958251953,-0.6105214357376099,-70.5413818359375,-45.989990234375,168.2891845703125
15.129999900000001,-4.084507942199707,-10.180145263671875,-0.8619126081466675,-66.5740966796875,-46.9207763671875,166.6412353515625
15.149999900000001,-4.627991676330566,-9.923966407775879,-1.0582371950149536,-49.49951171875,-40.5731201171875,156.3568115234375
15.1699999,-5.130774021148682,-9.672574996948242,-1.3096283674240112,-60.028076171875,-35.6597900390625,149.3682861328125
15.1899999,-5.590460777282715,-9.375694274902344,-1.6376339197158813,-89.630126953125,-32.6080322265625,142.913818359375
15.209999900000001,-6.107608318328857,-9.083600997924805,-1.8842366933822632,-122.039794921875,-31.06689453125,123.4283447265625
15.229999900000001,-6.610390663146973,-8.686163902282715,-2.094926595687866,-113.4185791015625,-31.8450927734375,108.8104248046875
15.2499999,-7.206547260284424,-8.334216117858887,-2.1068975925445557,-98.236083984375,-37.017822265625,118.9727783203125
15.2699999,-7.769184589385986,-7.881711959838867,-2.22660756111145,-87.6007080078125,-42.96875,129.9285888671875
15.289999900000002,-8.255207061767578,-7.422025203704834,-2.4133553504943848,-99.8992919921875,-38.6505126953125,121.4752197265625
15.309999900000001,-8.59997272491455,-6.988674640655518,-2.650381326675415,-133.544921875,-25.054931640625,112.6556396484375
15.3299999,-8.753201484680176,-6.5696892738342285,-2.7916390895843506,-137.6800537109375,-12.0849609375,110.260009765625
15.3499999,-8.9064302444458,-6.165069580078125,-2.7748796939849854,-124.176025390625,-14.6026611328125,109.405517578125
15.3699999,-9.129091262817383,-5.762843608856201,-2.7724854946136475,-120.4681396484375,-18.7530517578125,103.729248046875
15.389999900000001,-9.224859237670898,-5.22175407409668,-2.983175277709961,-152.03857421875,5.79833984375,94.7113037109375
15.4099999,-9.32302188873291,-4.774038314819336,-2.894589900970459,-211.3800048828125,23.5443115234375,104.156494140625
15.4299999,-9.241618156433105,-4.24970817565918,-3.114856481552124,-114.471435546875,8.575439453125,123.3367919921875
15.4499999,-8.887276649475098,-3.7924153804779053,-2.8419175148010254,-106.4910888671875,6.1187744140625,101.2420654296875
15.469999900000001,-8.609549522399902,-3.1435868740081787,-2.7246015071868896,-135.040283203125,23.7579345703125,73.5015869140625
15.4899999,-8.339004516601562,-2.5450363159179688,-2.58813214302063,-175.750732421875,28.656005859375,54.443359375
15.5099999,-8.322244644165039,-1.7070658206939697,-2.5498247146606445,-183.89892578125,-8.453369140625,41.68701171875
15.5299999,-8.492233276367188,-1.161187767982483,-2.315192937850952,-224.090576171875,-55.694580078125,63.9495849609375
15.549999900000001,-9.32302188873291,-0.8188169598579407,-2.8586769104003906,-402.3590087890625,-108.367919921875,54.6417236328125
15.569999900000001,-9.667786598205566,-1.3503297567367554,-2.33913516998291,-339.385986328125,-73.6236572265625,4.058837890625
15.5899999,-10.627861022949219,-0.6440402865409851,-3.0310592651367188,-500,-102.752685546875,-74.9053955078125
15.6099999,-10.869675636291504,-0.5339069962501526,-3.531447410583496,-218.4600830078125,-79.4219970703125,-60.333251953125
15.629999900000001,-11.343728065490723,1.0678139925003052,-4.036623954772949,-143.8446044921875,18.98193359375,-35.369873046875
15.649999900000001,-11.298237800598145,2.27209734916687,-5.011064052581787,-131.2103271484375,7.5531005859375,-30.57861328125
15.6699999,-11.08754825592041,3.114856481552124,-5.236119270324707,-100.0213623046875,-5.0048828125,-29.510498046875
15.6899999,-10.668562889099121,3.339911460876465,-4.910507678985596,-104.00390625,6.1187744140625,-35.003662109375
15.709999900000001,-10.17296314239502,3.0406360626220703,-4.043806552886963,-119.781494140625,-9.33837890625,-26.1993408203125
15.729999900000001,-9.80904483795166,2.5785553455352783,-2.9472622871398926,-133.209228515625,-56.976318359375,-23.9715576171875
15.7499999,-9.876082420349121,2.209848165512085,-1.965639591217041,-155.670166015625,-97.2442626953125,-33.966064453125
15.7699999,-10.000580787658691,1.7501614093780518,-1.3670891523361206,-149.8260498046875,-86.334228515625,-31.9671630859375
15.789999900000002,-10.137049674987793,1.403002142906189,-0.9050082564353943,-174.25537109375,-48.2940673828125,-29.84619140625
15.809999900000001,-10.160991668701172,0.9002198576927185,-0.6368576288223267,-155.8990478515625,-65.7196044921875,-39.703369140625
15.8299999,-10.17296314239502,0.5171475410461426,-0.11971008777618408,-171.38671875,-94.7418212890625,-66.375732421875
15.8499999,-10.129867553710938,0.272938996553421,0.28969839215278625,-191.2689208984375,-113.9068603515625,-82.8857421875
15.869999900000002,-10.536881446838379,0.363918662071228,0.6368576288223267,-216.4306640625,-110.6109619140625,-76.751708984375
15.889999900000001,-10.687716484069824,0.5841852426528931,0.7134721279144287,-168.3349609375,-88.6993408203125,-64.2242431640625
15.9099999,-10.888829231262207,0.7829039692878723,0.8140285611152649,-184.26513671875,-67.3065185546875,-54.26025390625
15.9299999,-11.061211585998535,0.9385270476341248,0.9313444495201111,-208.404541015625,-81.5887451171875,-57.9986572265625
15.9499999,-10.946290016174316,0.3447650372982025,0.727837324142456,-216.583251953125,-112.9150390625,-48.40087890625
15.969999900000001,-11.379640579223633,-3.7229835987091064,-0.9624691009521484,-142.88330078125,-42.7093505859375,-133.4228515625
15.9899999,-12.504915237426758,-5.396530628204346,-1.7741034030914307,-144.0277099609375,177.79541015625,-500
16.0099999,-13.541604995727539,-7.759607791900635,-3.648763418197632,-192.0318603515625,175.994873046875,-498.7640380859375
16.0299999,-14.001291275024414,-6.433219909667969,-3.9456443786621094,-90.3472900390625,92.742919921875,-224.2889404296875
16.0499999,-13.721169471740723,-2.43011474609375,-3.3854012489318848,-56.82373046875,161.56005859375,-158.7982177734375
16.0699999,-11.959037780761719,0.8906430602073669,-2.142810583114624,-50.567626953125,172.6837158203125,-88.592529296875
16.089999900000002,-10.378864288330078,-0.30885201692581177,-0.004788403399288654,5.096435546875,137.3291015625,-18.6614990234375
16.109999900000002,-9.272743225097656,-3.5697548389434814,1.4628572463989258,-0.8544921875,51.8798828125,-174.3927001953125
16.1299999,-8.973467826843262,-7.623138427734375,2.695871114730835,-85.296630859375,27.8778076171875,-419.4183349609375
16.1499999,-8.892065048217773,-9.80904483795166,2.7222073078155518,-46.81396484375,63.995361328125,-336.0137939453125
16.1699999,-8.655038833618164,-7.9846625328063965,1.7860745191574097,-39.7186279296875,24.2462158203125,-182.5714111328125
16.1899999,-7.972691535949707,-5.7341132164001465,0.17717093229293823,-85.723876953125,-1.220703125,-72.3724365234375
16.2099999,-6.8593878746032715,-2.920926094055176,-0.751779317855835,-68.0389404296875,69.976806640625,-102.84423828125
16.2299999,-6.157886981964111,-4.0749311447143555,-2.631227731704712,-46.9970703125,7.8582763671875,-38.787841796875
16.249999900000002,-5.600037574768066,-6.141127586364746,-4.230554580688477,-75.653076171875,-39.0625,-26.885986328125
16.269999900000002,-5.710171222686768,-8.820239067077637,-5.473145008087158,-103.8055419921875,100.64697265625,-181.396484375
16.2899999,-5.889736175537109,-11.815385818481445,-7.328651428222656,-102.3406982421875,73.0133056640625,-158.7982177734375
16.3099999,-6.045359134674072,-12.442666053771973,-8.20492935180664,-116.729736328125,109.9090576171875,-189.483642578125
16.3299999,-5.858611583709717,-11.638214111328125,-8.4108304977417,-99.884033203125,204.65087890625,-205.902099609375
16.3499999,-5.257667064666748,-9.713275909423828,-7.924807548522949,-103.1494140625,201.446533203125,-160.2783203125
16.3699999,-4.268861770629883,-7.275979042053223,-6.524199485778809,-116.0430908203125,192.0013427734375,-128.387451171875
16.3899999,-2.983175277709961,-5.130774021148682,-4.503493309020996,-113.372802734375,174.7894287109375,-100.555419921875
16.4099999,-1.7118542194366455,-4.218583583831787,-2.8610711097717285,-112.3199462890625,99.30419921875,-34.5001220703125
16.429999900000002,-0.6512228846549988,-4.776432514190674,-2.032677173614502,-113.7542724609375,56.6558837890625,-9.8114013671875
16.4499999,0.2298433631658554,-6.141127586364746,-3.1316158771514893,-138.092041015625,89.4775390625,-89.41650390625
16.4699999,0.7374141216278076,-6.995857238769531,-4.733336925506592,-182.2052001953125,171.8597412109375,-207.763671875
16.4899999,1.259350061416626,-7.0126166343688965,-7.46033239364624,-207.5958251953125,200.9429931640625,-114.9749755859375
16.5099999,1.4484920501708984,-5.616796970367432,-9.263166427612305,-211.36474609375,172.6837158203125,-37.3382568359375
16.5299999,1.678335428237915,-4.091690540313721,-9.579200744628906,-139.16015625,240.7379150390625,-3.753662109375
16.5499999,1.9081788063049316,-3.6846764087677,-9.210494041442871,-122.100830078125,229.8736572265625,-4.0283203125
16.5699999,2.1811177730560303,-3.7397429943084717,-7.577648162841797,-154.571533203125,169.9981689453125,-39.306640625
16.589999900000002,2.918531894683838,-4.4723687171936035,-5.805939197540283,-140.31982421875,168.731689453125,-46.6766357421875
16.609999900000002,4.003105163574219,-5.099649429321289,-4.857835292816162,-154.510498046875,101.50146484375,-44.158935546875
16.6299999,4.63517427444458,-4.541800498962402,-5.834669589996338,-103.179931640625,4.7607421875,-86.8988037109375
16.6499999,5.451597213745117,-3.4739866256713867,-7.647080421447754,-150.5889892578125,125.3662109375,-42.0379638671875
16.6699999,5.489904403686523,-1.9847931861877441,-9.986215591430664,-120.4071044921875,243.0267333984375,22.76611328125
16.6899999,5.702988624572754,-0.5434837937355042,-11.046846389770508,-147.0184326171875,238.70849609375,41.32080078125
16.7099999,5.784391403198242,0.19153612852096558,-10.436325073242188,-143.2952880859375,199.5849609375,76.9195556640625
16.7299999,5.978321552276611,-0.08858546614646912,-9.191340446472168,-56.640625,142.08984375,103.33251953125
16.749999900000002,6.303933143615723,-0.3471592366695404,-7.644686222076416,-155.4107666015625,208.831787109375,60.6231689453125
16.769999900000002,6.311115741729736,-0.9217676520347595,-6.732495307922363,-213.19580078125,224.029541015625,59.08203125
16.7899999,6.617573261260986,-1.1420341730117798,-5.449203014373779,-223.3734130859375,219.8638916015625,90.3778076171875
16.8099999,7.15387487411499,-1.4460978507995605,-4.003105163574219,-32.2113037109375,120.17822265625,99.3804931640625
16.8299999,7.51779317855835,-1.0534487962722778,-3.2297780513763428,220.7489013671875,39.85595703125,60.4095458984375
16.8499999,8.008605003356934,-0.8667010068893433,-2.140416383743286,218.5516357421875,114.3798828125,67.7337646484375
16.8699999,8.027758598327637,-0.31842881441116333,-2.0901381969451904,141.632080078125,140.960693359375,91.827392578125
16.8899999,7.812280178070068,-0.06464344263076782,-1.8555063009262085,58.3648681640625,150.7568359375,115.5548095703125
16.9099999,7.457938194274902,-0.2298433631658554,-2.1954829692840576,-23.284912109375,156.463623046875,134.3994140625
16.929999900000002,6.840234279632568,-0.6727706789970398,-3.3638534545898438,-328.55224609375,251.0833740234375,162.59765625
16.9499999,6.368576526641846,-1.778891921043396,-2.190694570541382,-497.833251953125,346.923828125,222.991943359375
16.9699999,6.13633918762207,-2.9328970909118652,-2.1092917919158936,-112.8997802734375,151.85546875,206.695556640625
16.9899999,6.279991149902344,-4.2975921630859375,0.0933738648891449,37.750244140625,49.713134765625,162.04833984375
17.0099999,6.619967937469482,-5.298368453979492,1.9488801956176758,10.6201171875,70.86181640625,135.986328125
17.0299999,6.94079065322876,-5.566518783569336,2.0446481704711914,90.8355712890625,55.3131103515625,148.681640625
17.0499999,6.92881965637207,-5.6455278396606445,2.4420857429504395,112.9913330078125,74.1729736328125,185.7452392578125
17.0699999,6.562506675720215,-5.408501625061035,1.659181833267212,56.060791015625,61.21826171875,177.276611328125
17.089999900000002,6.0836663246154785,-5.339069843292236,1.5921441316604614,-2.5634765625,98.9227294921875,153.86962890625
17.109999900000002,5.489904403686523,-5.556941986083984,1.3766659498214722,-13.7786865234375,107.2235107421875,163.0859375
17.1299999,4.850652694702148,-5.643133640289307,1.5298948287963867,-9.246826171875,96.2066650390625,172.2564697265625
17.1499999,4.24970817565918,-5.853823184967041,1.886630892753601,-5.6304931640625,92.3309326171875,177.7801513671875
17.1699999,3.581725835800171,-6.222530364990234,2.3558945655822754,-18.951416015625,84.5489501953125,181.549072265625
17.1899999,2.9544448852539062,-6.7492547035217285,2.7916390895843506,-43.4722900390625,85.0982666015625,179.0313720703125
17.2099999,2.250549554824829,-7.3238630294799805,3.004723072052002,-62.2406005859375,87.6007080078125,169.677734375
17.2299999,1.577778935432434,-7.800309181213379,2.9089550971984863,-77.1636962890625,79.345703125,168.853759765625
17.249999900000002,1.0103530883789062,-8.02536392211914,2.5474305152893066,-66.3299560546875,72.7081298828125,175.10986328125
17.269999900000002,0.42616790533065796,-8.20492935180664,2.1811177730560303,-43.15185546875,65.3076171875,185.5010986328125
17.2899999,-0.21787235140800476,-8.47786808013916,1.9943699836730957,1.251220703125,65.6890869140625,188.140869140625
17.3099999,-0.9050082564353943,-8.762778282165527,2.0901381969451904,28.8848876953125,48.736572265625,171.0052490234375
17.3299999,-1.678335428237915,-9.08838939666748,2.1930887699127197,39.215087890625,14.34326171875,162.506103515625
17.3499999,-2.341529369354248,-9.169792175292969,2.252943754196167,38.02490234375,12.939453125,176.910400390625
17.3699999,-2.889801502227783,-8.966285705566406,2.161964178085327,41.9464111328125,30.1361083984375,194.366455078125
17.3899999,-3.3949780464172363,-8.597578048706055,2.0015525817871094,59.50927734375,29.327392578125,204.7576904296875
17.409999900000003,-3.9671921730041504,-8.14028549194336,1.9081788063049316,75.653076171875,30.1666259765625,206.1614990234375
17.429999900000002,-4.67827033996582,-7.783549785614014,1.8794482946395874,75.469970703125,62.6220703125,204.498291015625
17.4499999,-5.398924827575684,-7.412448406219482,1.9728221893310547,54.1534423828125,92.0867919921875,207.794189453125
17.4699999,-6.1315507888793945,-7.163451671600342,2.2218191623687744,28.472900390625,102.47802734375,229.8126220703125
17.4899999,-6.7492547035217285,-6.912060260772705,2.4660277366638184,19.34814453125,81.939697265625,249.542236328125
17.5099999,-7.352593421936035,-6.766014099121094,2.7892448902130127,-18.157958984375,90.8966064453125,242.8436279296875
17.5299999,-7.951143741607666,-6.6846113204956055,2.999934673309326,-56.94580078125,96.221923828125,214.7674560546875
17.5499999,-8.552088737487793,-6.270414352416992,2.964021682739258,-109.466552734375,100.7537841796875,175.1861572265625
17.5699999,-9.48343276977539,-6.335057735443115,3.550601005554199,-225.9368896484375,95.245361328125,205.6427001953125
17.589999900000002,-10.369287490844727,-5.295974254608154,2.2673089504241943,-403.289794921875,-10.9405517578125,203.1707763671875
17.609999900000002,-10.967838287353516,-5.233725070953369,2.0374655723571777,-126.7852783203125,13.0462646484375,208.7249755859375
17.6299999,-11.554417610168457,-4.359841346740723,0.6392518281936646,-99.6246337890625,61.614990234375,189.7735595703125
17.6499999,-11.635820388793945,-4.1395745277404785,-0.19871874153614044,-95.03173828125,19.7906494140625,158.6761474609375
17.6699999,-11.561599731445312,-3.7253777980804443,-0.3734954595565796,-77.056884765625,5.8746337890625,142.4102783203125
17.6899999,-11.535264015197754,-3.450044631958008,-0.21308395266532898,-64.7430419921875,-8.2550048828125,119.1864013671875
17.7099999,-11.372458457946777,-3.098097085952759,-0.023942016065120697,-31.3262939453125,-39.73388671875,100.830078125
17.7299999,-11.195286750793457,-2.853888511657715,0.040701430290937424,-9.063720703125,-51.94091796875,84.28955078125
17.749999900000002,-11.042057991027832,-2.6599581241607666,-0.12449848651885986,-14.83154296875,-36.834716796875,65.9027099609375
17.769999900000002,-10.972626686096191,-2.499546527862549,-0.5003881454467773,-25.3448486328125,-25.146484375,44.4488525390625
17.7899999,-10.953473091125488,-2.3247697353363037,-0.8164227604866028,-26.031494140625,-16.6473388671875,33.8287353515625
17.8099999,-10.912771224975586,-2.248155355453491,-0.912190854549408,-21.148681640625,-12.725830078125,33.2489013671875
17.8299999,-10.8505220413208,-2.2146365642547607,-0.8188169598579407,-12.5885009765625,-19.134521484375,21.575927734375
17.8499999,-10.771512985229492,-2.432508945465088,-0.7924807667732239,-15.9454345703125,-30.0445556640625,6.0272216796875
17.8699999,-10.718840599060059,-2.8850131034851074,-0.8307880163192749,-39.2913818359375,-25.7415771484375,-22.369384765625
17.8899999,-10.76193618774414,-3.5003228187561035,-1.0893617868423462,-52.764892578125,-8.36181640625,-55.9234619140625
17.909999900000003,-11.006145477294922,-4.220977783203125,-1.4891934394836426,-57.8460693359375,15.533447265625,-82.8399658203125
17.929999900000002,-11.32457447052002,-5.013458251953125,-2.0638017654418945,-56.793212890625,46.6156005859375,-98.6480712890625
17.9499999,-11.753135681152344,-5.916072368621826,-2.4803929328918457,-82.6263427734375,84.8388671875,-128.4332275390625
17.9699999,-12.140996932983398,-6.689399719238281,-2.779668092727661,-73.1201171875,99.7314453125,-192.81005859375
17.9899999,-12.447454452514648,-7.177816867828369,-2.9041666984558105,-25.421142578125,99.42626953125,-244.2169189453125
18.0099999,-12.698845863342285,-7.252037048339844,-2.896984100341797,-11.7645263671875,108.6883544921875,-243.896484375
18.0299999,-12.789825439453125,-6.938396453857422,-2.9161376953125,-19.9127197265625,109.2987060546875,-204.864501953125
18.0499999,-12.634202003479004,-6.44279670715332,-3.1028854846954346,-18.0206298828125,79.16259765625,-168.4722900390625
18.0699999,-12.1194486618042,-6.090848922729492,-3.35667085647583,-25.2838134765625,61.1419677734375,-154.4647216796875
18.089999900000002,-11.264719009399414,-6.478709697723389,-3.907337188720703,-10.1318359375,93.7957763671875,-180.7861328125
18.109999900000002,-10.611102104187012,-5.722142219543457,-4.106055736541748,44.0521240234375,172.8668212890625,-261.2457275390625
18.1299999,-9.648633003234863,-5.815515995025635,-4.048594951629639,-6.5765380859375,129.425048828125,-160.46142578125
18.1499999,-8.995016098022461,-5.094861030578613,-3.73016619682312,1.6326904296875,63.6749267578125,-106.3385009765625
18.1699999,-8.17141056060791,-4.702212333679199,-3.184288263320923,36.834716796875,51.20849609375,-136.2457275390625
18.1899999,-7.462726593017578,-4.934449672698975,-3.1531636714935303,37.322998046875,59.9517822265625,-139.9688720703125
18.2099999,-6.988674640655518,-5.451597213745117,-3.4979286193847656,35.2630615234375,80.6121826171875,-123.748779296875
18.2299999,-6.710947513580322,-6.196194171905518,-4.077325344085693,18.5699462890625,83.4197998046875,-103.21044921875
18.249999900000002,-6.497863292694092,-7.173028469085693,-4.671087741851807,11.1846923828125,76.446533203125,-97.930908203125
18.269999900000002,-6.2201361656188965,-8.145073890686035,-5.032611846923828,23.345947265625,92.83447265625,-120.8343505859375
18.2899999,-5.839457988739014,-8.968679428100586,-5.145139217376709,21.1029052734375,109.0850830078125,-137.939453125
18.3099999,-5.30076265335083,-9.550470352172852,-4.991910457611084,14.251708984375,127.8076171875,-134.2010498046875
18.3299999,-4.668693542480469,-9.813833236694336,-4.558559894561768,30.8990478515625,154.0985107421875,-144.5770263671875
18.3499999,-4.015076160430908,-9.80904483795166,-4.151545524597168,45.8984375,173.431396484375,-170.95947265625
18.3699999,-3.3446998596191406,-9.720458984375,-3.73016619682312,27.3590087890625,164.0167236328125,-195.2362060546875
18.3899999,-2.7772738933563232,-9.6989107131958,-3.2776620388031006,-0.30517578125,160.5682373046875,-219.024658203125
18.409999900000003,-2.0446481704711914,-9.536105155944824,-3.136404275894165,-116.3330078125,216.97998046875,-220.27587890625
18.429999900000002,-1.194706678390503,-9.390059471130371,-2.868253707885742,-95.123291015625,224.945068359375,-218.0938720703125
18.4499999,-0.016759412363171577,-9.002198219299316,-2.9089550971984863,-32.073974609375,178.802490234375,-213.0126953125
18.4699999,1.0534487962722778,-8.47547435760498,-2.9257144927978516,-11.474609375,137.9547119140625,-202.728271484375
18.4899999,1.8914192914962769,-7.807491779327393,-2.8419175148010254,3.204345703125,119.964599609375,-193.9239501953125
18.5099999,2.609679937362671,-7.208941459655762,-2.6001031398773193,18.829345703125,115.4632568359375,-202.5146484375
18.5299999,3.2082302570343018,-6.653486728668213,-2.2864625453948975,-10.5743408203125,126.03759765625,-191.0247802734375
18.5499999,3.8714241981506348,-6.224924564361572,-1.8818424940109253,-18.1884765625,121.002197265625,-184.295654296875
18.5699999,4.541800498962402,-5.868188381195068,-1.577778935432434,9.2315673828125,109.8480224609375,-192.718505859375
18.589999900000002,5.0254292488098145,-5.549759387969971,-1.3048399686813354,23.7579345703125,114.1204833984375,-204.803466796875
18.609999900000002,5.389348030090332,-5.272032260894775,-1.072602391242981,-3.2958984375,114.6697998046875,-217.95654296875
18.6299999,5.770026206970215,-4.93923807144165,-0.9600749015808105,-22.247314453125,102.9052734375,-224.1973876953125
18.6499999,6.1985883712768555,-4.529829502105713,-0.871489405632019,-5.2947998046875,87.890625,-237.0147705078125
18.6699999,6.5265936851501465,-4.0294413566589355,-0.8571242094039917,7.7667236328125,96.4813232421875,-257.4615478515625
18.6899999,6.610390663146973,-3.224989652633667,-0.8427590131759644,56.7626953125,128.082275390625,-279.3426513671875
18.7099999,6.63433313369751,-2.250549554824829,-0.20111294090747833,137.2833251953125,124.176025390625,-264.190673828125
18.7299999,6.72531270980835,-1.3623007535934448,0.2561795711517334,-26.0162353515625,59.7076416015625,-177.734375
18.749999900000002,7.206547260284424,-0.3711012601852417,1.0247182846069336,9.5977783203125,67.2454833984375,-196.502685546875
18.769999900000002,7.63989782333374,0.3280056416988373,1.5682021379470825,83.648681640625,89.111328125,-218.6737060546875
18.7899999,7.975085735321045,0.9840168952941895,1.644816517829895,30.303955078125,74.0509033203125,-207.0159912109375
18.8099999,7.891288757324219,1.6280571222305298,1.7357962131500244,-35.003662109375,85.418701171875,-184.112548828125
18.8299999,7.55131196975708,2.22660756111145,1.7046716213226318,23.6053466796875,53.3905029296875,-161.1480712890625
18.8499999,7.2568254470825195,2.7748796939849854,1.5155296325683594,66.650390625,45.5780029296875,-156.036376953125
18.8699999,6.811503887176514,3.2537200450897217,1.3192051649093628,22.1405029296875,45.9136962890625,-160.369873046875
18.8899999,6.598419666290283,3.60566782951355,1.0342950820922852,-19.9432373046875,49.4384765625,-162.4298095703125
18.909999900000003,6.44279670715332,3.9647979736328125,0.9385270476341248,-50.4913330078125,53.0853271484375,-148.4375
18.929999900000002,6.447585105895996,4.314351558685303,1.0007762908935547,-31.7230224609375,42.327880859375,-123.22998046875
18.9499999,6.519411087036133,4.587290287017822,1.1994950771331787,-42.022705078125,39.3829345703125,-151.275634765625
18.9699999,6.5696892738342285,4.903325080871582,1.5969325304031372,-77.4688720703125,47.30224609375,-164.4744873046875
18.9899999,6.485892295837402,5.145139217376709,2.126051187515259,-67.68798828125,48.64501953125,-139.4805908203125
19.0099999,6.279991149902344,5.413290023803711,2.734178304672241,-48.7060546875,70.9686279296875,-104.55322265625
19.0299999,5.949591159820557,5.65031623840332,3.1651346683502197,-54.4281005859375,95.550537109375,-76.751708984375
19.0499999,5.336675643920898,5.872976779937744,3.339911460876465,-68.8323974609375,84.075927734375,-108.978271484375
19.0699999,4.426878929138184,6.119579315185547,3.3446998596191406,-70.9991455078125,69.4122314453125,-169.6624755859375
19.089999900000002,3.4739866256713867,6.248866558074951,3.581725835800171,-58.685302734375,85.357666015625,-197.0062255859375
19.109999900000002,2.4803929328918457,6.777985095977783,4.062960147857666,-24.10888671875,75.74462890625,-191.8792724609375
19.1299999,1.680729627609253,7.038952827453613,4.659116744995117,5.828857421875,96.7864990234375,-202.4383544921875
19.1499999,0.8427590131759644,7.307103633880615,5.04218864440918,-52.8411865234375,130.2032470703125,-220.977783203125
19.1699999,0.28730419278144836,7.0557122230529785,5.748478412628174,-14.495849609375,143.24951171875,-258.6669921875
19.1899999,-0.43095630407333374,6.481103897094727,6.303933143615723,91.0797119140625,72.4945068359375,-302.8717041015625
19.2099999,-0.993593692779541,6.282385349273682,6.593631267547607,75.5462646484375,-14.22119140625,-315.7958984375
19.2299999,-1.3670891523361206,6.028599739074707,7.7213006019592285,17.578125,13.397216796875,-284.698486328125
19.249999900000002,-2.33913516998291,7.501033782958984,6.7277069091796875,-37.078857421875,-22.0184326171875,-259.2620849609375
19.269999900000002,-3.88818359375,8.523358345031738,6.40927791595459,-66.741943359375,44.0521240234375,-181.7169189453125
19.2899999,-5.415684223175049,9.883264541625977,5.116408824920654,-13.2904052734375,115.78369140625,-235.015869140625
19.3099999,-6.9240312576293945,9.962273597717285,4.019864559173584,0.3204345703125,88.4246826171875,-331.5277099609375
19.3299999,-7.582436561584473,9.188945770263672,3.466804027557373,-73.79150390625,34.027099609375,-321.47216796875
19.3499999,-7.3238630294799805,7.462726593017578,3.5242648124694824,-0.54931640625,42.1142578125,-283.50830078125
19.3699999,-6.971915245056152,6.256049156188965,3.84269380569458,-2.7923583984375,40.863037109375,-245.0714111328125
19.3899999,-6.756437301635742,5.056553840637207,4.6255974769592285,29.5562744140625,42.7093505859375,-207.5653076171875
19.409999900000003,-7.0772600173950195,4.881777286529541,4.850652694702148,-44.7540283203125,19.9737548828125,-193.8934326171875
19.429999900000002,-7.661445617675781,4.654327869415283,4.934449672698975,-27.03857421875,19.8822021484375,-205.6732177734375
19.4499999,-8.327033042907715,4.474762916564941,4.898536682128906,61.3555908203125,13.8702392578125,-230.682373046875
19.4699999,-8.9064302444458,4.017470359802246,4.9368438720703125,59.1583251953125,4.1351318359375,-221.1151123046875
19.4899999,-9.390059471130371,3.624821424484253,5.070919036865234,-27.099609375,12.5274658203125,-197.0977783203125
19.5099999,-9.710882186889648,3.023876667022705,5.552153587341309,21.91162109375,6.622314453125,-180.9844970703125
19.5299999,-9.962273597717285,2.5450363159179688,5.6670756340026855,13.2904052734375,-10.589599609375,-178.52783203125
19.5499999,-10.160991668701172,2.207453966140747,5.736507415771484,12.969970703125,-9.46044921875,-176.6204833984375
19.5699999,-10.072406768798828,1.501164436340332,5.276820659637451,31.4483642578125,-11.444091796875,-157.3333740234375
19.589999900000002,-9.9000244140625,0.6703764796257019,4.424484729766846,45.3948974609375,-10.0555419921875,-145.6298828125
19.609999900000002,-9.703699111938477,-0.22744916379451752,3.7038300037384033,31.8145751953125,7.2784423828125,-164.1998291015625
19.6299999,-9.660603523254395,-1.158793568611145,3.3279404640197754,38.3148193359375,24.322509765625,-173.4619140625
19.6499999,-9.63187313079834,-2.0853497982025146,3.6176388263702393,33.5235595703125,16.4337158203125,-167.5872802734375
19.6699999,-9.758766174316406,-2.63362193107605,4.364629745483398,-50.2777099609375,-35.919189453125,-181.0302734375
19.6899999,-9.84495735168457,-2.9759926795959473,4.620809078216553,-122.00927734375,-76.1871337890625,-202.1942138671875
19.7099999,-9.971850395202637,-3.117250680923462,4.884171485900879,17.1356201171875,0.79345703125,-183.380126953125
19.7299999,-10.24239444732666,-2.8155810832977295,4.752490520477295,40.496826171875,35.552978515625,-158.2183837890625
19.749999900000002,-10.54645824432373,-2.5091233253479004,4.817133903503418,15.3961181640625,21.05712890625,-147.4151611328125
19.769999900000002,-9.277531623840332,-2.2912509441375732,3.6104562282562256,74.4781494140625,-1.5716552734375,-128.9520263671875
19.7899999,-8.544905662536621,-1.86508309841156,3.090914487838745,346.466064453125,58.7921142578125,-68.389892578125
19.8099999,-7.486668586730957,-1.5705963373184204,2.3127987384796143,381.8206787109375,105.0872802734375,-43.9605712890625
19.8299999,-7.709329605102539,-1.2832920551300049,3.380612850189209,171.20361328125,22.8424072265625,-87.95166015625
19.8499999,-8.738836288452148,-1.070208191871643,5.339069843292236,120.9869384765625,-5.2947998046875,-103.1646728515625
19.8699999,-9.950302124023438,-1.0031704902648926,7.546523571014404,182.7392578125,-18.402099609375,-60.1654052734375
19.8899999,-10.15141487121582,-1.1228805780410767,8.83699893951416,131.256103515625,-50.3997802734375,-18.6767578125
19.909999900000003,-9.579200744628906,-1.1899182796478271,9.030928611755371,82.45849609375,-69.51904296875,-4.4403076171875
19.929999900000002,-8.628703117370605,-1.4413094520568848,8.731653213500977,122.9248046875,-68.359375,3.2501220703125
19.9499999,-7.503427982330322,-2.4229321479797363,8.293514251708984,110.9161376953125,-94.390869140625,-5.3863525390625
19.9699999,-6.3973069190979,-3.0310592651367188,7.934384346008301,72.0977783203125,-144.53125,-58.807373046875
19.9899999,-5.853823184967041,-3.7158010005950928,7.716512203216553,90.8355712890625,-94.573974609375,-61.4776611328125
20.0099999,-5.339069843292236,-3.5913026332855225,7.433996200561523,95.184326171875,-119.6746826171875,-81.817626953125
20.0299999,-5.279214859008789,-2.9664158821105957,7.2568254470825195,9.002685546875,-165.6494140625,-68.90869140625
20.0499999,-5.571307182312012,-2.4013843536376953,7.534552574157715,-22.5982666015625,-142.8375244140625,-53.9398193359375
20.0699999,-5.863399982452393,-2.094926595687866,8.068459510803223,14.9688720703125,-100.28076171875,-92.1630859375
20.089999900000002,-6.0597243309021,-2.1499931812286377,9.198522567749023,84.747314453125,-39.642333984375,-122.528076171875
20.109999900000002,-5.9088897705078125,-2.2912509441375732,10.395624160766602,123.443603515625,-49.3011474609375,-117.5384521484375
20.1299999,-5.564124584197998,-1.800439715385437,11.130643844604492,193.9544677734375,-110.3668212890625,-83.06884765625
20.1499999,-5.173870086669922,-1.6519991159439087,11.202469825744629,312.103271484375,-130.6610107421875,56.82373046875
