# Time (seconds),Accel_X,Accel_Y,Accel_Z,Gyro_X,Gyro_Y,Gyro_Z
0.0099999,-0.6440402865409851,0.35434186458587646,-9.739612579345703,-0.030517578125,-1.434326171875,-0.1373291015625
0.029999900000000003,-0.6440402865409851,0.35434186458587646,-9.737217903137207,-0.0457763671875,-1.4190673828125,-0.091552734375
0.0499999,-0.6440402865409851,0.35434186458587646,-9.739612579345703,-0.030517578125,-1.28173828125,-0.1068115234375
0.0699999,-0.6440402865409851,0.35434186458587646,-9.742006301879883,-0.0457763671875,-1.2664794921875,-0.091552734375
0.08999990000000001,-0.6440402865409851,0.35434186458587646,-9.744400978088379,-0.0457763671875,-1.3580322265625,-0.152587890625
0.10999990000000001,-0.6440402865409851,0.35434186458587646,-9.744400978088379,-0.06103515625,-1.3275146484375,-0.213623046875
0.1299999,-0.646434485912323,0.35434186458587646,-9.744400978088379,-0.06103515625,-1.3275146484375,-0.18310546875
0.14999990000000002,-0.646434485912323,0.3519476354122162,-9.739612579345703,-0.18310546875,-1.28173828125,-0.1220703125
0.1699999,-0.6488286852836609,0.3519476354122162,-9.739612579345703,-0.1068115234375,-1.2969970703125,-0.1373291015625
0.1899999,-0.646434485912323,0.3519476354122162,-9.737217903137207,-0.030517578125,-1.312255859375,-0.1373291015625
0.20999990000000002,-0.6440402865409851,0.3519476354122162,-9.739612579345703,-0.0152587890625,-1.3275146484375,-0.1220703125
0.2299999,-0.6440402865409851,0.3519476354122162,-9.739612579345703,-0.0457763671875,-1.2969970703125,-0.1220703125
0.2499999,-0.6416460275650024,0.3519476354122162,-9.739612579345703,-0.030517578125,-1.2664794921875,-0.1373291015625
0.2699999,-0.6416460275650024,0.35434186458587646,-9.739612579345703,-0.0457763671875,-1.373291015625,-0.1068115234375
0.28999990000000003,-0.6416460275650024,0.35434186458587646,-9.739612579345703,-0.030517578125,-1.4190673828125,-0.152587890625
0.3099999,-0.6416460275650024,0.35673606395721436,-9.739612579345703,-0.030517578125,-1.373291015625,-0.213623046875
0.3299999,-0.6416460275650024,0.35673606395721436,-9.739612579345703,0,-1.2969970703125,-0.1220703125
0.34999990000000003,-0.6416460275650024,0.35673606395721436,-9.739612579345703,-0.0152587890625,-1.312255859375,-0.091552734375
0.3699999,-0.6416460275650024,0.36152446269989014,-9.739612579345703,0.030517578125,-1.3427734375,-0.1068115234375
0.3899999,-0.6416460275650024,0.36152446269989014,-9.737217903137207,0.0152587890625,-1.3580322265625,-0.152587890625
0.40999990000000003,-0.6440402865409851,0.363918662071228,-9.739612579345703,-0.0152587890625,-1.373291015625,-0.152587890625
0.4299999,-0.6440402865409851,0.36152446269989014,-9.739612579345703,0.0152587890625,-1.3275146484375,-0.1678466796875
0.4499999,-0.6416460275650024,0.35913026332855225,-9.742006301879883,-0.0152587890625,-1.3275146484375,-0.152587890625
0.4699999,-0.6416460275650024,0.35913026332855225,-9.742006301879883,0,-1.3580322265625,-0.1220703125
0.4899999,-0.6392518281936646,0.35913026332855225,-9.742006301879883,0.0152587890625,-1.373291015625,-0.1373291015625
0.5099999,-0.6392518281936646,0.35673606395721436,-9.742006301879883,-0.06103515625,-1.312255859375,-0.18310546875
0.5299999,-0.6416460275650024,0.35673606395721436,-9.742006301879883,-0.030517578125,-1.3427734375,-0.152587890625
0.5499999,-0.6416460275650024,0.35673606395721436,-9.744400978088379,-0.1068115234375,-1.312255859375,-0.091552734375
0.5699999,-0.6440402865409851,0.35673606395721436,-9.742006301879883,-0.0457763671875,-1.3427734375,-0.1373291015625
0.5899998999999999,-0.6440402865409851,0.35673606395721436,-9.742006301879883,-0.0152587890625,-1.3885498046875,-0.18310546875
0.6099998999999999,-0.6416460275650024,0.35913026332855225,-9.742006301879883,-0.06103515625,-1.3427734375,-0.1373291015625
0.6299999,-0.6416460275650024,0.35673606395721436,-9.739612579345703,-0.030517578125,-1.2969970703125,-0.1373291015625
0.6499999,-0.6392518281936646,0.35673606395721436,-9.737217903137207,-0.0152587890625,-1.3885498046875,-0.152587890625
0.6699999,-0.6416460275650024,0.35673606395721436,-9.734824180603027,-0.06103515625,-1.373291015625,-0.1373291015625
0.6899999,-0.6416460275650024,0.35673606395721436,-9.732429504394531,0.0152587890625,-1.3275146484375,-0.18310546875
0.7099999,-0.6440402865409851,0.35673606395721436,-9.732429504394531,0,-1.3275146484375,-0.1220703125
0.7299998999999999,-0.6440402865409851,0.35673606395721436,-9.732429504394531,-0.030517578125,-1.3427734375,-0.0762939453125
0.7499998999999999,-0.6440402865409851,0.35673606395721436,-9.732429504394531,-0.1220703125,-1.3275146484375,-0.091552734375
0.7699999,-0.6440402865409851,0.35434186458587646,-9.734824180603027,-0.1068115234375,-1.434326171875,-0.091552734375
0.7899999,-0.6440402865409851,0.35434186458587646,-9.734824180603027,-0.0152587890625,-1.3427734375,-0.152587890625
0.8099999,-0.6416460275650024,0.35434186458587646,-9.734824180603027,-0.0457763671875,-1.3427734375,-0.1983642578125
0.8299999,-0.6440402865409851,0.35434186458587646,-9.734824180603027,-0.0457763671875,-1.3427734375,-0.091552734375
0.8499998999999999,-0.6440402865409851,0.35434186458587646,-9.734824180603027,-0.030517578125,-1.40380859375,-0.1220703125
0.8699998999999999,-0.6440402865409851,0.35434186458587646,-9.737217903137207,-0.0457763671875,-1.373291015625,-0.1220703125
0.8899999,-0.646434485912323,0.35434186458587646,-9.739612579345703,-0.030517578125,-1.434326171875,-0.1373291015625
0.9099999,-0.646434485912323,0.35673606395721436,-9.739612579345703,-0.06103515625,-1.40380859375,-0.18310546875
0.9299999,-0.646434485912323,0.35673606395721436,-9.739612579345703,-0.091552734375,-1.312255859375,-0.1983642578125
0.9499999,-0.646434485912323,0.35673606395721436,-9.739612579345703,-0.0152587890625,-1.2969970703125,-0.1220703125
0.9699998999999999,-0.646434485912323,0.35673606395721436,-9.739612579345703,-0.0457763671875,-1.3885498046875,-0.1068115234375
0.9899998999999999,-0.646434485912323,0.35673606395721436,-9.739612579345703,-0.0152587890625,-1.3427734375,-0.1373291015625
1.0099999,-0.646434485912323,0.35673606395721436,-9.739612579345703,0.0152587890625,-1.3275146484375,-0.152587890625
1.0299999,-0.6440402865409851,0.35673606395721436,-9.739612579345703,-0.06103515625,-1.3580322265625,-0.1678466796875
1.0499999,-0.6440402865409851,0.35913026332855225,-9.739612579345703,-0.1068115234375,-1.3275146484375,-0.18310546875
1.0699999,-0.6416460275650024,0.35913026332855225,-9.739612579345703,-0.0457763671875,-1.3885498046875,-0.2288818359375
1.0899999,-0.6416460275650024,0.36152446269989014,-9.739612579345703,-0.06103515625,-1.3580322265625,-0.18310546875
1.1099999,-0.6416460275650024,0.36152446269989014,-9.739612579345703,-0.0762939453125,-1.312255859375,-0.152587890625
1.1299999,-0.6440402865409851,0.36152446269989014,-9.739612579345703,-0.06103515625,-1.3275146484375,-0.0762939453125
1.1499999,-0.6440402865409851,0.36152446269989014,-9.739612579345703,-0.0762939453125,-1.373291015625,-0.1068115234375
1.1699998999999999,-0.646434485912323,0.36152446269989014,-9.737217903137207,-0.0762939453125,-1.3275146484375,-0.091552734375
1.1899998999999999,-0.646434485912323,0.35913026332855225,-9.734824180603027,-0.1068115234375,-1.3885498046875,-0.091552734375
1.2099999,-0.646434485912323,0.36152446269989014,-9.732429504394531,-0.091552734375,-1.3580322265625,-0.1678466796875
1.2299999,-0.6440402865409851,0.36152446269989014,-9.734824180603027,-0.1068115234375,-1.373291015625,-0.1373291015625
1.2499999,-0.6416460275650024,0.36152446269989014,-9.734824180603027,-0.091552734375,-1.3275146484375,-0.1068115234375
1.2699999,-0.6416460275650024,0.36152446269989014,-9.737217903137207,-0.0457763671875,-1.3427734375,-0.18310546875
1.2899999,-0.6416460275650024,0.36152446269989014,-9.737217903137207,-0.1068115234375,-1.3580322265625,-0.18310546875
1.3099999,-0.6416460275650024,0.35913026332855225,-9.737217903137207,-0.0457763671875,-1.3580322265625,-0.152587890625
1.3299999,-0.6416460275650024,0.35913026332855225,-9.737217903137207,0,-1.3885498046875,-0.0762939453125
1.3499999,-0.6416460275650024,0.35673606395721436,-9.734824180603027,0.0152587890625,-1.2664794921875,-0.152587890625
1.3699999,-0.6440402865409851,0.35673606395721436,-9.732429504394531,0,-1.28173828125,-0.1373291015625
1.3899999,-0.6440402865409851,0.35673606395721436,-9.732429504394531,-0.0152587890625,-1.3275146484375,-0.1373291015625
1.4099999,-0.6440402865409851,0.35673606395721436,-9.730035781860352,-0.0457763671875,-1.40380859375,-0.18310546875
1.4299998999999999,-0.6440402865409851,0.35673606395721436,-9.730035781860352,0.0152587890625,-1.373291015625,-0.152587890625
1.4499999,-0.6440402865409851,0.35673606395721436,-9.732429504394531,-0.0152587890625,-1.3427734375,-0.152587890625
1.4699999,-0.646434485912323,0.35673606395721436,-9.734824180603027,-0.0762939453125,-1.2969970703125,-0.18310546875
1.4899999,-0.646434485912323,0.35434186458587646,-9.737217903137207,-0.0762939453125,-1.3427734375,-0.1678466796875
1.5099999,-0.646434485912323,0.3519476354122162,-9.737217903137207,-0.091552734375,-1.40380859375,-0.1220703125
1.5299999,-0.6488286852836609,0.3519476354122162,-9.737217903137207,-0.1068115234375,-1.3275146484375,-0.1373291015625
1.5499999,-0.646434485912323,0.3519476354122162,-9.737217903137207,-0.0152587890625,-1.373291015625,-0.1678466796875
1.5699999,-0.6440402865409851,0.3519476354122162,-9.732429504394531,-0.0152587890625,-1.3427734375,-0.18310546875
1.5899999,-0.6440402865409851,0.3519476354122162,-9.732429504394531,0.0152587890625,-1.2969970703125,-0.0457763671875
1.6099999,-0.6440402865409851,0.35434186458587646,-9.730035781860352,-0.030517578125,-1.3427734375,-0.091552734375
1.6299999,-0.6416460275650024,0.35673606395721436,-9.732429504394531,-0.091552734375,-1.3275146484375,-0.18310546875
1.6499999,-0.6440402865409851,0.35673606395721436,-9.732429504394531,-0.06103515625,-1.3275146484375,-0.2593994140625
1.6699999,-0.6416460275650024,0.35673606395721436,-9.734824180603027,-0.0457763671875,-1.3275146484375,-0.152587890625
1.6899998999999999,-0.6440402865409851,0.35673606395721436,-9.737217903137207,-0.091552734375,-1.3580322265625,-0.1373291015625
1.7099999,-0.6416460275650024,0.35434186458587646,-9.737217903137207,-0.0457763671875,-1.434326171875,-0.1220703125
1.7299999,-0.6416460275650024,0.35434186458587646,-9.737217903137207,-0.0762939453125,-1.373291015625,-0.152587890625
1.7499999,-0.6416460275650024,0.35434186458587646,-9.737217903137207,-0.0457763671875,-1.2969970703125,-0.091552734375
1.7699999,-0.6416460275650024,0.35673606395721436,-9.734824180603027,-0.06103515625,-1.3275146484375,-0.1678466796875
1.7899999,-0.6392518281936646,0.35673606395721436,-9.732429504394531,-0.0152587890625,-1.3580322265625,-0.1373291015625
1.8099999,-0.6392518281936646,0.35673606395721436,-9.732429504394531,-0.0457763671875,-1.3275146484375,-0.1678466796875
1.8299999,-0.6392518281936646,0.35913026332855225,-9.730035781860352,-0.1068115234375,-1.3427734375,-0.1068115234375
1.8499999,-0.6416460275650024,0.35913026332855225,-9.730035781860352,-0.06103515625,-1.373291015625,-0.152587890625
1.8699999,-0.6440402865409851,0.35673606395721436,-9.730035781860352,-0.06103515625,-1.3427734375,-0.1678466796875
1.8899999,-0.6440402865409851,0.35434186458587646,-9.732429504394531,-0.0762939453125,-1.373291015625,-0.1068115234375
1.9099999,-0.6440402865409851,0.35673606395721436,-9.734824180603027,-0.030517578125,-1.3427734375,-0.1220703125
1.9299998999999999,-0.6440402865409851,0.35434186458587646,-9.737217903137207,-0.0457763671875,-1.2969970703125,-0.1983642578125
1.9499999,-0.6440402865409851,0.35673606395721436,-9.739612579345703,-0.0152587890625,-1.373291015625,-0.1678466796875
1.9699999,-0.6440402865409851,0.35673606395721436,-9.739612579345703,-0.0762939453125,-1.40380859375,-0.091552734375
1.9899999,-0.6440402865409851,0.35913026332855225,-9.742006301879883,-0.030517578125,-1.4190673828125,-0.152587890625
2.0099999,-0.6440402865409851,0.35913026332855225,-9.739612579345703,0.0152587890625,-1.3427734375,-0.152587890625
2.0299999,-0.6440402865409851,0.36152446269989014,-9.739612579345703,0.0152587890625,-1.3580322265625,-0.152587890625
2.0499999,-0.6440402865409851,0.36152446269989014,-9.739612579345703,-0.06103515625,-1.434326171875,-0.1678466796875
2.0699999,-0.6440402865409851,0.36152446269989014,-9.737217903137207,0.0152587890625,-1.3580322265625,-0.18310546875
2.0899999,-0.646434485912323,0.35913026332855225,-9.734824180603027,-0.0457763671875,-1.4190673828125,-0.1220703125
2.1099999,-0.646434485912323,0.35913026332855225,-9.732429504394531,-0.091552734375,-1.373291015625,-0.1220703125
2.1299999,-0.6440402865409851,0.35913026332855225,-9.732429504394531,-0.0152587890625,-1.3275146484375,-0.091552734375
2.1499999,-0.6440402865409851,0.35673606395721436,-9.732429504394531,-0.030517578125,-1.40380859375,-0.1068115234375
2.1699999,-0.6440402865409851,0.35673606395721436,-9.732429504394531,-0.0152587890625,-1.4495849609375,-0.1220703125
2.1899999,-0.6440402865409851,0.35913026332855225,-9.734824180603027,-0.0457763671875,-1.3427734375,-0.1220703125
2.2099999,-0.6440402865409851,0.36152446269989014,-9.734824180603027,-0.0762939453125,-1.3580322265625,-0.091552734375
2.2299999,-0.6440402865409851,0.363918662071228,-9.734824180603027,-0.0152587890625,-1.3427734375,-0.152587890625
2.2499999,-0.6440402865409851,0.363918662071228,-9.737217903137207,-0.0762939453125,-1.3427734375,-0.1373291015625
2.2699999,-0.6416460275650024,0.363918662071228,-9.737217903137207,-0.0762939453125,-1.4190673828125,-0.1373291015625
2.2899999,-0.6416460275650024,0.363918662071228,-9.739612579345703,-0.06103515625,-1.3580322265625,-0.1983642578125
2.3099999,-0.6392518281936646,0.363918662071228,-9.742006301879883,0.0152587890625,-1.4495849609375,-0.1373291015625
2.3299999,-0.6392518281936646,0.36152446269989014,-9.742006301879883,0,-1.434326171875,-0.1220703125
2.3499999,-0.6416460275650024,0.36152446269989014,-9.742006301879883,0,-1.3885498046875,-0.1068115234375
2.3699999,-0.6416460275650024,0.35913026332855225,-9.742006301879883,-0.0152587890625,-1.3275146484375,-0.091552734375
2.3899999,-0.6440402865409851,0.35673606395721436,-9.739612579345703,-0.0457763671875,-1.373291015625,-0.18310546875
2.4099999,-0.6440402865409851,0.35673606395721436,-9.737217903137207,-0.0762939453125,-1.373291015625,-0.2288818359375
2.4299999,-0.6440402865409851,0.35673606395721436,-9.734824180603027,-0.06103515625,-1.3427734375,-0.18310546875
2.4499999,-0.6416460275650024,0.35673606395721436,-9.734824180603027,-0.030517578125,-1.3427734375,-0.1220703125
2.4699999,-0.6416460275650024,0.35913026332855225,-9.734824180603027,-0.030517578125,-1.2969970703125,-0.152587890625
2.4899999,-0.6416460275650024,0.35913026332855225,-9.737217903137207,-0.0457763671875,-1.3580322265625,-0.1220703125
2.5099999,-0.6416460275650024,0.35913026332855225,-9.737217903137207,-0.0152587890625,-1.434326171875,-0.1373291015625
2.5299999,-0.646434485912323,0.35673606395721436,-9.739612579345703,-0.0152587890625,-1.46484375,-0.1373291015625
2.5499999,-0.646434485912323,0.35673606395721436,-9.739612579345703,-0.1068115234375,-1.3427734375,-0.1068115234375
2.5699999,-0.646434485912323,0.35673606395721436,-9.742006301879883,-0.152587890625,-1.312255859375,-0.1068115234375
2.5899999,-0.6440402865409851,0.35434186458587646,-9.742006301879883,-0.091552734375,-1.3427734375,-0.1983642578125
2.6099999,-0.6440402865409851,0.35434186458587646,-9.742006301879883,0.0152587890625,-1.3427734375,-0.18310546875
2.6299999,-0.6416460275650024,0.35434186458587646,-9.742006301879883,-0.030517578125,-1.2969970703125,-0.18310546875
2.6499999,-0.6416460275650024,0.35434186458587646,-9.742006301879883,-0.030517578125,-1.3580322265625,-0.18310546875
2.6699999,-0.6416460275650024,0.35434186458587646,-9.739612579345703,-0.091552734375,-1.40380859375,-0.244140625
2.6899999,-0.6416460275650024,0.35673606395721436,-9.739612579345703,-0.0457763671875,-1.3427734375,-0.1678466796875
2.7099999,-0.6416460275650024,0.35913026332855225,-9.739612579345703,0.030517578125,-1.373291015625,-0.1373291015625
2.7299999,-0.6416460275650024,0.36152446269989014,-9.739612579345703,0,-1.4190673828125,-0.0762939453125
2.7499999,-0.6440402865409851,0.36152446269989014,-9.737217903137207,-0.0152587890625,-1.4190673828125,-0.1373291015625
2.7699999,-0.646434485912323,0.36152446269989014,-9.737217903137207,-0.0762939453125,-1.3427734375,-0.1983642578125
2.7899999,-0.646434485912323,0.363918662071228,-9.737217903137207,-0.030517578125,-1.251220703125,-0.244140625
2.8099999,-0.646434485912323,0.363918662071228,-9.737217903137207,-0.030517578125,-1.3580322265625,-0.1220703125
2.8299999,-0.646434485912323,0.363918662071228,-9.737217903137207,-0.0762939453125,-1.40380859375,-0.152587890625
2.8499999,-0.646434485912323,0.36152446269989014,-9.737217903137207,-0.0762939453125,-1.3580322265625,-0.1068115234375
2.8699999,-0.646434485912323,0.36152446269989014,-9.737217903137207,-0.030517578125,-1.40380859375,-0.091552734375
2.8899999,-0.6440402865409851,0.35913026332855225,-9.739612579345703,-0.0762939453125,-1.312255859375,-0.2288818359375
2.9099999,-0.6440402865409851,0.35913026332855225,-9.739612579345703,-0.0457763671875,-1.3275146484375,-0.18310546875
2.9299999,-0.6416460275650024,0.35913026332855225,-9.739612579345703,-0.091552734375,-1.2969970703125,-0.0457763671875
2.9499999,-0.6416460275650024,0.35913026332855225,-9.739612579345703,-0.1373291015625,-1.251220703125,-0.18310546875
2.9699999,-0.6392518281936646,0.36152446269989014,-9.739612579345703,-0.0152587890625,-1.3275146484375,-0.18310546875
2.9899999,-0.6392518281936646,0.36152446269989014,-9.739612579345703,0.030517578125,-1.3275146484375,-0.1068115234375
3.0099999,-0.6416460275650024,0.36152446269989014,-9.737217903137207,-0.0762939453125,-1.3580322265625,-0.1678466796875
3.0299999,-0.6416460275650024,0.36152446269989014,-9.737217903137207,-0.0762939453125,-1.3885498046875,-0.1678466796875
3.0499999,-0.6416460275650024,0.36152446269989014,-9.737217903137207,-0.1068115234375,-1.3580322265625,-0.1220703125
3.0699999,-0.6416460275650024,0.36152446269989014,-9.737217903137207,-0.1068115234375,-1.3427734375,-0.1220703125
3.0899999,-0.6416460275650024,0.36152446269989014,-9.734824180603027,-0.0457763671875,-1.373291015625,-0.18310546875
3.1099999,-0.6416460275650024,0.35913026332855225,-9.737217903137207,-0.030517578125,-1.3580322265625,-0.1983642578125
3.1299999,-0.6440402865409851,0.35913026332855225,-9.737217903137207,-0.0762939453125,-1.312255859375,-0.18310546875
3.1499999,-0.6440402865409851,0.35913026332855225,-9.737217903137207,-0.030517578125,-1.373291015625,-0.152587890625
3.1699999,-0.646434485912323,0.36152446269989014,-9.739612579345703,-0.030517578125,-1.3275146484375,-0.1983642578125
3.1899999,-0.646434485912323,0.36152446269989014,-9.739612579345703,-0.030517578125,-1.312255859375,-0.2288818359375
3.2099999,-0.646434485912323,0.35913026332855225,-9.739612579345703,-0.06103515625,-1.312255859375,-0.1983642578125
3.2299999,-0.6488286852836609,0.35913026332855225,-9.739612579345703,-0.0457763671875,-1.40380859375,-0.1373291015625
3.2499999,-0.646434485912323,0.35673606395721436,-9.742006301879883,-0.0152587890625,-1.3427734375,-0.1220703125
3.2699999,-0.646434485912323,0.35673606395721436,-9.742006301879883,-0.06103515625,-1.3427734375,-0.1373291015625
3.2899999,-0.6440402865409851,0.35913026332855225,-9.742006301879883,-0.030517578125,-1.3885498046875,-0.0762939453125
3.3099999,-0.6440402865409851,0.35913026332855225,-9.739612579345703,-0.0457763671875,-1.40380859375,-0.1068115234375
3.3299999000000002,-0.6416460275650024,0.35913026332855225,-9.739612579345703,-0.06103515625,-1.40380859375,-0.1678466796875
3.3499999,-0.6392518281936646,0.35913026332855225,-9.734824180603027,0.06103515625,-1.3580322265625,-0.1220703125
3.3699999,-0.6392518281936646,0.35913026332855225,-9.734824180603027,-0.030517578125,-1.4190673828125,-0.0762939453125
3.3899999,-0.6392518281936646,0.35673606395721436,-9.734824180603027,-0.06103515625,-1.3580322265625,-0.1373291015625
3.4099999,-0.6392518281936646,0.35913026332855225,-9.734824180603027,-0.091552734375,-1.373291015625,-0.2288818359375
3.4299999,-0.6416460275650024,0.35913026332855225,-9.737217903137207,-0.0457763671875,-1.3427734375,-0.18310546875
3.4499999,-0.6416460275650024,0.35913026332855225,-9.737217903137207,-0.030517578125,-1.2664794921875,-0.1373291015625
3.4699999,-0.6392518281936646,0.35913026332855225,-9.739612579345703,0,-1.2969970703125,-0.152587890625
3.4899999,-0.6392518281936646,0.35673606395721436,-9.739612579345703,-0.0152587890625,-1.3275146484375,-0.1983642578125
3.5099999,-0.6392518281936646,0.35434186458587646,-9.739612579345703,-0.1068115234375,-1.373291015625,-0.1983642578125
3.5299999,-0.6392518281936646,0.3519476354122162,-9.739612579345703,-0.091552734375,-1.3427734375,-0.1373291015625
3.5499999,-0.6368576288223267,0.3519476354122162,-9.737217903137207,-0.0762939453125,-1.3275146484375,-0.1678466796875
3.5699999,-0.6368576288223267,0.3519476354122162,-9.732429504394531,-0.091552734375,-1.3275146484375,-0.1068115234375
3.5899999,-0.6368576288223267,0.35434186458587646,-9.730035781860352,-0.0762939453125,-1.2969970703125,-0.18310546875
3.6099999,-0.6368576288223267,0.35673606395721436,-9.730035781860352,0,-1.3885498046875,-0.1678466796875
3.6299999,-0.6392518281936646,0.35673606395721436,-9.732429504394531,-0.0152587890625,-1.3580322265625,-0.1220703125
3.6499999,-0.6416460275650024,0.35673606395721436,-9.734824180603027,-0.0457763671875,-1.3427734375,-0.152587890625
3.6699999,-0.6440402865409851,0.35434186458587646,-9.734824180603027,-0.0152587890625,-1.312255859375,-0.1678466796875
3.6899999,-0.6440402865409851,0.35673606395721436,-9.737217903137207,-0.0457763671875,-1.3427734375,-0.1220703125
3.7099999,-0.6440402865409851,0.35913026332855225,-9.737217903137207,-0.0152587890625,-1.3275146484375,-0.152587890625
3.7299999,-0.6440402865409851,0.36152446269989014,-9.737217903137207,-0.0152587890625,-1.3275146484375,-0.091552734375
3.7499999,-0.646434485912323,0.35913026332855225,-9.737217903137207,-0.091552734375,-1.40380859375,-0.091552734375
3.7699999,-0.6488286852836609,0.35913026332855225,-9.737217903137207,-0.1220703125,-1.3275146484375,-0.152587890625
3.7899999,-0.6512228846549988,0.35913026332855225,-9.734824180603027,-0.06103515625,-1.3580322265625,-0.18310546875
3.8099999,-0.6536170840263367,0.36152446269989014,-9.732429504394531,-0.0762939453125,-1.3427734375,-0.1678466796875
3.8299999000000002,-0.6512228846549988,0.36152446269989014,-9.730035781860352,-0.0762939453125,-1.3580322265625,-0.1220703125
3.8499999,-0.6512228846549988,0.36152446269989014,-9.727641105651855,-0.06103515625,-1.312255859375,-0.152587890625
3.8699999,-0.646434485912323,0.36152446269989014,-9.727641105651855,-0.030517578125,-1.312255859375,-0.1068115234375
3.8899999,-0.6440402865409851,0.35913026332855225,-9.730035781860352,-0.0762939453125,-1.373291015625,-0.213623046875
3.9099999,-0.6440402865409851,0.35913026332855225,-9.730035781860352,-0.030517578125,-1.3885498046875,-0.1220703125
3.9299999,-0.6440402865409851,0.35913026332855225,-9.734824180603027,-0.0457763671875,-1.2969970703125,-0.2288818359375
3.9499999,-0.6416460275650024,0.36152446269989014,-9.734824180603027,0.030517578125,-1.40380859375,-0.18310546875
3.9699999,-0.6416460275650024,0.36152446269989014,-9.737217903137207,0.0457763671875,-1.2969970703125,-0.1220703125
3.9899999,-0.6416460275650024,0.36152446269989014,-9.737217903137207,-0.0457763671875,-1.28173828125,-0.1678466796875
4.0099999,-0.6416460275650024,0.36152446269989014,-9.737217903137207,-0.0762939453125,-1.3275146484375,-0.18310546875
4.029999900000001,-0.6440402865409851,0.35913026332855225,-9.739612579345703,-0.030517578125,-1.28173828125,-0.06103515625
4.0499999,-0.6440402865409851,0.35913026332855225,-9.739612579345703,-0.06103515625,-1.3275146484375,-0.091552734375
4.069999900000001,-0.6440402865409851,0.35913026332855225,-9.737217903137207,-0.030517578125,-1.3275146484375,-0.152587890625
4.0899999000000005,-0.646434485912323,0.35913026332855225,-9.739612579345703,-0.0152587890625,-1.3427734375,-0.1220703125
4.1099999,-0.6488286852836609,0.35673606395721436,-9.737217903137207,0,-1.3275146484375,-0.1983642578125
4.1299999000000005,-0.6512228846549988,0.35673606395721436,-9.739612579345703,-0.0762939453125,-1.28173828125,-0.152587890625
4.1499999,-0.6512228846549988,0.35673606395721436,-9.739612579345703,-0.1068115234375,-1.251220703125,-0.1373291015625
4.1699999000000005,-0.6512228846549988,0.35434186458587646,-9.742006301879883,-0.0152587890625,-1.3275146484375,-0.18310546875
4.1899999,-0.646434485912323,0.3495534360408783,-9.739612579345703,0,-1.3427734375,-0.18310546875
4.209999900000001,-0.646434485912323,0.3495534360408783,-9.737217903137207,-0.0457763671875,-1.220703125,-0.1220703125
4.2299999,-0.6440402865409851,0.3519476354122162,-9.737217903137207,-0.0457763671875,-1.28173828125,-0.1373291015625
4.249999900000001,-0.6416460275650024,0.35434186458587646,-9.732429504394531,-0.0152587890625,-1.3427734375,-0.1373291015625
4.2699999,-0.6440402865409851,0.35673606395721436,-9.732429504394531,-0.06103515625,-1.312255859375,-0.1220703125
4.289999900000001,-0.6416460275650024,0.35434186458587646,-9.732429504394531,-0.06103515625,-1.2969970703125,-0.1678466796875
4.3099999,-0.646434485912323,0.35434186458587646,-9.732429504394531,-0.030517578125,-1.3580322265625,-0.1983642578125
4.329999900000001,-0.646434485912323,0.35434186458587646,-9.732429504394531,0,-1.3580322265625,-0.18310546875
4.3499999,-0.6512228846549988,0.35673606395721436,-9.734824180603027,-0.06103515625,-1.3275146484375,-0.152587890625
4.369999900000001,-0.6512228846549988,0.35913026332855225,-9.734824180603027,0.0152587890625,-1.2969970703125,-0.1220703125
4.3899999,-0.6512228846549988,0.35913026332855225,-9.737217903137207,-0.0457763671875,-1.2664794921875,-0.213623046875
4.409999900000001,-0.6488286852836609,0.35913026332855225,-9.739612579345703,-0.0152587890625,-1.2969970703125,-0.152587890625
4.4299999,-0.646434485912323,0.35913026332855225,-9.742006301879883,-0.030517578125,-1.312255859375,-0.1068115234375
4.449999900000001,-0.6440402865409851,0.35913026332855225,-9.739612579345703,-0.0762939453125,-1.40380859375,-0.1983642578125
4.4699999,-0.6416460275650024,0.35913026332855225,-9.739612579345703,-0.06103515625,-1.2969970703125,-0.213623046875
4.489999900000001,-0.6416460275650024,0.35913026332855225,-9.737217903137207,-0.1068115234375,-1.251220703125,-0.1678466796875
4.5099999,-0.6416460275650024,0.35673606395721436,-9.734824180603027,-0.0762939453125,-1.3275146484375,-0.1068115234375
4.529999900000001,-0.6416460275650024,0.35434186458587646,-9.737217903137207,-0.030517578125,-1.3580322265625,-0.1220703125
4.5499999,-0.6416460275650024,0.35673606395721436,-9.737217903137207,-0.0152587890625,-1.3275146484375,-0.1068115234375
4.569999900000001,-0.6392518281936646,0.35673606395721436,-9.737217903137207,-0.0152587890625,-1.2664794921875,-0.1373291015625
4.5899999000000005,-0.6368576288223267,0.35673606395721436,-9.739612579345703,-0.0457763671875,-1.2969970703125,-0.18310546875
4.609999900000001,-0.6368576288223267,0.35673606395721436,-9.739612579345703,-0.0457763671875,-1.3427734375,-0.213623046875
4.6299999000000005,-0.6368576288223267,0.35673606395721436,-9.739612579345703,-0.0457763671875,-1.40380859375,-0.1220703125
4.6499999,-0.6392518281936646,0.35673606395721436,-9.739612579345703,-0.06103515625,-1.3580322265625,-0.1373291015625
4.6699999000000005,-0.6416460275650024,0.35913026332855225,-9.739612579345703,-0.1220703125,-1.373291015625,-0.1983642578125
4.6899999,-0.6440402865409851,0.35913026332855225,-9.737217903137207,-0.0762939453125,-1.2969970703125,-0.1068115234375
4.709999900000001,-0.6440402865409851,0.35673606395721436,-9.734824180603027,-0.06103515625,-1.3580322265625,-0.152587890625
4.7299999,-0.646434485912323,0.35673606395721436,-9.734824180603027,-0.06103515625,-1.3885498046875,-0.213623046875
4.749999900000001,-0.646434485912323,0.35673606395721436,-9.734824180603027,-0.06103515625,-1.3885498046875,-0.18310546875
4.7699999,-0.646434485912323,0.35673606395721436,-9.737217903137207,-0.1068115234375,-1.3427734375,-0.1678466796875
4.789999900000001,-0.6440402865409851,0.35673606395721436,-9.737217903137207,-0.1068115234375,-1.312255859375,-0.213623046875
4.8099999,-0.6416460275650024,0.35673606395721436,-9.737217903137207,-0.0457763671875,-1.312255859375,-0.1373291015625
4.829999900000001,-0.6392518281936646,0.35913026332855225,-9.737217903137207,-0.0152587890625,-1.3580322265625,-0.1220703125
4.8499999,-0.6392518281936646,0.363918662071228,-9.734824180603027,-0.0762939453125,-1.2969970703125,-0.0762939453125
4.869999900000001,-0.6392518281936646,0.363918662071228,-9.734824180603027,-0.1068115234375,-1.28173828125,-0.1373291015625
4.8899999,-0.6392518281936646,0.363918662071228,-9.732429504394531,0,-1.2969970703125,-0.1678466796875
4.909999900000001,-0.6392518281936646,0.363918662071228,-9.732429504394531,-0.030517578125,-1.3275146484375,-0.1220703125
4.9299999,-0.6368576288223267,0.36152446269989014,-9.732429504394531,-0.0762939453125,-1.3885498046875,-0.1068115234375
4.949999900000001,-0.6368576288223267,0.35913026332855225,-9.732429504394531,-0.06103515625,-1.3580322265625,-0.2288818359375
4.9699999,-0.6368576288223267,0.35913026332855225,-9.734824180603027,0,-1.312255859375,-0.213623046875
4.989999900000001,-0.6368576288223267,0.35673606395721436,-9.737217903137207,-0.1220703125,-1.3275146484375,-0.152587890625
5.0099999,-0.6368576288223267,0.35673606395721436,-9.739612579345703,-0.1068115234375,-1.251220703125,-0.1220703125
5.029999900000001,-0.6368576288223267,0.35434186458587646,-9.742006301879883,-0.06103515625,-1.2664794921875,-0.18310546875
5.0499999,-0.6392518281936646,0.35434186458587646,-9.744400978088379,-0.152587890625,-1.373291015625,-0.213623046875
5.069999900000001,-0.6416460275650024,0.35673606395721436,-9.742006301879883,-0.0762939453125,-1.373291015625,-0.152587890625
5.0899999000000005,-0.6416460275650024,0.35673606395721436,-9.742006301879883,0.0152587890625,-1.3275146484375,-0.152587890625
5.109999900000001,-0.6416460275650024,0.35913026332855225,-9.739612579345703,-0.0457763671875,-1.312255859375,-0.1983642578125
5.1299999000000005,-0.6416460275650024,0.35913026332855225,-9.734824180603027,-0.030517578125,-1.3275146484375,-0.1678466796875
5.1499999,-0.6440402865409851,0.35673606395721436,-9.732429504394531,0.0457763671875,-1.3580322265625,-0.091552734375
5.1699999000000005,-0.6440402865409851,0.35673606395721436,-9.732429504394531,-0.0457763671875,-1.373291015625,-0.1068115234375
5.1899999,-0.6416460275650024,0.35673606395721436,-9.734824180603027,-0.06103515625,-1.28173828125,-0.18310546875
5.209999900000001,-0.6416460275650024,0.3519476354122162,-9.734824180603027,-0.06103515625,-1.3427734375,-0.1373291015625
5.2299999,-0.6416460275650024,0.35434186458587646,-9.737217903137207,-0.030517578125,-1.2664794921875,-0.1068115234375
5.249999900000001,-0.6416460275650024,0.3519476354122162,-9.739612579345703,-0.091552734375,-1.220703125,-0.1373291015625
5.2699999,-0.6440402865409851,0.35673606395721436,-9.737217903137207,-0.091552734375,-1.28173828125,-0.1678466796875
5.289999900000001,-0.6416460275650024,0.35913026332855225,-9.739612579345703,-0.1068115234375,-1.312255859375,-0.1678466796875
5.3099999,-0.6440402865409851,0.36152446269989014,-9.737217903137207,-0.0152587890625,-1.3275146484375,-0.1678466796875
5.329999900000001,-0.6440402865409851,0.36152446269989014,-9.739612579345703,0.0457763671875,-1.220703125,-0.1983642578125
5.3499999,-0.6416460275650024,0.35913026332855225,-9.742006301879883,-0.0762939453125,-1.312255859375,-0.1373291015625
5.369999900000001,-0.6416460275650024,0.35673606395721436,-9.744400978088379,-0.1220703125,-1.3580322265625,-0.152587890625
5.3899999,-0.6416460275650024,0.35434186458587646,-9.744400978088379,-0.06103515625,-1.3275146484375,-0.1678466796875
5.409999900000001,-0.6440402865409851,0.35434186458587646,-9.742006301879883,-0.06103515625,-1.3427734375,-0.152587890625
5.4299999,-0.646434485912323,0.35434186458587646,-9.739612579345703,-0.06103515625,-1.3885498046875,-0.1068115234375
5.449999900000001,-0.646434485912323,0.35673606395721436,-9.737217903137207,-0.06103515625,-1.312255859375,-0.1068115234375
5.4699999,-0.6440402865409851,0.35673606395721436,-9.737217903137207,-0.091552734375,-1.2664794921875,-0.1373291015625
5.489999900000001,-0.6416460275650024,0.35913026332855225,-9.739612579345703,-0.06103515625,-1.312255859375,-0.18310546875
5.5099999,-0.6392518281936646,0.35913026332855225,-9.742006301879883,-0.06103515625,-1.3580322265625,-0.06103515625
5.529999900000001,-0.6392518281936646,0.36152446269989014,-9.742006301879883,-0.0762939453125,-1.3427734375,-0.1373291015625
5.5499999,-0.6416460275650024,0.36152446269989014,-9.742006301879883,-0.0152587890625,-1.3580322265625,-0.1678466796875
5.569999900000001,-0.6440402865409851,0.36152446269989014,-9.742006301879883,-0.091552734375,-1.3275146484375,-0.1068115234375
5.5899999000000005,-0.646434485912323,0.36152446269989014,-9.739612579345703,-0.091552734375,-1.3580322265625,-0.0762939453125
5.609999900000001,-0.646434485912323,0.35913026332855225,-9.737217903137207,-0.06103515625,-1.28173828125,-0.1373291015625
5.6299999000000005,-0.646434485912323,0.35673606395721436,-9.737217903137207,-0.1220703125,-1.28173828125,-0.1678466796875
5.6499999,-0.646434485912323,0.35673606395721436,-9.734824180603027,-0.1678466796875,-1.2054443359375,-0.1220703125
5.6699999000000005,-0.646434485912323,0.35673606395721436,-9.734824180603027,-0.06103515625,-1.2969970703125,-0.1068115234375
5.6899999,-0.6440402865409851,0.35673606395721436,-9.734824180603027,0.030517578125,-1.3885498046875,-0.1373291015625
5.709999900000001,-0.6440402865409851,0.35673606395721436,-9.734824180603027,-0.030517578125,-1.312255859375,-0.1983642578125
5.7299999,-0.6416460275650024,0.35673606395721436,-9.737217903137207,0,-1.3275146484375,-0.1373291015625
5.749999900000001,-0.6416460275650024,0.35673606395721436,-9.737217903137207,-0.091552734375,-1.3427734375,-0.1068115234375
5.7699999,-0.6392518281936646,0.35673606395721436,-9.737217903137207,-0.06103515625,-1.373291015625,-0.1373291015625
5.789999900000001,-0.6392518281936646,0.35913026332855225,-9.734824180603027,-0.1220703125,-1.2969970703125,-0.152587890625
5.8099999,-0.6392518281936646,0.36152446269989014,-9.734824180603027,-0.0152587890625,-1.3275146484375,-0.1983642578125
5.829999900000001,-0.6392518281936646,0.36152446269989014,-9.734824180603027,0.0152587890625,-1.312255859375,-0.152587890625
5.8499999,-0.6392518281936646,0.36152446269989014,-9.737217903137207,-0.1220703125,-1.3275146484375,-0.091552734375
5.869999900000001,-0.6416460275650024,0.36152446269989014,-9.737217903137207,0.0457763671875,-1.373291015625,-0.1983642578125
5.8899999,-0.6440402865409851,0.35913026332855225,-9.737217903137207,0.06103515625,-1.28173828125,-0.152587890625
5.909999900000001,-0.646434485912323,0.35673606395721436,-9.737217903137207,-0.0152587890625,-1.28173828125,-0.1068115234375
5.9299999,-0.6488286852836609,0.35434186458587646,-9.737217903137207,-0.091552734375,-1.28173828125,-0.213623046875
5.949999900000001,-0.6488286852836609,0.35434186458587646,-9.737217903137207,-0.06103515625,-1.2969970703125,-0.152587890625
5.9699999,-0.6488286852836609,0.35673606395721436,-9.737217903137207,-0.0457763671875,-1.312255859375,-0.1068115234375
5.989999900000001,-0.646434485912323,0.35673606395721436,-9.737217903137207,-0.0457763671875,-1.373291015625,-0.091552734375
6.0099999,-0.646434485912323,0.35673606395721436,-9.737217903137207,-0.1373291015625,-1.2664794921875,-0.152587890625
6.029999900000001,-0.646434485912323,0.35673606395721436,-9.739612579345703,-0.0457763671875,-1.220703125,-0.1678466796875
6.0499999,-0.6440402865409851,0.35673606395721436,-9.739612579345703,-0.0457763671875,-1.3427734375,-0.152587890625
6.069999900000001,-0.6416460275650024,0.36152446269989014,-9.739612579345703,-0.0457763671875,-1.28173828125,-0.18310546875
6.0899999000000005,-0.6392518281936646,0.363918662071228,-9.739612579345703,0,-1.373291015625,-0.091552734375
6.109999900000001,-0.6392518281936646,0.363918662071228,-9.742006301879883,-0.030517578125,-1.3580322265625,-0.1068115234375
6.1299999000000005,-0.6392518281936646,0.36152446269989014,-9.742006301879883,-0.0152587890625,-1.3275146484375,-0.1220703125
6.149999900000001,-0.6392518281936646,0.35913026332855225,-9.744400978088379,-0.030517578125,-1.3427734375,-0.18310546875
6.1699999000000005,-0.6416460275650024,0.35913026332855225,-9.744400978088379,-0.030517578125,-1.220703125,-0.213623046875
6.1899999,-0.6416460275650024,0.35673606395721436,-9.744400978088379,0.0457763671875,-1.190185546875,-0.1220703125
6.209999900000001,-0.6440402865409851,0.35673606395721436,-9.742006301879883,-0.091552734375,-1.2664794921875,-0.091552734375
6.2299999,-0.6440402865409851,0.35673606395721436,-9.739612579345703,-0.0762939453125,-1.2664794921875,-0.152587890625
6.249999900000001,-0.646434485912323,0.35673606395721436,-9.737217903137207,-0.06103515625,-1.28173828125,-0.213623046875
6.2699999,-0.6488286852836609,0.35673606395721436,-9.734824180603027,0,-1.28173828125,-0.152587890625
6.289999900000001,-0.6512228846549988,0.35673606395721436,-9.734824180603027,-0.0152587890625,-1.28173828125,-0.091552734375
6.3099999,-0.6512228846549988,0.35673606395721436,-9.732429504394531,-0.091552734375,-1.312255859375,-0.18310546875
6.329999900000001,-0.6488286852836609,0.35913026332855225,-9.732429504394531,-0.0457763671875,-1.2054443359375,-0.152587890625
6.3499999,-0.6488286852836609,0.35913026332855225,-9.732429504394531,-0.0762939453125,-1.28173828125,-0.152587890625
6.369999900000001,-0.646434485912323,0.35913026332855225,-9.732429504394531,-0.1220703125,-1.312255859375,-0.1220703125
6.3899999,-0.6440402865409851,0.35913026332855225,-9.734824180603027,-0.030517578125,-1.3275146484375,-0.091552734375
6.409999900000001,-0.6416460275650024,0.35673606395721436,-9.734824180603027,0,-1.28173828125,-0.1678466796875
6.4299999,-0.6416460275650024,0.35673606395721436,-9.734824180603027,0.0152587890625,-1.3427734375,-0.1373291015625
6.449999900000001,-0.6392518281936646,0.35434186458587646,-9.737217903137207,0.030517578125,-1.3580322265625,-0.1373291015625
6.4699999,-0.6416460275650024,0.3519476354122162,-9.737217903137207,0,-1.3275146484375,-0.1220703125
6.489999900000001,-0.6440402865409851,0.35434186458587646,-9.737217903137207,-0.0762939453125,-1.3275146484375,-0.2288818359375
6.5099999,-0.6488286852836609,0.35434186458587646,-9.737217903137207,-0.091552734375,-1.3275146484375,-0.2593994140625
6.529999900000001,-0.6512228846549988,0.35434186458587646,-9.737217903137207,-0.0762939453125,-1.3275146484375,-0.18310546875
6.5499999,-0.6512228846549988,0.35434186458587646,-9.734824180603027,-0.06103515625,-1.2969970703125,-0.152587890625
6.569999900000001,-0.6512228846549988,0.35434186458587646,-9.734824180603027,-0.0762939453125,-1.2664794921875,-0.152587890625
6.5899999000000005,-0.6488286852836609,0.35673606395721436,-9.734824180603027,-0.0457763671875,-1.251220703125,-0.18310546875
6.609999900000001,-0.646434485912323,0.35913026332855225,-9.734824180603027,0,-1.312255859375,-0.152587890625
6.6299999000000005,-0.646434485912323,0.36152446269989014,-9.734824180603027,-0.0762939453125,-1.3275146484375,-0.1373291015625
6.649999900000001,-0.6440402865409851,0.36152446269989014,-9.732429504394531,-0.091552734375,-1.251220703125,-0.18310546875
6.6699999000000005,-0.6440402865409851,0.36152446269989014,-9.730035781860352,-0.06103515625,-1.2359619140625,-0.091552734375
6.6899999,-0.6440402865409851,0.363918662071228,-9.730035781860352,0.0152587890625,-1.28173828125,-0.18310546875
6.709999900000001,-0.6440402865409851,0.36152446269989014,-9.730035781860352,-0.0457763671875,-1.3275146484375,-0.1983642578125
6.7299999,-0.646434485912323,0.35913026332855225,-9.732429504394531,-0.0762939453125,-1.3275146484375,-0.1373291015625
6.749999900000001,-0.6488286852836609,0.35673606395721436,-9.734824180603027,0.0152587890625,-1.373291015625,-0.18310546875
6.7699999,-0.6488286852836609,0.35673606395721436,-9.737217903137207,0,-1.2969970703125,-0.1678466796875
6.789999900000001,-0.6488286852836609,0.35673606395721436,-9.737217903137207,-0.0762939453125,-1.2664794921875,-0.1983642578125
6.8099999,-0.6488286852836609,0.35913026332855225,-9.739612579345703,-0.1373291015625,-1.3580322265625,-0.18310546875
6.829999900000001,-0.646434485912323,0.35913026332855225,-9.737217903137207,-0.06103515625,-1.3427734375,-0.1220703125
6.8499999,-0.6440402865409851,0.35913026332855225,-9.737217903137207,-0.06103515625,-1.2969970703125,-0.152587890625
6.869999900000001,-0.6440402865409851,0.36152446269989014,-9.734824180603027,-0.06103515625,-1.3275146484375,-0.1373291015625
6.8899999,-0.6440402865409851,0.36152446269989014,-9.732429504394531,-0.06103515625,-1.2664794921875,-0.152587890625
6.909999900000001,-0.6440402865409851,0.363918662071228,-9.732429504394531,0,-1.373291015625,-0.152587890625
6.9299999,-0.6440402865409851,0.363918662071228,-9.734824180603027,0.0152587890625,-1.3885498046875,-0.1220703125
6.949999900000001,-0.6416460275650024,0.363918662071228,-9.734824180603027,0.0457763671875,-1.3275146484375,-0.1068115234375
6.9699999,-0.6416460275650024,0.36152446269989014,-9.739612579345703,-0.06103515625,-1.3580322265625,-0.2288818359375
6.989999900000001,-0.6416460275650024,0.363918662071228,-9.742006301879883,-0.1068115234375,-1.2664794921875,-0.1983642578125
7.0099999,-0.6440402865409851,0.363918662071228,-9.742006301879883,-0.0152587890625,-1.2359619140625,-0.0762939453125
7.029999900000001,-0.6440402865409851,0.363918662071228,-9.742006301879883,-0.091552734375,-1.28173828125,-0.1983642578125
7.0499999,-0.646434485912323,0.363918662071228,-9.739612579345703,-0.152587890625,-1.3275146484375,-0.1678466796875
7.069999900000001,-0.6488286852836609,0.36152446269989014,-9.737217903137207,-0.0762939453125,-1.3275146484375,-0.18310546875
7.0899999000000005,-0.6488286852836609,0.35913026332855225,-9.737217903137207,-0.030517578125,-1.3427734375,-0.1220703125
7.109999900000001,-0.6488286852836609,0.35913026332855225,-9.734824180603027,-0.030517578125,-1.3275146484375,-0.152587890625
7.1299999000000005,-0.646434485912323,0.35673606395721436,-9.737217903137207,-0.0762939453125,-1.2969970703125,-0.1373291015625
7.149999900000001,-0.6440402865409851,0.35673606395721436,-9.739612579345703,0,-1.312255859375,-0.091552734375
7.1699999000000005,-0.6440402865409851,0.35913026332855225,-9.742006301879883,-0.0457763671875,-1.4190673828125,-0.213623046875
7.1899999,-0.6440402865409851,0.35913026332855225,-9.744400978088379,-0.0762939453125,-1.3427734375,-0.18310546875
7.209999900000001,-0.6440402865409851,0.35673606395721436,-9.746794700622559,-0.030517578125,-1.2969970703125,-0.1220703125
7.2299999,-0.6440402865409851,0.35434186458587646,-9.746794700622559,-0.030517578125,-1.312255859375,-0.1220703125
7.249999900000001,-0.6440402865409851,0.35434186458587646,-9.746794700622559,-0.091552734375,-1.3427734375,-0.1373291015625
7.2699999,-0.646434485912323,0.35434186458587646,-9.744400978088379,0,-1.312255859375,-0.18310546875
7.289999900000001,-0.646434485912323,0.35673606395721436,-9.742006301879883,-0.06103515625,-1.251220703125,-0.213623046875
7.3099999,-0.646434485912323,0.35673606395721436,-9.739612579345703,-0.091552734375,-1.3580322265625,-0.1678466796875
7.329999900000001,-0.646434485912323,0.35913026332855225,-9.737217903137207,-0.0762939453125,-1.3580322265625,-0.152587890625
7.3499999,-0.646434485912323,0.35673606395721436,-9.737217903137207,-0.06103515625,-1.2664794921875,-0.1373291015625
7.369999900000001,-0.646434485912323,0.35673606395721436,-9.734824180603027,-0.030517578125,-1.2969970703125,-0.1983642578125
7.3899999,-0.6488286852836609,0.35673606395721436,-9.732429504394531,-0.0457763671875,-1.3580322265625,-0.213623046875
7.409999900000001,-0.6488286852836609,0.35673606395721436,-9.732429504394531,-0.0762939453125,-1.3275146484375,-0.1678466796875
7.4299999,-0.6488286852836609,0.35673606395721436,-9.732429504394531,0,-1.2969970703125,-0.030517578125
7.449999900000001,-0.6488286852836609,0.35673606395721436,-9.734824180603027,-0.030517578125,-1.28173828125,-0.091552734375
7.4699999,-0.6488286852836609,0.35673606395721436,-9.734824180603027,-0.1220703125,-1.2969970703125,-0.152587890625
7.489999900000001,-0.6488286852836609,0.35673606395721436,-9.734824180603027,-0.091552734375,-1.312255859375,-0.1678466796875
7.5099999,-0.6488286852836609,0.35673606395721436,-9.739612579345703,-0.06103515625,-1.2969970703125,-0.1068115234375
7.529999900000001,-0.6488286852836609,0.35913026332855225,-9.739612579345703,-0.030517578125,-1.2969970703125,-0.1983642578125
7.5499999,-0.646434485912323,0.36152446269989014,-9.742006301879883,-0.0762939453125,-1.312255859375,-0.1678466796875
7.569999900000001,-0.646434485912323,0.363918662071228,-9.744400978088379,-0.06103515625,-1.312255859375,-0.1678466796875
7.5899999000000005,-0.6440402865409851,0.363918662071228,-9.744400978088379,0,-1.3427734375,-0.152587890625
7.609999900000001,-0.6440402865409851,0.3663128614425659,-9.739612579345703,-0.030517578125,-1.3427734375,-0.1220703125
7.6299999000000005,-0.6440402865409851,0.3663128614425659,-9.739612579345703,-0.06103515625,-1.2664794921875,-0.1373291015625
7.649999900000001,-0.6440402865409851,0.3663128614425659,-9.739612579345703,-0.0457763671875,-1.2664794921875,-0.2288818359375
7.6699999000000005,-0.646434485912323,0.36152446269989014,-9.742006301879883,-0.152587890625,-1.3580322265625,-0.18310546875
7.6899999,-0.646434485912323,0.36152446269989014,-9.744400978088379,-0.091552734375,-1.2969970703125,-0.1068115234375
7.709999900000001,-0.646434485912323,0.35913026332855225,-9.744400978088379,-0.0457763671875,-1.2664794921875,-0.1373291015625
7.7299999,-0.646434485912323,0.35913026332855225,-9.744400978088379,-0.0152587890625,-1.2969970703125,-0.091552734375
7.749999900000001,-0.6440402865409851,0.35913026332855225,-9.742006301879883,-0.0152587890625,-1.312255859375,-0.152587890625
7.7699999,-0.6416460275650024,0.35673606395721436,-9.737217903137207,-0.0457763671875,-1.2664794921875,-0.152587890625
7.789999900000001,-0.6416460275650024,0.35434186458587646,-9.734824180603027,0.030517578125,-1.3275146484375,-0.1220703125
7.8099999,-0.6416460275650024,0.35434186458587646,-9.732429504394531,0.030517578125,-1.3427734375,-0.091552734375
7.829999900000001,-0.646434485912323,0.3519476354122162,-9.732429504394531,0.0152587890625,-1.312255859375,-0.1068115234375
7.8499999,-0.6488286852836609,0.3519476354122162,-9.730035781860352,-0.0152587890625,-1.312255859375,-0.091552734375
7.869999900000001,-0.6488286852836609,0.35434186458587646,-9.732429504394531,0,-1.3427734375,-0.152587890625
7.8899999,-0.6488286852836609,0.3519476354122162,-9.730035781860352,-0.0152587890625,-1.3580322265625,-0.091552734375
7.909999900000001,-0.6488286852836609,0.35434186458587646,-9.732429504394531,-0.091552734375,-1.251220703125,-0.1678466796875
7.9299999,-0.6488286852836609,0.35434186458587646,-9.732429504394531,-0.0457763671875,-1.28173828125,-0.1678466796875
7.949999900000001,-0.6488286852836609,0.3519476354122162,-9.734824180603027,-0.0152587890625,-1.3885498046875,-0.1678466796875
7.9699999,-0.6488286852836609,0.3495534360408783,-9.734824180603027,-0.06103515625,-1.312255859375,-0.18310546875
7.989999900000001,-0.6488286852836609,0.3495534360408783,-9.732429504394531,-0.06103515625,-1.220703125,-0.1373291015625
8.0099999,-0.646434485912323,0.3495534360408783,-9.732429504394531,-0.06103515625,-1.28173828125,-0.1983642578125
8.0299999,-0.6440402865409851,0.3519476354122162,-9.730035781860352,-0.1068115234375,-1.2969970703125,-0.18310546875
8.049999900000001,-0.6440402865409851,0.35434186458587646,-9.730035781860352,0,-1.28173828125,-0.0457763671875
8.069999900000001,-0.646434485912323,0.35913026332855225,-9.730035781860352,-0.06103515625,-1.3275146484375,-0.0762939453125
8.0899999,-0.646434485912323,0.36152446269989014,-9.732429504394531,-0.0457763671875,-1.3275146484375,-0.1068115234375
8.1099999,-0.646434485912323,0.363918662071228,-9.734824180603027,0,-1.28173828125,-0.091552734375
8.129999900000001,-0.646434485912323,0.36152446269989014,-9.734824180603027,-0.091552734375,-1.28173828125,-0.18310546875
8.149999900000001,-0.646434485912323,0.36152446269989014,-9.739612579345703,-0.0457763671875,-1.2359619140625,-0.1373291015625
8.1699999,-0.646434485912323,0.36152446269989014,-9.737217903137207,-0.06103515625,-1.28173828125,-0.1983642578125
8.1899999,-0.6488286852836609,0.35913026332855225,-9.739612579345703,-0.030517578125,-1.2969970703125,-0.1678466796875
8.2099999,-0.6488286852836609,0.35673606395721436,-9.739612579345703,-0.06103515625,-1.1749267578125,-0.1678466796875
8.229999900000001,-0.6488286852836609,0.35673606395721436,-9.739612579345703,-0.1068115234375,-1.28173828125,-0.2288818359375
8.2499999,-0.6488286852836609,0.35434186458587646,-9.742006301879883,-0.030517578125,-1.4190673828125,-0.1678466796875
8.2699999,-0.6488286852836609,0.35434186458587646,-9.742006301879883,-0.0457763671875,-1.2359619140625,-0.1220703125
8.2899999,-0.646434485912323,0.3519476354122162,-9.739612579345703,0,-1.2359619140625,-0.152587890625
8.309999900000001,-0.646434485912323,0.35434186458587646,-9.737217903137207,-0.0457763671875,-1.3275146484375,-0.091552734375
8.3299999,-0.6440402865409851,0.35434186458587646,-9.734824180603027,-0.0762939453125,-1.28173828125,-0.152587890625
8.3499999,-0.6440402865409851,0.35673606395721436,-9.734824180603027,-0.0152587890625,-1.2359619140625,-0.18310546875
8.3699999,-0.6440402865409851,0.35673606395721436,-9.734824180603027,-0.1068115234375,-1.3275146484375,-0.1678466796875
8.389999900000001,-0.6440402865409851,0.35913026332855225,-9.734824180603027,-0.0152587890625,-1.312255859375,-0.1068115234375
8.4099999,-0.6440402865409851,0.36152446269989014,-9.737217903137207,0.0457763671875,-1.2664794921875,-0.1068115234375
8.4299999,-0.646434485912323,0.363918662071228,-9.737217903137207,-0.030517578125,-1.2969970703125,-0.1983642578125
8.4499999,-0.6488286852836609,0.363918662071228,-9.737217903137207,-0.091552734375,-1.2969970703125,-0.18310546875
8.469999900000001,-0.6488286852836609,0.363918662071228,-9.737217903137207,-0.06103515625,-1.2664794921875,-0.152587890625
8.4899999,-0.6512228846549988,0.36152446269989014,-9.739612579345703,-0.06103515625,-1.2969970703125,-0.1678466796875
8.5099999,-0.6488286852836609,0.35913026332855225,-9.739612579345703,-0.0457763671875,-1.373291015625,-0.0762939453125
8.5299999,-0.6488286852836609,0.35913026332855225,-9.739612579345703,-0.0762939453125,-1.40380859375,-0.152587890625
8.549999900000001,-0.6488286852836609,0.35673606395721436,-9.742006301879883,-0.1068115234375,-1.28173828125,-0.1983642578125
8.569999900000001,-0.6488286852836609,0.35673606395721436,-9.739612579345703,-0.1068115234375,-1.2359619140625,-0.152587890625
8.5899999,-0.6488286852836609,0.35673606395721436,-9.737217903137207,-0.091552734375,-1.2969970703125,-0.1220703125
8.6099999,-0.6440402865409851,0.35913026332855225,-9.734824180603027,-0.091552734375,-1.2969970703125,-0.1373291015625
8.629999900000001,-0.6440402865409851,0.35673606395721436,-9.732429504394531,-0.0457763671875,-1.28173828125,-0.1373291015625
8.649999900000001,-0.6392518281936646,0.35673606395721436,-9.732429504394531,-0.0152587890625,-1.3275146484375,-0.1373291015625
8.6699999,-0.6392518281936646,0.35434186458587646,-9.734824180603027,0,-1.2664794921875,-0.152587890625
8.6899999,-0.6416460275650024,0.3519476354122162,-9.734824180603027,-0.030517578125,-1.251220703125,-0.213623046875
8.709999900000001,-0.646434485912323,0.3519476354122162,-9.734824180603027,-0.0762939453125,-1.3275146484375,-0.18310546875
8.729999900000001,-0.646434485912323,0.3495534360408783,-9.734824180603027,-0.030517578125,-1.312255859375,-0.1220703125
8.7499999,-0.646434485912323,0.3519476354122162,-9.734824180603027,-0.0457763671875,-1.220703125,-0.1373291015625
8.7699999,-0.6440402865409851,0.35434186458587646,-9.734824180603027,-0.0762939453125,-1.251220703125,-0.1220703125
8.7899999,-0.6392518281936646,0.35673606395721436,-9.737217903137207,-0.0762939453125,-1.2969970703125,-0.1220703125
8.809999900000001,-0.6392518281936646,0.35913026332855225,-9.739612579345703,-0.1068115234375,-1.2969970703125,-0.1678466796875
8.8299999,-0.6392518281936646,0.35913026332855225,-9.742006301879883,-0.152587890625,-1.2359619140625,-0.18310546875
8.8499999,-0.6392518281936646,0.35913026332855225,-9.742006301879883,-0.0762939453125,-1.312255859375,-0.213623046875
8.8699999,-0.6416460275650024,0.35913026332855225,-9.744400978088379,-0.1068115234375,-1.2969970703125,-0.1220703125
8.889999900000001,-0.6416460275650024,0.35913026332855225,-9.742006301879883,-0.091552734375,-1.2969970703125,-0.1068115234375
8.9099999,-0.6416460275650024,0.35673606395721436,-9.742006301879883,-0.091552734375,-1.28173828125,-0.1983642578125
8.9299999,-0.6440402865409851,0.35673606395721436,-9.742006301879883,0,-1.2664794921875,-0.213623046875
8.9499999,-0.6440402865409851,0.35434186458587646,-9.742006301879883,-0.1220703125,-1.312255859375,-0.1068115234375
8.969999900000001,-0.6440402865409851,0.35673606395721436,-9.742006301879883,-0.0762939453125,-1.3275146484375,-0.1678466796875
8.9899999,-0.6440402865409851,0.35673606395721436,-9.739612579345703,0.030517578125,-1.3275146484375,-0.213623046875
9.0099999,-0.646434485912323,0.35673606395721436,-9.739612579345703,-0.0457763671875,-1.373291015625,-0.18310546875
9.0299999,-0.646434485912323,0.35673606395721436,-9.737217903137207,-0.1068115234375,-1.312255859375,-0.2288818359375
9.049999900000001,-0.646434485912323,0.35673606395721436,-9.734824180603027,-0.0762939453125,-1.2969970703125,-0.1373291015625
9.069999900000001,-0.646434485912323,0.35673606395721436,-9.732429504394531,-0.0457763671875,-1.2664794921875,-0.1678466796875
9.0899999,-0.646434485912323,0.35673606395721436,-9.730035781860352,-0.0457763671875,-1.28173828125,-0.18310546875
9.1099999,-0.646434485912323,0.35673606395721436,-9.730035781860352,0,-1.3275146484375,-0.1678466796875
9.129999900000001,-0.646434485912323,0.35673606395721436,-9.727641105651855,-0.1220703125,-1.312255859375,-0.1373291015625
9.149999900000001,-0.646434485912323,0.35673606395721436,-9.730035781860352,-0.1068115234375,-1.3427734375,-0.0457763671875
9.1699999,-0.646434485912323,0.35673606395721436,-9.732429504394531,-0.1983642578125,-1.3580322265625,-0.1678466796875
9.1899999,-0.6440402865409851,0.35913026332855225,-9.734824180603027,-0.0762939453125,-1.2664794921875,-0.1678466796875
9.209999900000001,-0.6440402865409851,0.35913026332855225,-9.737217903137207,0,-1.28173828125,-0.1678466796875
9.229999900000001,-0.6416460275650024,0.36152446269989014,-9.737217903137207,0.0152587890625,-1.2969970703125,-0.18310546875
9.2499999,-0.6440402865409851,0.35913026332855225,-9.737217903137207,-0.0457763671875,-1.2969970703125,-0.213623046875
9.2699999,-0.6440402865409851,0.35913026332855225,-9.737217903137207,-0.1068115234375,-1.2969970703125,-0.18310546875
9.2899999,-0.646434485912323,0.35913026332855225,-9.737217903137207,-0.0762939453125,-1.28173828125,-0.1983642578125
9.309999900000001,-0.646434485912323,0.35913026332855225,-9.737217903137207,-0.030517578125,-1.2664794921875,-0.1678466796875
9.3299999,-0.6440402865409851,0.35913026332855225,-9.734824180603027,-0.0457763671875,-1.3580322265625,-0.1220703125
9.3499999,-0.6440402865409851,0.36152446269989014,-9.734824180603027,-0.0762939453125,-1.312255859375,-0.1220703125
9.3699999,-0.6392518281936646,0.36152446269989014,-9.732429504394531,-0.0762939453125,-1.2969970703125,-0.1068115234375
9.389999900000001,-0.6392518281936646,0.36152446269989014,-9.734824180603027,-0.1068115234375,-1.2969970703125,-0.213623046875
9.4099999,-0.6392518281936646,0.35913026332855225,-9.734824180603027,-0.06103515625,-1.2969970703125,-0.213623046875
9.4299999,-0.6416460275650024,0.35673606395721436,-9.737217903137207,-0.06103515625,-1.2664794921875,-0.152587890625
9.4499999,-0.6416460275650024,0.35434186458587646,-9.739612579345703,-0.06103515625,-1.28173828125,-0.1678466796875
9.469999900000001,-0.6440402865409851,0.3519476354122162,-9.739612579345703,-0.06103515625,-1.312255859375,-0.0457763671875
9.4899999,-0.646434485912323,0.35434186458587646,-9.737217903137207,-0.0457763671875,-1.28173828125,-0.091552734375
9.5099999,-0.646434485912323,0.35673606395721436,-9.734824180603027,-0.1220703125,-1.2664794921875,-0.18310546875
9.5299999,-0.646434485912323,0.35913026332855225,-9.734824180603027,-0.06103515625,-1.3275146484375,-0.1373291015625
9.549999900000001,-0.6488286852836609,0.35913026332855225,-9.732429504394531,-0.0457763671875,-1.312255859375,-0.18310546875
9.569999900000001,-0.646434485912323,0.35913026332855225,-9.734824180603027,-0.0457763671875,-1.312255859375,-0.091552734375
9.5899999,-0.646434485912323,0.35913026332855225,-9.737217903137207,-0.06103515625,-1.3580322265625,-0.1068115234375
9.6099999,-0.646434485912323,0.35913026332855225,-9.739612579345703,0.0457763671875,-1.312255859375,-0.1678466796875
9.629999900000001,-0.646434485912323,0.36152446269989014,-9.739612579345703,-0.0457763671875,-1.312255859375,-0.18310546875
9.649999900000001,-0.646434485912323,0.35913026332855225,-9.739612579345703,-0.06103515625,-1.312255859375,-0.2593994140625
9.6699999,-0.6440402865409851,0.35913026332855225,-9.737217903137207,-0.030517578125,-1.3580322265625,-0.18310546875
9.6899999,-0.6440402865409851,0.35673606395721436,-9.737217903137207,-0.0152587890625,-1.2664794921875,-0.1373291015625
9.709999900000001,-0.6440402865409851,0.35673606395721436,-9.737217903137207,-0.091552734375,-1.28173828125,-0.1068115234375
9.729999900000001,-0.6440402865409851,0.35673606395721436,-9.737217903137207,-0.0152587890625,-1.2969970703125,-0.1068115234375
9.7499999,-0.6440402865409851,0.35673606395721436,-9.737217903137207,-0.030517578125,-1.3580322265625,-0.1068115234375
9.7699999,-0.6440402865409851,0.35673606395721436,-9.737217903137207,-0.091552734375,-1.3427734375,-0.1068115234375
9.7899999,-0.646434485912323,0.35673606395721436,-9.734824180603027,-0.030517578125,-1.28173828125,-0.18310546875
9.809999900000001,-0.6440402865409851,0.35673606395721436,-9.734824180603027,-0.152587890625,-1.312255859375,-0.1983642578125
9.8299999,-0.646434485912323,0.35673606395721436,-9.734824180603027,-0.1373291015625,-1.2664794921875,-0.1068115234375
9.8499999,-0.6440402865409851,0.35434186458587646,-9.734824180603027,-0.0152587890625,-1.28173828125,-0.18310546875
9.8699999,-0.646434485912323,0.35434186458587646,-9.734824180603027,0.0152587890625,-1.312255859375,-0.18310546875
9.889999900000001,-0.6440402865409851,0.3519476354122162,-9.734824180603027,-0.030517578125,-1.373291015625,-0.1983642578125
9.9099999,-0.6440402865409851,0.3495534360408783,-9.734824180603027,-0.06103515625,-1.3275146484375,-0.152587890625
9.9299999,-0.6416460275650024,0.3495534360408783,-9.734824180603027,0.030517578125,-1.3275146484375,-0.2288818359375
9.9499999,-0.646434485912323,0.35434186458587646,-9.734824180603027,-0.0762939453125,-1.2664794921875,-0.18310546875
9.969999900000001,-0.6488286852836609,0.35434186458587646,-9.734824180603027,-0.091552734375,-1.220703125,-0.152587890625
9.9899999,-0.646434485912323,0.35673606395721436,-9.734824180603027,0.0457763671875,-1.220703125,-0.152587890625
10.0099999,-0.646434485912323,0.35673606395721436,-9.734824180603027,-0.06103515625,-1.312255859375,-0.1068115234375
10.0299999,-0.6440402865409851,0.35673606395721436,-9.734824180603027,-0.1220703125,-1.312255859375,-0.1678466796875
10.049999900000001,-0.646434485912323,0.35673606395721436,-9.737217903137207,-0.06103515625,-1.28173828125,-0.2288818359375
10.069999900000001,-0.6488286852836609,0.35673606395721436,-9.737217903137207,0.0457763671875,-1.28173828125,-0.18310546875
10.0899999,-0.6512228846549988,0.35434186458587646,-9.739612579345703,-0.06103515625,-1.3427734375,-0.091552734375
10.1099999,-0.6488286852836609,0.35434186458587646,-9.742006301879883,-0.152587890625,-1.2969970703125,-0.2288818359375
10.129999900000001,-0.6488286852836609,0.3519476354122162,-9.744400978088379,-0.030517578125,-1.2359619140625,-0.213623046875
10.149999900000001,-0.6488286852836609,0.3519476354122162,-9.742006301879883,-0.030517578125,-1.251220703125,-0.1678466796875
10.1699999,-0.6488286852836609,0.35434186458587646,-9.739612579345703,-0.091552734375,-1.2969970703125,-0.1220703125
10.1899999,-0.646434485912323,0.3519476354122162,-9.737217903137207,-0.091552734375,-1.220703125,-0.152587890625
10.209999900000001,-0.6440402865409851,0.3519476354122162,-9.734824180603027,-0.0152587890625,-1.312255859375,-0.1373291015625
10.229999900000001,-0.6440402865409851,0.3519476354122162,-9.734824180603027,-0.091552734375,-1.312255859375,-0.1068115234375
10.2499999,-0.6440402865409851,0.3519476354122162,-9.734824180603027,-0.1068115234375,-1.3275146484375,-0.1220703125
10.2699999,-0.6440402865409851,0.35434186458587646,-9.734824180603027,-0.0152587890625,-1.2664794921875,-0.1220703125
10.2899999,-0.646434485912323,0.35434186458587646,-9.734824180603027,0.030517578125,-1.3275146484375,-0.1373291015625
10.309999900000001,-0.6440402865409851,0.35673606395721436,-9.734824180603027,-0.1373291015625,-1.3885498046875,-0.18310546875
10.3299999,-0.6488286852836609,0.35434186458587646,-9.734824180603027,-0.1068115234375,-1.3885498046875,-0.1068115234375
10.3499999,-0.6512228846549988,0.35434186458587646,-9.737217903137207,-0.0152587890625,-1.220703125,-0.2288818359375
10.3699999,-0.6512228846549988,0.3519476354122162,-9.734824180603027,0.0152587890625,-1.28173828125,-0.1373291015625
10.389999900000001,-0.6512228846549988,0.3519476354122162,-9.734824180603027,-0.1068115234375,-1.3580322265625,-0.06103515625
10.4099999,-0.6488286852836609,0.3519476354122162,-9.734824180603027,-0.0457763671875,-1.251220703125,-0.152587890625
10.4299999,-0.6440402865409851,0.3519476354122162,-9.734824180603027,-0.0152587890625,-1.1749267578125,-0.1373291015625
10.4499999,-0.6416460275650024,0.35673606395721436,-9.737217903137207,-0.06103515625,-1.28173828125,-0.1068115234375
10.469999900000001,-0.6392518281936646,0.35673606395721436,-9.737217903137207,-0.091552734375,-1.2969970703125,-0.1983642578125
10.4899999,-0.6392518281936646,0.35673606395721436,-9.739612579345703,-0.0152587890625,-1.2969970703125,-0.1678466796875
10.5099999,-0.6416460275650024,0.35913026332855225,-9.739612579345703,-0.06103515625,-1.312255859375,-0.1373291015625
10.5299999,-0.6440402865409851,0.35913026332855225,-9.739612579345703,-0.0762939453125,-1.2664794921875,-0.1983642578125
10.549999900000001,-0.646434485912323,0.363918662071228,-9.739612579345703,-0.030517578125,-1.2664794921875,-0.1373291015625
10.569999900000001,-0.646434485912323,0.363918662071228,-9.742006301879883,0.0457763671875,-1.3580322265625,-0.2593994140625
10.5899999,-0.646434485912323,0.363918662071228,-9.744400978088379,0.1068115234375,-1.40380859375,-0.152587890625
10.6099999,-0.646434485912323,0.363918662071228,-9.744400978088379,0.0457763671875,-1.40380859375,-0.091552734375
10.629999900000001,-0.646434485912323,0.36152446269989014,-9.742006301879883,0.1983642578125,-1.4495849609375,-0.18310546875
10.649999900000001,-0.6488286852836609,0.35913026332855225,-9.739612579345703,0.30517578125,-1.5106201171875,-0.274658203125
10.6699999,-0.646434485912323,0.35434186458587646,-9.734824180603027,0.1983642578125,-1.4495849609375,-0.213623046875
10.6899999,-0.646434485912323,0.3471592366695404,-9.732429504394531,0.2288818359375,-1.46484375,-0.244140625
10.709999900000001,-0.646434485912323,0.3447650372982025,-9.732429504394531,0.152587890625,-1.495361328125,-0.244140625
10.729999900000001,-0.646434485912323,0.3447650372982025,-9.730035781860352,0.091552734375,-1.4495849609375,-0.152587890625
10.7499999,-0.6488286852836609,0.3471592366695404,-9.727641105651855,0.1068115234375,-1.2969970703125,-0.213623046875
10.7699999,-0.6536170840263367,0.3471592366695404,-9.727641105651855,0.0152587890625,-1.2359619140625,-0.1220703125
10.7899999,-0.6536170840263367,0.3447650372982025,-9.727641105651855,-0.1373291015625,-1.312255859375,-0.0762939453125
10.809999900000001,-0.6512228846549988,0.3447650372982025,-9.730035781860352,-0.0457763671875,-1.28173828125,-0.1373291015625
10.8299999,-0.6512228846549988,0.3471592366695404,-9.734824180603027,0.06103515625,-1.28173828125,-0.274658203125
10.8499999,-0.6512228846549988,0.3495534360408783,-9.739612579345703,0.0152587890625,-1.2359619140625,-0.213623046875
10.8699999,-0.6512228846549988,0.3495534360408783,-9.742006301879883,-0.152587890625,-1.312255859375,-0.152587890625
10.889999900000001,-0.6488286852836609,0.3495534360408783,-9.744400978088379,-0.1678466796875,-1.251220703125,-0.18310546875
10.9099999,-0.6488286852836609,0.3519476354122162,-9.742006301879883,-0.030517578125,-1.3427734375,-0.2288818359375
10.9299999,-0.6488286852836609,0.35673606395721436,-9.739612579345703,0.0152587890625,-1.434326171875,-0.152587890625
10.9499999,-0.6512228846549988,0.35673606395721436,-9.734824180603027,-0.0152587890625,-1.3580322265625,-0.152587890625
10.969999900000001,-0.6512228846549988,0.35434186458587646,-9.734824180603027,-0.06103515625,-1.2359619140625,-0.152587890625
10.9899999,-0.6512228846549988,0.3495534360408783,-9.732429504394531,-0.1220703125,-1.251220703125,-0.152587890625
11.0099999,-0.6512228846549988,0.3471592366695404,-9.734824180603027,-0.1678466796875,-1.312255859375,-0.1678466796875
11.0299999,-0.6512228846549988,0.3471592366695404,-9.734824180603027,-0.0152587890625,-1.373291015625,-0.1678466796875
11.049999900000001,-0.6536170840263367,0.3471592366695404,-9.737217903137207,0,-1.251220703125,-0.1983642578125
11.069999900000001,-0.6512228846549988,0.3471592366695404,-9.739612579345703,-0.030517578125,-1.2359619140625,-0.1220703125
11.0899999,-0.6488286852836609,0.3495534360408783,-9.739612579345703,-0.091552734375,-1.373291015625,-0.152587890625
11.1099999,-0.646434485912323,0.3495534360408783,-9.739612579345703,0.0152587890625,-1.3427734375,-0.152587890625
11.129999900000001,-0.646434485912323,0.3519476354122162,-9.739612579345703,0.030517578125,-1.251220703125,-0.1983642578125
11.149999900000001,-0.646434485912323,0.3519476354122162,-9.737217903137207,-0.030517578125,-1.2664794921875,-0.1373291015625
11.1699999,-0.646434485912323,0.3495534360408783,-9.737217903137207,-0.030517578125,-1.312255859375,-0.152587890625
11.1899999,-0.646434485912323,0.3495534360408783,-9.737217903137207,0.030517578125,-1.2664794921875,-0.152587890625
11.209999900000001,-0.6488286852836609,0.3495534360408783,-9.737217903137207,-0.0457763671875,-1.2054443359375,-0.18310546875
11.229999900000001,-0.6536170840263367,0.3519476354122162,-9.737217903137207,-0.091552734375,-1.251220703125,-0.152587890625
11.2499999,-0.6536170840263367,0.35434186458587646,-9.737217903137207,-0.0152587890625,-1.2664794921875,-0.1983642578125
11.2699999,-0.6536170840263367,0.3519476354122162,-9.737217903137207,0.0457763671875,-1.3580322265625,-0.1983642578125
11.2899999,-0.6536170840263367,0.3495534360408783,-9.739612579345703,-0.0457763671875,-1.373291015625,-0.152587890625
11.309999900000001,-0.6512228846549988,0.3447650372982025,-9.737217903137207,-0.091552734375,-1.312255859375,-0.1373291015625
11.3299999,-0.6536170840263367,0.3423708379268646,-9.739612579345703,-0.0457763671875,-1.2664794921875,-0.1678466796875
11.3499999,-0.6512228846549988,0.3423708379268646,-9.739612579345703,-0.0152587890625,-1.2359619140625,-0.18310546875
11.3699999,-0.6536170840263367,0.3423708379268646,-9.739612579345703,-0.0457763671875,-1.312255859375,-0.1373291015625
11.389999900000001,-0.6512228846549988,0.3447650372982025,-9.739612579345703,-0.06103515625,-1.190185546875,-0.1678466796875
11.4099999,-0.6512228846549988,0.3471592366695404,-9.742006301879883,-0.0762939453125,-1.2359619140625,-0.18310546875
11.4299999,-0.6512228846549988,0.3495534360408783,-9.742006301879883,-0.091552734375,-1.2969970703125,-0.1220703125
11.4499999,-0.6512228846549988,0.3495534360408783,-9.739612579345703,-0.0457763671875,-1.28173828125,-0.091552734375
11.469999900000001,-0.6488286852836609,0.3471592366695404,-9.739612579345703,0.0457763671875,-1.28173828125,-0.1068115234375
11.4899999,-0.6512228846549988,0.3471592366695404,-9.737217903137207,0.0457763671875,-1.3275146484375,-0.06103515625
11.5099999,-0.6536170840263367,0.3447650372982025,-9.737217903137207,-0.0457763671875,-1.28173828125,-0.18310546875
11.5299999,-0.6560112833976746,0.3471592366695404,-9.737217903137207,-0.0152587890625,-1.3275146484375,-0.18310546875
11.549999900000001,-0.6560112833976746,0.3447650372982025,-9.737217903137207,-0.030517578125,-1.4190673828125,-0.18310546875
11.569999900000001,-0.6536170840263367,0.3471592366695404,-9.739612579345703,-0.0457763671875,-1.3580322265625,-0.213623046875
11.5899999,-0.6536170840263367,0.3471592366695404,-9.742006301879883,-0.091552734375,-1.3427734375,-0.1678466796875
11.6099999,-0.6536170840263367,0.3447650372982025,-9.744400978088379,-0.1068115234375,-1.2969970703125,-0.152587890625
11.629999900000001,-0.6512228846549988,0.3471592366695404,-9.746794700622559,-0.0457763671875,-1.2969970703125,-0.1678466796875
11.649999900000001,-0.6536170840263367,0.3471592366695404,-9.744400978088379,-0.0152587890625,-1.3580322265625,-0.1678466796875
11.6699999,-0.6560112833976746,0.3495534360408783,-9.744400978088379,-0.06103515625,-1.3580322265625,-0.1220703125
11.6899999,-0.6584054827690125,0.3519476354122162,-9.742006301879883,-0.0762939453125,-1.2359619140625,-0.152587890625
11.709999900000001,-0.6631938815116882,0.3519476354122162,-9.742006301879883,-0.030517578125,-1.2359619140625,-0.213623046875
11.729999900000001,-0.6631938815116882,0.3519476354122162,-9.742006301879883,-0.0762939453125,-1.312255859375,-0.18310546875
11.7499999,-0.6607996821403503,0.3519476354122162,-9.739612579345703,-0.06103515625,-1.2664794921875,-0.18310546875
11.7699999,-0.6584054827690125,0.3495534360408783,-9.739612579345703,-0.030517578125,-1.312255859375,-0.152587890625
11.7899999,-0.6536170840263367,0.3471592366695404,-9.737217903137207,-0.0457763671875,-1.312255859375,-0.152587890625
11.809999900000001,-0.6488286852836609,0.3447650372982025,-9.737217903137207,-0.06103515625,-1.312255859375,-0.1220703125
11.8299999,-0.646434485912323,0.3447650372982025,-9.739612579345703,0.0152587890625,-1.28173828125,-0.18310546875
11.8499999,-0.646434485912323,0.3447650372982025,-9.739612579345703,0.0152587890625,-1.312255859375,-0.1220703125
11.8699999,-0.6488286852836609,0.3471592366695404,-9.739612579345703,-0.0457763671875,-1.3275146484375,-0.1068115234375
11.889999900000001,-0.6488286852836609,0.3471592366695404,-9.739612579345703,-0.1373291015625,-1.312255859375,-0.0762939453125
11.9099999,-0.6512228846549988,0.3495534360408783,-9.739612579345703,-0.06103515625,-1.2969970703125,-0.1373291015625
11.9299999,-0.6488286852836609,0.3519476354122162,-9.739612579345703,-0.030517578125,-1.312255859375,-0.18310546875
11.9499999,-0.6488286852836609,0.3519476354122162,-9.737217903137207,-0.1220703125,-1.312255859375,-0.152587890625
11.969999900000001,-0.6488286852836609,0.3519476354122162,-9.734824180603027,-0.0152587890625,-1.40380859375,-0.213623046875
11.9899999,-0.6512228846549988,0.3495534360408783,-9.734824180603027,-0.091552734375,-1.3427734375,-0.1068115234375
12.0099999,-0.6488286852836609,0.3471592366695404,-9.732429504394531,-0.0457763671875,-1.3275146484375,-0.152587890625
12.0299999,-0.6488286852836609,0.3447650372982025,-9.732429504394531,-0.030517578125,-1.312255859375,-0.152587890625
12.049999900000001,-0.6512228846549988,0.3423708379268646,-9.734824180603027,-0.1068115234375,-1.2969970703125,-0.1220703125
12.069999900000001,-0.6512228846549988,0.3447650372982025,-9.737217903137207,-0.06103515625,-1.2969970703125,-0.152587890625
12.0899999,-0.6488286852836609,0.3471592366695404,-9.737217903137207,-0.1068115234375,-1.3275146484375,-0.152587890625
12.1099999,-0.6488286852836609,0.3495534360408783,-9.737217903137207,-0.1220703125,-1.2969970703125,-0.18310546875
12.129999900000001,-0.646434485912323,0.3519476354122162,-9.737217903137207,-0.030517578125,-1.3275146484375,-0.1068115234375
12.149999900000001,-0.646434485912323,0.3519476354122162,-9.734824180603027,-0.0762939453125,-1.312255859375,-0.1220703125
12.1699999,-0.6488286852836609,0.3519476354122162,-9.732429504394531,-0.030517578125,-1.2969970703125,-0.1983642578125
12.1899999,-0.6512228846549988,0.3495534360408783,-9.732429504394531,0.030517578125,-1.3885498046875,-0.1678466796875
12.209999900000001,-0.6512228846549988,0.3471592366695404,-9.732429504394531,-0.0152587890625,-1.3427734375,-0.18310546875
12.229999900000001,-0.6536170840263367,0.3447650372982025,-9.732429504394531,-0.0762939453125,-1.3275146484375,-0.18310546875
12.2499999,-0.6536170840263367,0.3447650372982025,-9.734824180603027,-0.1220703125,-1.2664794921875,-0.1373291015625
12.2699999,-0.6512228846549988,0.3471592366695404,-9.737217903137207,-0.0152587890625,-1.3427734375,-0.1220703125
12.289999900000002,-0.646434485912323,0.3447650372982025,-9.739612579345703,0.0152587890625,-1.3885498046875,-0.1373291015625
12.309999900000001,-0.646434485912323,0.3447650372982025,-9.739612579345703,-0.0762939453125,-1.373291015625,-0.152587890625
12.3299999,-0.646434485912323,0.3471592366695404,-9.737217903137207,-0.0762939453125,-1.3580322265625,-0.1373291015625
12.3499999,-0.646434485912323,0.3495534360408783,-9.739612579345703,-0.1220703125,-1.28173828125,-0.1678466796875
12.3699999,-0.6512228846549988,0.35434186458587646,-9.737217903137207,0.06103515625,-1.3580322265625,-0.1068115234375
12.389999900000001,-0.6536170840263367,0.35673606395721436,-9.739612579345703,0.030517578125,-1.3885498046875,-0.152587890625
12.4099999,-0.6560112833976746,0.35673606395721436,-9.742006301879883,-0.0762939453125,-1.434326171875,-0.152587890625
12.4299999,-0.6560112833976746,0.35913026332855225,-9.739612579345703,-0.0762939453125,-1.312255859375,-0.1373291015625
12.4499999,-0.6560112833976746,0.35673606395721436,-9.739612579345703,0.030517578125,-1.2664794921875,-0.1068115234375
12.469999900000001,-0.6536170840263367,0.3519476354122162,-9.739612579345703,0.091552734375,-1.373291015625,-0.1983642578125
12.4899999,-0.6512228846549988,0.3471592366695404,-9.739612579345703,-0.1068115234375,-1.3580322265625,-0.152587890625
12.5099999,-0.6512228846549988,0.33997663855552673,-9.742006301879883,-0.1983642578125,-1.28173828125,-0.1068115234375
12.5299999,-0.6488286852836609,0.33997663855552673,-9.742006301879883,-0.1068115234375,-1.2969970703125,-0.18310546875
12.549999900000001,-0.6512228846549988,0.3423708379268646,-9.742006301879883,-0.0152587890625,-1.2664794921875,-0.1373291015625
12.569999900000001,-0.6512228846549988,0.3471592366695404,-9.742006301879883,0.0457763671875,-1.3427734375,-0.1068115234375
12.5899999,-0.6512228846549988,0.3495534360408783,-9.742006301879883,-0.030517578125,-1.3580322265625,-0.152587890625
12.6099999,-0.6512228846549988,0.3519476354122162,-9.737217903137207,-0.1068115234375,-1.2664794921875,-0.152587890625
12.629999900000001,-0.6512228846549988,0.3519476354122162,-9.737217903137207,-0.0762939453125,-1.220703125,-0.1373291015625
12.649999900000001,-0.6512228846549988,0.3519476354122162,-9.734824180603027,0.0457763671875,-1.28173828125,-0.152587890625
12.6699999,-0.6488286852836609,0.3495534360408783,-9.734824180603027,0.0457763671875,-1.2664794921875,-0.1678466796875
12.6899999,-0.6488286852836609,0.3447650372982025,-9.732429504394531,-0.0762939453125,-1.28173828125,-0.152587890625
12.709999900000001,-0.6488286852836609,0.33997663855552673,-9.732429504394531,-0.1373291015625,-1.2969970703125,-0.1068115234375
12.729999900000001,-0.6488286852836609,0.3423708379268646,-9.732429504394531,-0.091552734375,-1.2969970703125,-0.1220703125
12.7499999,-0.6488286852836609,0.3471592366695404,-9.732429504394531,-0.030517578125,-1.28173828125,-0.213623046875
12.7699999,-0.6488286852836609,0.3519476354122162,-9.734824180603027,-0.030517578125,-1.28173828125,-0.091552734375
12.789999900000002,-0.6512228846549988,0.35434186458587646,-9.737217903137207,-0.091552734375,-1.312255859375,-0.1068115234375
12.809999900000001,-0.6512228846549988,0.3519476354122162,-9.737217903137207,-0.091552734375,-1.3275146484375,-0.1220703125
12.8299999,-0.6536170840263367,0.3519476354122162,-9.737217903137207,-0.0762939453125,-1.2969970703125,-0.2593994140625
12.8499999,-0.6536170840263367,0.35434186458587646,-9.737217903137207,-0.030517578125,-1.28173828125,-0.1678466796875
12.8699999,-0.6512228846549988,0.3519476354122162,-9.734824180603027,-0.0457763671875,-1.3885498046875,-0.0762939453125
12.889999900000001,-0.6512228846549988,0.3495534360408783,-9.734824180603027,-0.0457763671875,-1.3427734375,-0.0762939453125
12.9099999,-0.6488286852836609,0.3495534360408783,-9.734824180603027,-0.0762939453125,-1.2969970703125,-0.1220703125
12.9299999,-0.6488286852836609,0.3471592366695404,-9.734824180603027,-0.0762939453125,-1.251220703125,-0.2288818359375
12.9499999,-0.6512228846549988,0.3495534360408783,-9.734824180603027,-0.030517578125,-1.2664794921875,-0.1983642578125
12.969999900000001,-0.6512228846549988,0.3495534360408783,-9.737217903137207,0.030517578125,-1.3580322265625,-0.1678466796875
12.9899999,-0.6536170840263367,0.3495534360408783,-9.739612579345703,-0.1068115234375,-1.3427734375,-0.213623046875
13.0099999,-0.6560112833976746,0.3471592366695404,-9.742006301879883,-0.0457763671875,-1.3580322265625,-0.152587890625
13.0299999,-0.6560112833976746,0.3447650372982025,-9.742006301879883,0,-1.2664794921875,-0.18310546875
13.049999900000001,-0.6536170840263367,0.3447650372982025,-9.744400978088379,0.030517578125,-1.3427734375,-0.1373291015625
13.069999900000001,-0.6512228846549988,0.3423708379268646,-9.742006301879883,0.030517578125,-1.312255859375,-0.152587890625
13.0899999,-0.6488286852836609,0.3423708379268646,-9.742006301879883,-0.0457763671875,-1.28173828125,-0.1373291015625
13.1099999,-0.6488286852836609,0.3423708379268646,-9.739612579345703,-0.0762939453125,-1.312255859375,-0.1220703125
13.129999900000001,-0.6488286852836609,0.3447650372982025,-9.739612579345703,-0.030517578125,-1.312255859375,-0.1373291015625
13.149999900000001,-0.6488286852836609,0.3471592366695404,-9.739612579345703,0.0152587890625,-1.373291015625,-0.152587890625
13.1699999,-0.6512228846549988,0.3471592366695404,-9.739612579345703,-0.0762939453125,-1.3427734375,-0.152587890625
13.1899999,-0.6512228846549988,0.3471592366695404,-9.739612579345703,-0.1068115234375,-1.28173828125,-0.1068115234375
13.209999900000001,-0.6536170840263367,0.3495534360408783,-9.739612579345703,0,-1.2664794921875,-0.18310546875
13.229999900000001,-0.6536170840263367,0.3519476354122162,-9.737217903137207,-0.06103515625,-1.312255859375,-0.18310546875
13.2499999,-0.6536170840263367,0.35434186458587646,-9.737217903137207,-0.030517578125,-1.312255859375,-0.1678466796875
13.2699999,-0.6512228846549988,0.3519476354122162,-9.737217903137207,-0.0457763671875,-1.220703125,-0.213623046875
13.289999900000002,-0.6512228846549988,0.3495534360408783,-9.734824180603027,-0.091552734375,-1.2969970703125,-0.274658203125
13.309999900000001,-0.6512228846549988,0.3471592366695404,-9.734824180603027,-0.1068115234375,-1.3275146484375,-0.1220703125
13.3299999,-0.646434485912323,0.3495534360408783,-9.734824180603027,0,-1.3580322265625,-0.152587890625
13.3499999,-0.646434485912323,0.3495534360408783,-9.732429504394531,-0.0457763671875,-1.3275146484375,-0.1678466796875
13.3699999,-0.6440402865409851,0.3495534360408783,-9.732429504394531,-0.091552734375,-1.28173828125,-0.1983642578125
13.389999900000001,-0.6440402865409851,0.3495534360408783,-9.730035781860352,-0.1220703125,-1.3427734375,-0.091552734375
13.4099999,-0.646434485912323,0.3471592366695404,-9.732429504394531,-0.06103515625,-1.3427734375,-0.1068115234375
13.4299999,-0.6488286852836609,0.3447650372982025,-9.72285270690918,-0.06103515625,-1.312255859375,-0.1068115234375
13.4499999,-0.6560112833976746,0.33997663855552673,-9.737217903137207,-0.6561279296875,-0.9918212890625,-0.1068115234375
13.469999900000001,-0.6488286852836609,0.33997663855552673,-9.732429504394531,0.1983642578125,-0.9002685546875,-0.244140625
13.4899999,-0.6440402865409851,0.3495534360408783,-9.746794700622559,0.213623046875,-1.5106201171875,-0.2288818359375
13.5099999,-0.6488286852836609,0.3519476354122162,-9.742006301879883,-0.518798828125,-1.7852783203125,-0.030517578125
13.5299999,-0.6440402865409851,0.35434186458587646,-9.739612579345703,0.2899169921875,-1.190185546875,-0.213623046875
13.549999900000001,-0.6584054827690125,0.3447650372982025,-9.734824180603027,-0.1373291015625,-0.7171630859375,-0.1678466796875
13.569999900000001,-0.6607996821403503,0.33758243918418884,-9.732429504394531,-0.823974609375,-1.03759765625,-0.030517578125
13.5899999,-0.6584054827690125,0.33997663855552673,-9.732429504394531,-0.396728515625,-1.4190673828125,-0.091552734375
13.6099999,-0.6560112833976746,0.3471592366695404,-9.734824180603027,0.0152587890625,-1.2664794921875,-0.213623046875
13.629999900000001,-0.6560112833976746,0.3519476354122162,-9.732429504394531,0.1983642578125,-1.03759765625,-0.1678466796875
13.649999900000001,-0.6560112833976746,0.3519476354122162,-9.732429504394531,-0.5950927734375,-1.068115234375,-0.0152587890625
13.6699999,-0.6488286852836609,0.3519476354122162,-9.734824180603027,-0.5950927734375,-1.0833740234375,-0.06103515625
13.6899999,-0.6392518281936646,0.35673606395721436,-9.734824180603027,-0.06103515625,-1.1138916015625,-0.152587890625
13.709999900000001,-0.6344634294509888,0.363918662071228,-9.739612579345703,0.0152587890625,-1.2054443359375,-0.1678466796875
13.729999900000001,-0.6368576288223267,0.3663128614425659,-9.739612579345703,-0.2593994140625,-1.3580322265625,-0.0762939453125
13.7499999,-0.6416460275650024,0.363918662071228,-9.742006301879883,-0.3204345703125,-1.1444091796875,-0.152587890625
13.7699999,-0.6440402865409851,0.35913026332855225,-9.742006301879883,-0.1068115234375,-1.0223388671875,-0.244140625
13.789999900000002,-0.6440402865409851,0.35673606395721436,-9.744400978088379,-0.06103515625,-1.2664794921875,-0.18310546875
13.809999900000001,-0.646434485912323,0.35913026332855225,-9.744400978088379,-0.1678466796875,-1.373291015625,-0.1068115234375
13.8299999,-0.6488286852836609,0.35913026332855225,-9.742006301879883,-0.091552734375,-1.190185546875,-0.18310546875
13.8499999,-0.6512228846549988,0.35913026332855225,-9.742006301879883,0.0152587890625,-1.1138916015625,-0.1983642578125
13.8699999,-0.6440402865409851,0.35673606395721436,-9.739612579345703,-0.18310546875,-1.3885498046875,-0.091552734375
13.889999900000001,-0.6368576288223267,0.35673606395721436,-9.737217903137207,-0.244140625,-1.4190673828125,-0.1678466796875
13.9099999,-0.6368576288223267,0.35673606395721436,-9.737217903137207,0.030517578125,-1.3275146484375,-0.1983642578125
13.9299999,-0.6416460275650024,0.35673606395721436,-9.737217903137207,0.0457763671875,-1.220703125,-0.2288818359375
13.9499999,-0.646434485912323,0.35673606395721436,-9.737217903137207,-0.1678466796875,-1.251220703125,-0.1373291015625
13.969999900000001,-0.6488286852836609,0.35434186458587646,-9.739612579345703,-0.1983642578125,-1.3275146484375,-0.0457763671875
13.9899999,-0.6512228846549988,0.35434186458587646,-9.739612579345703,-0.06103515625,-1.312255859375,-0.1220703125
14.0099999,-0.6536170840263367,0.35673606395721436,-9.739612579345703,-0.06103515625,-1.220703125,-0.1220703125
14.0299999,-0.6512228846549988,0.36152446269989014,-9.739612579345703,-0.1983642578125,-1.251220703125,-0.1068115234375
14.049999900000001,-0.6488286852836609,0.363918662071228,-9.737217903137207,-0.030517578125,-1.2969970703125,-0.152587890625
14.069999900000001,-0.6416460275650024,0.3663128614425659,-9.737217903137207,0,-1.3580322265625,-0.1983642578125
14.0899999,-0.6416460275650024,0.3687070608139038,-9.737217903137207,-0.18310546875,-1.2969970703125,-0.1373291015625
14.1099999,-0.6416460275650024,0.3687070608139038,-9.737217903137207,-0.2288818359375,-1.129150390625,-0.1068115234375
14.129999900000001,-0.6440402865409851,0.3663128614425659,-9.734824180603027,0,-1.129150390625,-0.0762939453125
14.149999900000001,-0.646434485912323,0.3663128614425659,-9.734824180603027,0.0457763671875,-1.312255859375,-0.152587890625
14.1699999,-0.6440402865409851,0.36152446269989014,-9.734824180603027,-0.1678466796875,-1.312255859375,-0.1220703125
14.1899999,-0.6440402865409851,0.35913026332855225,-9.737217903137207,-0.1983642578125,-1.2359619140625,-0.152587890625
14.209999900000001,-0.6440402865409851,0.35913026332855225,-9.737217903137207,-0.0457763671875,-1.1749267578125,-0.2288818359375
14.229999900000001,-0.6416460275650024,0.36152446269989014,-9.737217903137207,-0.0152587890625,-1.28173828125,-0.1678466796875
14.2499999,-0.6392518281936646,0.363918662071228,-9.739612579345703,-0.1220703125,-1.312255859375,-0.1678466796875
14.2699999,-0.6368576288223267,0.363918662071228,-9.737217903137207,-0.091552734375,-1.3275146484375,-0.1983642578125
14.289999900000002,-0.6392518281936646,0.36152446269989014,-9.737217903137207,-0.030517578125,-1.2664794921875,-0.1373291015625
14.309999900000001,-0.6416460275650024,0.35913026332855225,-9.734824180603027,-0.1373291015625,-1.220703125,-0.1373291015625
14.3299999,-0.6416460275650024,0.35673606395721436,-9.732429504394531,-0.1068115234375,-1.2969970703125,-0.1373291015625
14.3499999,-0.6416460275650024,0.35913026332855225,-9.732429504394531,-0.091552734375,-1.3580322265625,-0.152587890625
14.3699999,-0.6416460275650024,0.35913026332855225,-9.732429504394531,-0.0762939453125,-1.2969970703125,-0.18310546875
14.389999900000001,-0.6416460275650024,0.36152446269989014,-9.732429504394531,-0.0762939453125,-1.28173828125,-0.152587890625
14.4099999,-0.6440402865409851,0.363918662071228,-9.734824180603027,-0.0152587890625,-1.2359619140625,-0.1678466796875
14.4299999,-0.646434485912323,0.3663128614425659,-9.737217903137207,0.0152587890625,-1.2359619140625,-0.1068115234375
14.4499999,-0.6488286852836609,0.3663128614425659,-9.737217903137207,-0.030517578125,-1.3275146484375,-0.152587890625
14.469999900000001,-0.6488286852836609,0.3663128614425659,-9.739612579345703,-0.1220703125,-1.28173828125,-0.152587890625
14.4899999,-0.6488286852836609,0.363918662071228,-9.739612579345703,-0.0457763671875,-1.3427734375,-0.1373291015625
14.5099999,-0.646434485912323,0.36152446269989014,-9.742006301879883,-0.06103515625,-1.3580322265625,-0.213623046875
14.5299999,-0.6440402865409851,0.35913026332855225,-9.742006301879883,-0.06103515625,-1.312255859375,-0.152587890625
14.549999900000001,-0.6416460275650024,0.35913026332855225,-9.742006301879883,-0.0762939453125,-1.2969970703125,-0.1983642578125
14.569999900000001,-0.6440402865409851,0.35913026332855225,-9.739612579345703,-0.091552734375,-1.251220703125,-0.18310546875
14.5899999,-0.6416460275650024,0.35913026332855225,-9.737217903137207,-0.0457763671875,-1.28173828125,-0.1983642578125
14.6099999,-0.6416460275650024,0.36152446269989014,-9.734824180603027,-0.0152587890625,-1.2969970703125,-0.1678466796875
14.629999900000001,-0.6416460275650024,0.35913026332855225,-9.734824180603027,-0.030517578125,-1.3885498046875,-0.152587890625
14.649999900000001,-0.6416460275650024,0.35673606395721436,-9.732429504394531,-0.06103515625,-1.2969970703125,-0.1373291015625
14.6699999,-0.6440402865409851,0.35434186458587646,-9.732429504394531,-0.06103515625,-1.251220703125,-0.1373291015625
14.6899999,-0.6440402865409851,0.35434186458587646,-9.734824180603027,-0.1068115234375,-1.251220703125,-0.1983642578125
14.709999900000001,-0.6416460275650024,0.35673606395721436,-9.732429504394531,-0.06103515625,-1.3275146484375,-0.1983642578125
14.729999900000001,-0.6392518281936646,0.35913026332855225,-9.734824180603027,-0.030517578125,-1.3427734375,-0.1373291015625
14.7499999,-0.6392518281936646,0.35913026332855225,-9.732429504394531,-0.0762939453125,-1.312255859375,-0.1373291015625
14.7699999,-0.6392518281936646,0.35913026332855225,-9.734824180603027,-0.18310546875,-1.2969970703125,-0.1678466796875
14.789999900000002,-0.6392518281936646,0.35673606395721436,-9.732429504394531,0,-1.251220703125,-0.213623046875
14.809999900000001,-0.6416460275650024,0.35673606395721436,-9.734824180603027,-0.030517578125,-1.2969970703125,-0.152587890625
14.8299999,-0.6416460275650024,0.35673606395721436,-9.732429504394531,-0.06103515625,-1.312255859375,-0.1373291015625
14.8499999,-0.6416460275650024,0.35434186458587646,-9.732429504394531,-0.06103515625,-1.28173828125,-0.1220703125
14.8699999,-0.6416460275650024,0.35673606395721436,-9.734824180603027,-0.0457763671875,-1.3275146484375,-0.18310546875
14.889999900000001,-0.6440402865409851,0.35673606395721436,-9.734824180603027,-0.0457763671875,-1.3275146484375,-0.1678466796875
14.9099999,-0.6440402865409851,0.35673606395721436,-9.739612579345703,-0.1068115234375,-1.312255859375,-0.1373291015625
14.9299999,-0.646434485912323,0.35673606395721436,-9.739612579345703,-0.030517578125,-1.312255859375,-0.152587890625
14.9499999,-0.6488286852836609,0.35673606395721436,-9.742006301879883,-0.0457763671875,-1.3275146484375,-0.1373291015625
14.969999900000001,-0.646434485912323,0.35673606395721436,-9.742006301879883,-0.0762939453125,-1.3427734375,-0.152587890625
14.9899999,-0.6488286852836609,0.35913026332855225,-9.739612579345703,-0.030517578125,-1.251220703125,-0.213623046875
15.0099999,-0.646434485912323,0.35913026332855225,-9.737217903137207,-0.0457763671875,-1.2969970703125,-0.1373291015625
15.0299999,-0.6488286852836609,0.35913026332855225,-9.737217903137207,-0.0762939453125,-1.3275146484375,-0.18310546875
15.049999900000001,-0.646434485912323,0.36152446269989014,-9.734824180603027,-0.030517578125,-1.2359619140625,-0.152587890625
15.069999900000001,-0.6440402865409851,0.363918662071228,-9.737217903137207,-0.0457763671875,-1.2969970703125,-0.1678466796875
15.0899999,-0.6440402865409851,0.363918662071228,-9.737217903137207,-0.091552734375,-1.3275146484375,-0.1678466796875
15.1099999,-0.6416460275650024,0.363918662071228,-9.737217903137207,-0.946044921875,-1.3275146484375,-0.18310546875
15.129999900000001,-0.6392518281936646,0.36152446269989014,-9.737217903137207,-0.823974609375,-1.4495849609375,-0.1678466796875
15.149999900000001,-0.6392518281936646,0.363918662071228,-9.734824180603027,-0.1220703125,-1.3427734375,-0.091552734375
15.1699999,-0.6392518281936646,0.363918662071228,-9.734824180603027,1.3427734375,-1.190185546875,-0.1983642578125
15.1899999,-0.6392518281936646,0.3687070608139038,-9.734824180603027,0.3662109375,-1.2969970703125,-0.1220703125
15.209999900000001,-0.6416460275650024,0.3663128614425659,-9.734824180603027,-0.213623046875,-1.2664794921875,-0.213623046875
15.229999900000001,-0.6416460275650024,0.3663128614425659,-9.739612579345703,0,-1.2664794921875,-0.1678466796875
15.2499999,-0.6392518281936646,0.363918662071228,-9.742006301879883,-0.0762939453125,-1.3427734375,-0.1678466796875
15.2699999,-0.6368576288223267,0.3663128614425659,-9.744400978088379,-0.1220703125,-1.3427734375,-0.152587890625
15.289999900000002,-0.6368576288223267,0.3663128614425659,-9.742006301879883,-0.030517578125,-1.312255859375,-0.213623046875
15.309999900000001,-0.6368576288223267,0.3663128614425659,-9.739612579345703,0,-1.2969970703125,-0.2288818359375
15.3299999,-0.6392518281936646,0.3663128614425659,-9.737217903137207,0,-1.3275146484375,-0.1678466796875
15.3499999,-0.6392518281936646,0.3663128614425659,-9.734824180603027,-0.0152587890625,-1.3885498046875,-0.1220703125
15.3699999,-0.6392518281936646,0.3663128614425659,-9.734824180603027,-0.0457763671875,-1.373291015625,-0.1220703125
15.389999900000001,-0.6416460275650024,0.3663128614425659,-9.732429504394531,1.0223388671875,-1.2664794921875,-0.274658203125
15.4099999,-0.6440402865409851,0.363918662071228,-9.734824180603027,2.8533935546875,-1.0986328125,-0.396728515625
15.4299999,-0.646434485912323,0.35673606395721436,-9.737217903137207,1.2054443359375,-1.220703125,-0.2288818359375
15.4499999,-0.646434485912323,0.3471592366695404,-9.737217903137207,0.1678466796875,-1.28173828125,-0.18310546875
15.469999900000001,-0.6440402865409851,0.3447650372982025,-9.739612579345703,-1.8310546875,-1.434326171875,-0.091552734375
15.4899999,-0.6416460275650024,0.3423708379268646,-9.742006301879883,-0.7171630859375,-1.3580322265625,-0.1373291015625
15.5099999,-0.6392518281936646,0.3423708379268646,-9.742006301879883,0.274658203125,-1.40380859375,-0.0457763671875
15.5299999,-0.6392518281936646,0.3471592366695404,-9.742006301879883,-1.5869140625,-1.4801025390625,0.030517578125
15.549999900000001,-0.6392518281936646,0.3495534360408783,-9.742006301879883,-1.5106201171875,-1.373291015625,-0.030517578125
15.569999900000001,-0.6416460275650024,0.35434186458587646,-9.737217903137207,0.823974609375,-1.2359619140625,-0.274658203125
15.5899999,-0.6416460275650024,0.35913026332855225,-9.734824180603027,0.5645751953125,-1.434326171875,-0.1220703125
15.6099999,-0.6440402865409851,0.35913026332855225,-9.732429504394531,-1.312255859375,-1.28173828125,-0.1373291015625
15.629999900000001,-0.6416460275650024,0.35913026332855225,-9.734824180603027,-0.2288818359375,-1.312255859375,-0.1678466796875
15.649999900000001,-0.6416460275650024,0.35913026332855225,-9.734824180603027,0.0152587890625,-1.2969970703125,-0.244140625
15.6699999,-0.6416460275650024,0.363918662071228,-9.734824180603027,-0.1373291015625,-1.3275146484375,-0.1678466796875
15.6899999,-0.6416460275650024,0.363918662071228,-9.737217903137207,-0.06103515625,-1.3580322265625,-0.1373291015625
15.709999900000001,-0.6440402865409851,0.3663128614425659,-9.737217903137207,-0.0762939453125,-1.3275146484375,-0.1220703125
15.729999900000001,-0.6440402865409851,0.3663128614425659,-9.737217903137207,-0.1220703125,-1.3580322265625,-0.1373291015625
15.7499999,-0.6440402865409851,0.3663128614425659,-9.737217903137207,-0.06103515625,-1.251220703125,-0.1678466796875
15.7699999,-0.6440402865409851,0.3663128614425659,-9.737217903137207,-0.1068115234375,-1.251220703125,-0.1678466796875
15.789999900000002,-0.6416460275650024,0.3687070608139038,-9.732429504394531,-1.3275146484375,-1.3885498046875,-0.1220703125
15.809999900000001,-0.6416460275650024,0.3687070608139038,-9.730035781860352,-0.885009765625,-1.3885498046875,-0.1220703125
15.8299999,-0.6416460275650024,0.3734954595565796,-9.727641105651855,-0.6256103515625,-1.28173828125,-0.1220703125
15.8499999,-0.6440402865409851,0.3711012601852417,-9.727641105651855,-0.0152587890625,-1.3580322265625,-0.091552734375
15.869999900000002,-0.6440402865409851,0.3734954595565796,-9.727641105651855,-0.0152587890625,-1.3885498046875,-0.1678466796875
15.889999900000001,-0.646434485912323,0.3734954595565796,-9.732429504394531,0.091552734375,-1.2054443359375,-0.18310546875
15.9099999,-0.6440402865409851,0.3758896589279175,-9.737217903137207,-0.2288818359375,-1.28173828125,-0.1220703125
15.9299999,-0.646434485912323,0.3758896589279175,-9.742006301879883,0.091552734375,-1.3427734375,-0.1068115234375
15.9499999,-0.6416460275650024,0.37828385829925537,-9.742006301879883,0.701904296875,-1.2664794921875,-0.152587890625
15.969999900000001,-0.6440402865409851,0.3734954595565796,-9.742006301879883,0.30517578125,-1.28173828125,-0.152587890625
15.9899999,-0.6416460275650024,0.3711012601852417,-9.739612579345703,0.1068115234375,-1.312255859375,-0.2288818359375
16.0099999,-0.6392518281936646,0.3687070608139038,-9.737217903137207,0.2288818359375,-1.3275146484375,-0.18310546875
16.0299999,-0.6392518281936646,0.3663128614425659,-9.734824180603027,0.1220703125,-1.220703125,-0.1983642578125
16.0499999,-0.6392518281936646,0.3663128614425659,-9.734824180603027,-0.152587890625,-1.312255859375,-0.1220703125
16.0699999,-0.6392518281936646,0.3663128614425659,-9.734824180603027,0.030517578125,-1.2969970703125,-0.1373291015625
16.089999900000002,-0.6416460275650024,0.3663128614425659,-9.734824180603027,0.1983642578125,-1.28173828125,-0.213623046875
16.109999900000002,-0.6416460275650024,0.3663128614425659,-9.732429504394531,0.1068115234375,-1.2969970703125,-0.2899169921875
16.1299999,-0.6416460275650024,0.3663128614425659,-9.732429504394531,-0.0152587890625,-1.312255859375,-0.1983642578125
16.1499999,-0.6416460275650024,0.363918662071228,-9.732429504394531,0,-1.312255859375,-0.152587890625
16.1699999,-0.6416460275650024,0.363918662071228,-9.732429504394531,0.0457763671875,-1.3275146484375,-0.1373291015625
16.1899999,-0.6416460275650024,0.363918662071228,-9.734824180603027,-0.06103515625,-1.2969970703125,-0.1678466796875
16.2099999,-0.6416460275650024,0.363918662071228,-9.734824180603027,-0.0457763671875,-1.373291015625,-0.1983642578125
16.2299999,-0.6392518281936646,0.363918662071228,-9.737217903137207,-0.0762939453125,-1.3427734375,-0.18310546875
16.249999900000002,-0.6416460275650024,0.363918662071228,-9.739612579345703,-0.091552734375,-1.3275146484375,-0.18310546875
16.269999900000002,-0.6416460275650024,0.363918662071228,-9.742006301879883,0.030517578125,-1.2969970703125,-0.1068115234375
16.2899999,-0.6440402865409851,0.36152446269989014,-9.742006301879883,-0.0457763671875,-1.3275146484375,-0.1220703125
16.3099999,-0.646434485912323,0.363918662071228,-9.742006301879883,-0.0152587890625,-1.28173828125,-0.1983642578125
16.3299999,-0.646434485912323,0.36152446269989014,-9.742006301879883,0.5950927734375,-1.46484375,-0.091552734375
16.3499999,-0.646434485912323,0.36152446269989014,-9.742006301879883,0.9002685546875,-1.46484375,-0.06103515625
16.3699999,-0.646434485912323,0.36152446269989014,-9.739612579345703,0.6561279296875,-1.3427734375,-0.06103515625
16.3899999,-0.646434485912323,0.35913026332855225,-9.737217903137207,1.1444091796875,-1.434326171875,-0.030517578125
16.4099999,-0.646434485912323,0.35673606395721436,-9.737217903137207,0.67138671875,-1.3427734375,-0.091552734375
16.429999900000002,-0.646434485912323,0.35434186458587646,-9.737217903137207,-0.2288818359375,-1.46484375,-0.0152587890625
16.4499999,-0.646434485912323,0.3519476354122162,-9.737217903137207,0.06103515625,-1.312255859375,-0.1373291015625
16.4699999,-0.6440402865409851,0.3495534360408783,-9.737217903137207,0.0152587890625,-1.2969970703125,-0.2288818359375
16.4899999,-0.6416460275650024,0.3471592366695404,-9.737217903137207,-0.0762939453125,-1.2664794921875,-0.2288818359375
16.5099999,-0.6416460275650024,0.3471592366695404,-9.737217903137207,-0.30517578125,-1.251220703125,-0.18310546875
16.5299999,-0.6416460275650024,0.3471592366695404,-9.737217903137207,-0.396728515625,-1.3580322265625,-0.1220703125
16.5499999,-0.6416460275650024,0.3495534360408783,-9.734824180603027,-0.152587890625,-1.3580322265625,-0.1068115234375
16.5699999,-0.6416460275650024,0.3495534360408783,-9.734824180603027,0.06103515625,-1.1444091796875,-0.2899169921875
16.589999900000002,-0.6416460275650024,0.3519476354122162,-9.734824180603027,-0.42724609375,-1.312255859375,-0.152587890625
16.609999900000002,-0.6392518281936646,0.35434186458587646,-9.734824180603027,-0.6561279296875,-1.3580322265625,-0.1068115234375
16.6299999,-0.6392518281936646,0.35434186458587646,-9.737217903137207,-0.4730224609375,-1.495361328125,-0.0762939453125
16.6499999,-0.6416460275650024,0.35673606395721436,-9.737217903137207,-0.7476806640625,-1.3275146484375,-0.18310546875
16.6699999,-0.6416460275650024,0.36152446269989014,-9.734824180603027,-0.762939453125,-1.3580322265625,-0.274658203125
16.6899999,-0.6440402865409851,0.363918662071228,-9.734824180603027,-0.1220703125,-1.15966796875,-0.1983642578125
16.7099999,-0.6416460275650024,0.3687070608139038,-9.734824180603027,-0.2593994140625,-1.190185546875,-0.2288818359375
16.7299999,-0.6416460275650024,0.3711012601852417,-9.734824180603027,-0.0457763671875,-1.3427734375,-0.1983642578125
16.749999900000002,-0.6416460275650024,0.3687070608139038,-9.734824180603027,-0.396728515625,-1.3580322265625,-0.091552734375
16.769999900000002,-0.6416460275650024,0.3663128614425659,-9.734824180603027,-0.244140625,-1.251220703125,-0.152587890625
16.7899999,-0.6416460275650024,0.363918662071228,-9.734824180603027,-1.3580322265625,-1.4801025390625,-0.18310546875
16.8099999,-0.6416460275650024,0.35673606395721436,-9.737217903137207,-0.5340576171875,-1.4190673828125,-0.1373291015625
16.8299999,-0.6392518281936646,0.36152446269989014,-9.737217903137207,0.3204345703125,-1.2054443359375,-0.8392333984375
16.8499999,-0.6416460275650024,0.36152446269989014,-9.739612579345703,0.396728515625,-1.251220703125,-0.823974609375
16.8699999,-0.6440402865409851,0.363918662071228,-9.742006301879883,-0.3662109375,-1.373291015625,-0.152587890625
16.8899999,-0.646434485912323,0.3734954595565796,-9.742006301879883,0.640869140625,-1.373291015625,-0.1068115234375
16.9099999,-0.6488286852836609,0.3758896589279175,-9.742006301879883,0.885009765625,-1.3427734375,-0.06103515625
16.929999900000002,-0.6512228846549988,0.3758896589279175,-9.739612579345703,0.5340576171875,-1.3275146484375,-0.152587890625
16.9499999,-0.6512228846549988,0.3734954595565796,-9.737217903137207,0.274658203125,-1.40380859375,-0.1068115234375
16.9699999,-0.6488286852836609,0.3663128614425659,-9.737217903137207,0.1983642578125,-1.3580322265625,-0.1373291015625
16.9899999,-0.6488286852836609,0.36152446269989014,-9.737217903137207,0.5035400390625,-1.28173828125,-0.152587890625
17.0099999,-0.6488286852836609,0.35913026332855225,-9.742006301879883,1.556396484375,-1.251220703125,-0.2593994140625
17.0299999,-0.646434485912323,0.3519476354122162,-9.744400978088379,0.1983642578125,-1.9378662109375,-0.3814697265625
17.0499999,-0.646434485912323,0.3447650372982025,-9.746794700622559,-1.4190673828125,-1.983642578125,-0.1068115234375
17.0699999,-0.6440402865409851,0.3232172429561615,-9.746794700622559,-1.5106201171875,-1.9683837890625,-0.30517578125
17.089999900000002,-0.646434485912323,0.3208230137825012,-9.742006301879883,-0.7171630859375,-1.40380859375,-1.312255859375
17.109999900000002,-0.646434485912323,0.31842881441116333,-9.739612579345703,-0.213623046875,-1.1444091796875,-1.4495849609375
17.1299999,-0.6512228846549988,0.33758243918418884,-9.737217903137207,0.6103515625,-1.3580322265625,-0.9307861328125
17.1499999,-0.6512228846549988,0.36152446269989014,-9.737217903137207,1.3885498046875,-2.0751953125,-0.7171630859375
17.1699999,-0.6560112833976746,0.37828385829925537,-9.737217903137207,0.1373291015625,-2.1514892578125,-0.6103515625
17.1899999,-0.6560112833976746,0.3926490843296051,-9.737217903137207,0.4119873046875,-1.129150390625,0.030517578125
17.2099999,-0.6584054827690125,0.38307225704193115,-9.734824180603027,1.495361328125,-1.40380859375,0.5645751953125
17.2299999,-0.6560112833976746,0.35673606395721436,-9.737217903137207,1.373291015625,-1.5869140625,-0.1678466796875
17.249999900000002,-0.6536170840263367,0.3471592366695404,-9.737217903137207,1.03759765625,-1.5411376953125,-1.03759765625
17.269999900000002,-0.6512228846549988,0.3256114423274994,-9.742006301879883,1.28173828125,-1.8310546875,0
17.2899999,-0.6536170840263367,0.33279404044151306,-9.739612579345703,0.732421875,-1.7242431640625,0.2899169921875
17.3099999,-0.6584054827690125,0.33758243918418884,-9.742006301879883,0.48828125,-1.251220703125,-0.2288818359375
17.3299999,-0.6655880808830261,0.33758243918418884,-9.751583099365234,2.044677734375,-1.46484375,-0.457763671875
17.3499999,-0.6655880808830261,0.31842881441116333,-9.763554573059082,2.166748046875,-1.556396484375,-0.2593994140625
17.3699999,-0.667982280254364,0.31364041566848755,-9.765948295593262,0.79345703125,-1.5106201171875,-0.54931640625
17.3899999,-0.667982280254364,0.3064578175544739,-9.768342971801758,0.7781982421875,-0.91552734375,-0.8087158203125
17.409999900000003,-0.6655880808830261,0.2849099934101105,-9.773131370544434,2.593994140625,-0.518798828125,-0.54931640625
17.429999900000002,-0.6631938815116882,0.272938996553421,-9.773131370544434,2.74658203125,-0.2593994140625,-1.0833740234375
17.4499999,-0.6584054827690125,0.24660277366638184,-9.77791976928711,-0.30517578125,0.152587890625,-1.6326904296875
17.4699999,-0.6584054827690125,0.2322375625371933,-9.758766174316406,-1.190185546875,0.152587890625,-1.8157958984375
17.4899999,-0.6512228846549988,0.24660277366638184,-9.732429504394531,3.11279296875,-0.9918212890625,0.30517578125
17.5099999,-0.6488286852836609,0.2561795711517334,-9.706093788146973,3.570556640625,-1.9073486328125,-1.28173828125
17.5299999,-0.6344634294509888,0.28969839215278625,-9.703699111938477,1.3580322265625,-1.4801025390625,-1.434326171875
17.5499999,-0.6344634294509888,0.2992752194404602,-9.706093788146973,0.30517578125,-1.2054443359375,0.1220703125
17.5699999,-0.6368576288223267,0.2992752194404602,-9.725247383117676,0.9613037109375,-0.579833984375,-0.4730224609375
17.589999900000002,-0.6512228846549988,0.2968810200691223,-9.737217903137207,2.105712890625,-0.946044921875,-1.708984375
17.609999900000002,-0.6584054827690125,0.28730419278144836,-9.75397777557373,0.3814697265625,-0.579833984375,-1.068115234375
17.6299999,-0.6560112833976746,0.28730419278144836,-9.75397777557373,-1.708984375,0.2899169921875,0.4730224609375
17.6499999,-0.646434485912323,0.304063618183136,-9.763554573059082,-0.1678466796875,0.0762939453125,1.220703125
17.6699999,-0.629675030708313,0.30885201692581177,-9.768342971801758,0.5645751953125,0.0152587890625,1.3580322265625
17.6899999,-0.6153098344802856,0.2825157940387726,-9.768342971801758,1.312255859375,0.4425048828125,0.9918212890625
17.7099999,-0.6129156351089478,0.2561795711517334,-9.763554573059082,1.8310546875,0.457763671875,-0.244140625
17.7299999,-0.6177040338516235,0.22505496442317963,-9.761159896850586,1.861572265625,0.0457763671875,-1.2969970703125
17.749999900000002,-0.6248866319656372,0.19871874153614044,-9.744400978088379,1.3580322265625,0.30517578125,-0.762939453125
17.769999900000002,-0.6272808313369751,0.19393034279346466,-9.734824180603027,1.89208984375,0.2288818359375,-1.190185546875
17.7899999,-0.6177040338516235,0.20350714027881622,-9.730035781860352,2.5177001953125,-0.30517578125,-1.7547607421875
17.8099999,-0.6009446382522583,0.22026655077934265,-9.725247383117676,0.7171630859375,-0.1678466796875,0.213623046875
17.8299999,-0.5889736413955688,0.23702596127986908,-9.730035781860352,-0.79345703125,-0.030517578125,1.5106201171875
17.8499999,-0.5841852426528931,0.24660277366638184,-9.720458984375,-0.48828125,-0.4730224609375,1.007080078125
17.8699999,-0.5841852426528931,0.21787235140800476,-9.718064308166504,0.1068115234375,-0.9613037109375,-0.79345703125
17.8899999,-0.6057330369949341,0.1867477297782898,-9.703699111938477,0.091552734375,-1.3580322265625,-2.4871826171875
17.909999900000003,-0.5937620401382446,0.1843535304069519,-9.715670585632324,-1.0223388671875,-1.312255859375,-1.46484375
17.929999900000002,-0.5961562395095825,0.17477671802043915,-9.730035781860352,-2.13623046875,-0.42724609375,0.0762939453125
17.9499999,-0.5793967843055725,0.20111294090747833,-9.751583099365234,-1.0986328125,-0.5950927734375,-0.152587890625
17.9699999,-0.569819986820221,0.2059013396501541,-9.758766174316406,0.732421875,-0.9613037109375,-1.5716552734375
17.9899999,-0.569819986820221,0.22505496442317963,-9.761159896850586,0.18310546875,-0.946044921875,-1.434326171875
18.0099999,-0.5578489899635315,0.24181437492370605,-9.749189376831055,-2.8533935546875,-0.54931640625,0.42724609375
18.0299999,-0.5506663918495178,0.2346317619085312,-9.75637149810791,-2.62451171875,-0.396728515625,1.1749267578125
18.0499999,-0.5578489899635315,0.23702596127986908,-9.739612579345703,-1.220703125,-0.762939453125,-0.0457763671875
18.0699999,-0.5554547905921936,0.22505496442317963,-9.730035781860352,-1.1138916015625,-1.312255859375,-1.800537109375
18.089999900000002,-0.569819986820221,0.22026655077934265,-9.710882186889648,-1.251220703125,-1.6326904296875,-1.1444091796875
18.109999900000002,-0.5770025849342346,0.2513911724090576,-9.701305389404297,-0.2899169921875,-2.1820068359375,-0.3204345703125
18.1299999,-0.5770025849342346,0.24899697303771973,-9.696516990661621,0.42724609375,-2.50244140625,-0.152587890625
18.1499999,-0.586579442024231,0.26575639843940735,-9.6989107131958,1.2359619140625,-2.9449462890625,-1.190185546875
18.1699999,-0.5961562395095825,0.2753331959247589,-9.701305389404297,1.220703125,-3.387451171875,-0.67138671875
18.1899999,-0.5961562395095825,0.2777273952960968,-9.703699111938477,-0.5645751953125,-3.631591796875,0.3509521484375
18.2099999,-0.5961562395095825,0.2753331959247589,-9.713275909423828,-0.3509521484375,-3.7841796875,0.4119873046875
18.2299999,-0.5841852426528931,0.26096799969673157,-9.730035781860352,2.1209716796875,-4.3487548828125,-0.3814697265625
18.249999900000002,-0.5817909836769104,0.24899697303771973,-9.746794700622559,2.655029296875,-4.0130615234375,-0.8697509765625
18.269999900000002,-0.5937620401382446,0.26096799969673157,-9.758766174316406,0.579833984375,-3.1890869140625,0.67138671875
18.2899999,-0.6105214357376099,0.26575639843940735,-9.763554573059082,-1.52587890625,-2.685546875,2.3193359375
18.3099999,-0.6320692300796509,0.2777273952960968,-9.768342971801758,-1.1444091796875,-2.7008056640625,1.312255859375
18.3299999,-0.6320692300796509,0.23942017555236816,-9.780313491821289,-0.579833984375,-2.4261474609375,1.129150390625
18.3499999,-0.646434485912323,0.19871874153614044,-9.80904483795166,-0.4730224609375,-1.6632080078125,4.7607421875
18.3699999,-0.6224924325942993,0.1604115068912506,-9.873687744140625,0.3814697265625,0.30517578125,2.50244140625
18.3899999,-0.5602431893348694,0.12689268589019775,-9.974244117736816,1.8463134765625,3.814697265625,0.2288818359375
18.409999900000003,-0.5123591423034668,0.10773907601833344,-10.06043529510498,2.4566650390625,8.48388671875,1.2054443359375
18.429999900000002,-0.4620809257030487,0.11971008777618408,-10.079588890075684,2.2735595703125,9.21630859375,1.861572265625
18.4499999,-0.4596867263317108,0.1364694982767105,-10.010157585144043,6.683349609375,8.514404296875,1.1444091796875
18.4699999,-0.49320554733276367,0.17477671802043915,-9.86650562286377,7.659912109375,5.8135986328125,0.54931640625
18.4899999,-0.5147533416748047,0.2106897532939911,-9.713275909423828,5.523681640625,3.2196044921875,0.3814697265625
18.5099999,-0.5291185975074768,0.2346317619085312,-9.59835433959961,4.638671875,3.0670166015625,1.2664794921875
18.5299999,-0.5386953949928284,0.22505496442317963,-9.524134635925293,2.25830078125,1.6326904296875,1.007080078125
18.5499999,-0.5506663918495178,0.2106897532939911,-9.476250648498535,1.6021728515625,0.1220703125,-0.54931640625
18.5699999,-0.5674257874488831,0.19153612852096558,-9.454702377319336,0.48828125,-1.7242431640625,-1.739501953125
18.589999900000002,-0.5578489899635315,0.17477671802043915,-9.478644371032715,-1.0833740234375,-2.6702880859375,-1.1444091796875
18.609999900000002,-0.5363011956214905,0.18914192914962769,-9.533711433410645,-2.288818359375,-2.9144287109375,0.4425048828125
18.6299999,-0.5003881454467773,0.17238251864910126,-9.619902610778809,-3.3111572265625,-2.838134765625,0.457763671875
18.6499999,-0.47884035110473633,0.14844051003456116,-9.708487510681152,-2.5177001953125,-2.655029296875,-1.03759765625
18.6699999,-0.4596867263317108,0.11971008777618408,-9.765948295593262,-1.52587890625,-3.204345703125,-1.0986328125
18.6899999,-0.44771572947502136,0.1149216815829277,-9.818621635437012,-0.3204345703125,-2.9754638671875,-1.0223388671875
18.7099999,-0.44532153010368347,0.1173158809542656,-9.830592155456543,-0.79345703125,-2.4871826171875,0.67138671875
18.7299999,-0.44532153010368347,0.14604631066322327,-9.830592155456543,0.0457763671875,-2.38037109375,0.9918212890625
18.749999900000002,-0.45250412821769714,0.14844051003456116,-9.81143856048584,0.6866455078125,-2.38037109375,-0.030517578125
18.769999900000002,-0.4644751250743866,0.13407529890537262,-9.78989028930664,-0.7171630859375,-2.3040771484375,-1.129150390625
18.7899999,-0.4812345504760742,0.12689268589019775,-9.768342971801758,-1.6937255859375,-2.3193359375,-1.5411376953125
18.8099999,-0.5003881454467773,0.13168109953403473,-9.744400978088379,-1.861572265625,-2.38037109375,-0.8392333984375
18.8299999,-0.5099649429321289,0.14844051003456116,-9.742006301879883,-0.0152587890625,-2.62451171875,-0.7171630859375
18.8499999,-0.5171475410461426,0.1628057211637497,-9.749189376831055,1.28173828125,-2.288818359375,-1.0986328125
18.8699999,-0.5123591423034668,0.17717093229293823,-9.763554573059082,1.6937255859375,-1.6021728515625,-0.7781982421875
18.8899999,-0.507570743560791,0.17956513166427612,-9.775525093078613,1.129150390625,-1.46484375,-0.152587890625
18.909999900000003,-0.5003881454467773,0.16519992053508759,-9.770736694335938,-0.1373291015625,-1.7242431640625,-0.0762939453125
18.929999900000002,-0.5027823448181152,0.15562310814857483,-9.763554573059082,0.213623046875,-2.0599365234375,-1.373291015625
18.9499999,-0.5003881454467773,0.12689268589019775,-9.765948295593262,0.6561279296875,-1.64794921875,-1.6937255859375
18.9699999,-0.5051765441894531,0.12928688526153564,-9.768342971801758,1.495361328125,-1.1138916015625,-1.03759765625
18.9899999,-0.507570743560791,0.1364694982767105,-9.770736694335938,1.46484375,-1.0833740234375,-0.0457763671875
19.0099999,-0.5147533416748047,0.1604115068912506,-9.763554573059082,1.1749267578125,-1.2664794921875,0.2288818359375
19.0299999,-0.5171475410461426,0.17477671802043915,-9.761159896850586,1.3885498046875,-1.28173828125,0.0457763671875
19.0499999,-0.5003881454467773,0.1628057211637497,-9.751583099365234,0.9307861328125,-1.129150390625,0.7171630859375
19.0699999,-0.5099649429321289,0.14844051003456116,-9.744400978088379,0.9765625,-1.220703125,-0.1373291015625
19.089999900000002,-0.49559974670410156,0.1149216815829277,-9.744400978088379,0.18310546875,-1.5716552734375,-0.396728515625
19.109999900000002,-0.5003881454467773,0.10055647045373917,-9.749189376831055,0.152587890625,-1.6021728515625,-0.244140625
19.1299999,-0.5051765441894531,0.09576806426048279,-9.758766174316406,-0.06103515625,-0.8392333984375,0.518798828125
19.1499999,-0.5099649429321289,0.0933738648891449,-9.761159896850586,0.4730224609375,-0.579833984375,0.4119873046875
19.1699999,-0.5147533416748047,0.10055647045373917,-9.763554573059082,0.9613037109375,-1.373291015625,-0.701904296875
19.1899999,-0.5315127968788147,0.10295066982507706,-9.746794700622559,0.2288818359375,-1.373291015625,-0.7476806640625
19.2099999,-0.5363011956214905,0.12210428714752197,-9.737217903137207,-0.3662109375,-1.190185546875,-0.30517578125
19.2299999,-0.5339069962501526,0.11013327538967133,-9.734824180603027,-0.762939453125,-1.5106201171875,0.030517578125
19.249999900000002,-0.5291185975074768,0.12210428714752197,-9.746794700622559,-0.091552734375,-1.6326904296875,-1.068115234375
19.269999900000002,-0.5219359993934631,0.10534487664699554,-9.75397777557373,1.03759765625,-1.1138916015625,-1.007080078125
19.2899999,-0.5171475410461426,0.1149216815829277,-9.761159896850586,1.3427734375,-1.0833740234375,-0.54931640625
19.3099999,-0.5147533416748047,0.1149216815829277,-9.761159896850586,0.8392333984375,-1.3427734375,-0.3204345703125
19.3299999,-0.5147533416748047,0.11971008777618408,-9.758766174316406,0.42724609375,-1.434326171875,-0.5645751953125
19.3499999,-0.5099649429321289,0.10773907601833344,-9.758766174316406,0.6866455078125,-1.068115234375,-0.640869140625
19.3699999,-0.5123591423034668,0.09576806426048279,-9.761159896850586,1.03759765625,-0.9613037109375,-0.457763671875
19.3899999,-0.507570743560791,0.09576806426048279,-9.763554573059082,1.1749267578125,-1.007080078125,-0.5645751953125
19.409999900000003,-0.5027823448181152,0.09816227108240128,-9.758766174316406,0.732421875,-1.0528564453125,-0.0762939453125
19.429999900000002,-0.5003881454467773,0.09576806426048279,-9.749189376831055,0.274658203125,-1.1138916015625,0.1983642578125
19.4499999,-0.49799394607543945,0.07900865375995636,-9.739612579345703,0.5340576171875,-1.373291015625,-0.396728515625
19.4699999,-0.507570743560791,0.07182604819536209,-9.730035781860352,0.640869140625,-1.739501953125,-1.2359619140625
19.4899999,-0.5123591423034668,0.06464344263076782,-9.72285270690918,0.2288818359375,-1.983642578125,-0.5340576171875
19.5099999,-0.5171475410461426,0.08379705995321274,-9.730035781860352,0.42724609375,-2.0599365234375,-0.1678466796875
19.5299999,-0.5171475410461426,0.0933738648891449,-9.732429504394531,0.274658203125,-1.7242431640625,0.5645751953125
19.5499999,-0.507570743560791,0.09576806426048279,-9.744400978088379,0.54931640625,-1.861572265625,-0.0457763671875
19.5699999,-0.5051765441894531,0.07661445438861847,-9.751583099365234,0.06103515625,-1.9683837890625,-0.8087158203125
19.589999900000002,-0.507570743560791,0.07422025501728058,-9.75397777557373,0.732421875,-2.1209716796875,-0.5340576171875
19.609999900000002,-0.5099649429321289,0.06703764945268631,-9.75637149810791,1.15966796875,-2.13623046875,0.1983642578125
19.6299999,-0.5291185975074768,0.0694318488240242,-9.749189376831055,0.6561279296875,-2.1820068359375,-0.0762939453125
19.6499999,-0.5602431893348694,0.06464344263076782,-9.732429504394531,-0.3509521484375,-2.4566650390625,-0.6561279296875
19.6699999,-0.5674257874488831,0.05027823522686958,-9.737217903137207,-0.885009765625,-2.655029296875,-0.335693359375
19.6899999,-0.5674257874488831,0.0454898327589035,-9.744400978088379,-0.244140625,-2.2125244140625,-0.0457763671875
19.7099999,-0.5410895943641663,0.05027823522686958,-9.763554573059082,0.3662109375,-1.5716552734375,-0.30517578125
19.7299999,-0.5123591423034668,0.05267243832349777,-9.775525093078613,0.244140625,-1.495361328125,-0.396728515625
19.749999900000002,-0.5147533416748047,0.06703764945268631,-9.768342971801758,-0.4119873046875,-2.0294189453125,-0.5035400390625
19.769999900000002,-0.5099649429321289,0.07661445438861847,-9.765948295593262,-0.396728515625,-2.3040771484375,-0.091552734375
19.7899999,-0.524330198764801,0.06703764945268631,-9.758766174316406,0,-1.40380859375,0.1220703125
19.8099999,-0.524330198764801,0.07182604819536209,-9.758766174316406,0.518798828125,-1.1138916015625,-0.640869140625
19.8299999,-0.5291185975074768,0.05267243832349777,-9.761159896850586,0.06103515625,-1.6632080078125,-1.15966796875
19.8499999,-0.5386953949928284,0.047884032130241394,-9.75637149810791,-0.3662109375,-1.7852783203125,-0.701904296875
19.8699999,-0.5530605912208557,0.05506663769483566,-9.75397777557373,-0.244140625,-1.434326171875,-0.5645751953125
19.8899999,-0.5578489899635315,0.06464344263076782,-9.761159896850586,0.30517578125,-1.0986328125,-0.244140625
19.909999900000003,-0.5554547905921936,0.07900865375995636,-9.758766174316406,0.6256103515625,-1.03759765625,-0.244140625
19.929999900000002,-0.5482721924781799,0.09576806426048279,-9.746794700622559,0.1678466796875,-1.434326171875,0.335693359375
19.9499999,-0.5386953949928284,0.08140286058187485,-9.739612579345703,-0.946044921875,-1.861572265625,0.701904296875
19.9699999,-0.5386953949928284,0.07182604819536209,-9.730035781860352,-0.762939453125,-2.0294189453125,-0.6256103515625
19.9899999,-0.5410895943641663,0.06224924325942993,-9.742006301879883,0.2288818359375,-1.77001953125,-1.434326171875
20.0099999,-0.545877993106842,0.06224924325942993,-9.751583099365234,0.91552734375,-1.40380859375,-0.213623046875
20.0299999,-0.5506663918495178,0.07422025501728058,-9.765948295593262,0.274658203125,-1.3580322265625,0.946044921875
20.0499999,-0.5578489899635315,0.07422025501728058,-9.770736694335938,-0.0152587890625,-1.40380859375,0.9307861328125
20.0699999,-0.5602431893348694,0.0694318488240242,-9.768342971801758,0.2593994140625,-1.434326171875,-0.244140625
20.089999900000002,-0.5626373887062073,0.06224924325942993,-9.758766174316406,0.0152587890625,-1.40380859375,-0.9765625
20.109999900000002,-0.5626373887062073,0.06224924325942993,-9.749189376831055,-0.8544921875,-1.556396484375,-0.3814697265625
20.1299999,-0.5626373887062073,0.05985504388809204,-9.742006301879883,-0.7476806640625,-1.64794921875,0.3509521484375
