# Time (seconds),Accel_X,Accel_Y,Accel_Z,Gyro_X,Gyro_Y,Gyro_Z
0.0099999,0.2322375625371933,-9.86650562286377,0.6440402865409851,1.068115234375,-0.18310546875,-1.1138916015625
0.029999900000000003,0.22505496442317963,-9.854534149169922,0.6536170840263367,0.1373291015625,1.1444091796875,-0.9918212890625
0.0499999,0.22744916379451752,-9.849745750427246,0.6560112833976746,0.244140625,1.15966796875,-1.1138916015625
0.0699999,0.24181437492370605,-9.849745750427246,0.6488286852836609,0.1983642578125,0.1678466796875,-1.3885498046875
0.08999990000000001,0.2513911724090576,-9.84256362915039,0.6631938815116882,0.7476806640625,1.64794921875,-1.9073486328125
0.10999990000000001,0.26336219906806946,-9.840168952941895,0.6631938815116882,1.46484375,0.3662109375,-0.8087158203125
0.1299999,0.26815059781074524,-9.832986831665039,0.6751648783683777,1.7852783203125,-0.4425048828125,-0.0762939453125
0.14999990000000002,0.26815059781074524,-9.828198432922363,0.6775590777397156,1.0223388671875,-0.091552734375,-0.946044921875
0.1699999,0.272938996553421,-9.806650161743164,0.6751648783683777,0.30517578125,0.8087158203125,-1.8768310546875
0.1899999,0.2849099934101105,-9.782708168029785,0.6631938815116882,-0.579833984375,1.708984375,-1.312255859375
0.20999990000000002,0.29209262132644653,-9.75637149810791,0.6775590777397156,-0.6561279296875,1.6632080078125,0.3204345703125
0.2299999,0.2968810200691223,-9.75637149810791,0.6847416758537292,-0.213623046875,-0.1983642578125,0.518798828125
0.2499999,0.2992752194404602,-9.780313491821289,0.6943184733390808,0.3509521484375,-0.7171630859375,-0.2593994140625
0.2699999,0.2944868206977844,-9.823410034179688,0.7038952708244324,0.152587890625,0.6256103515625,-0.67138671875
0.28999990000000003,0.28969839215278625,-9.852140426635742,0.7038952708244324,0.518798828125,0.8087158203125,-0.457763671875
0.3099999,0.2825157940387726,-9.86650562286377,0.6943184733390808,0.396728515625,-0.6561279296875,0.244140625
0.3299999,0.2537853717803955,-9.871294021606445,0.689530074596405,0.30517578125,0.1678466796875,0.0762939453125
0.34999990000000003,0.24420857429504395,-9.871294021606445,0.6799532771110535,0.1678466796875,-0.0457763671875,-1.2359619140625
0.3699999,0.23702596127986908,-9.864110946655273,0.689530074596405,0.1983642578125,-0.457763671875,-2.044677734375
0.3899999,0.24899697303771973,-9.84495735168457,0.6775590777397156,0,-1.434326171875,-1.2054443359375
0.40999990000000003,0.27054479718208313,-9.825803756713867,0.6775590777397156,0.030517578125,-0.1983642578125,-0.18310546875
0.4299999,0.3016694188117981,-9.821015357971191,0.6703764796257019,0.1678466796875,0.7781982421875,-0.18310546875
0.4499999,0.3280056416988373,-9.823410034179688,0.6751648783683777,0.54931640625,0.06103515625,-1.373291015625
0.4699999,0.3495534360408783,-9.823410034179688,0.6751648783683777,0.3509521484375,-0.335693359375,-1.9378662109375
0.4899999,0.3687070608139038,-9.813833236694336,0.6799532771110535,-0.4425048828125,0.213623046875,-0.79345703125
0.5099999,0.3734954595565796,-9.792284965515137,0.6775590777397156,0.2288818359375,1.2969970703125,-0.1678466796875
0.5299999,0.36152446269989014,-9.799467086791992,0.6943184733390808,0.946044921875,0.7476806640625,-0.152587890625
0.5499999,0.3423708379268646,-9.823410034179688,0.706289529800415,1.2359619140625,-0.9307861328125,-0.946044921875
0.5699999,0.3232172429561615,-9.847352027893066,0.7134721279144287,1.0986328125,-0.885009765625,-1.6632080078125
0.5899998999999999,0.3208230137825012,-9.871294021606445,0.706289529800415,0.457763671875,0.1220703125,-1.068115234375
0.6099998999999999,0.3280056416988373,-9.883264541625977,0.6943184733390808,0.701904296875,0.823974609375,-0.274658203125
0.6299999,0.3495534360408783,-9.890447616577148,0.6631938815116882,1.3885498046875,-0.091552734375,-0.79345703125
0.6499999,0.35673606395721436,-9.897629737854004,0.6775590777397156,1.922607421875,0.9765625,-1.1749267578125
0.6699999,0.35913026332855225,-9.897629737854004,0.6823474764823914,1.3885498046875,1.190185546875,-0.823974609375
0.6899999,0.35913026332855225,-9.876082420349121,0.7038952708244324,0.9002685546875,0.4425048828125,-1.190185546875
0.7099999,0.35673606395721436,-9.837775230407715,0.7206547260284424,0.8392333984375,0.5950927734375,-1.3885498046875
0.7299998999999999,0.35913026332855225,-9.797073364257812,0.730231523513794,0.7171630859375,1.3580322265625,-0.4425048828125
0.7499998999999999,0.363918662071228,-9.787496566772461,0.727837324142456,0.5340576171875,1.739501953125,0.4119873046875
0.7699999,0.3663128614425659,-9.785101890563965,0.7445967197418213,0.67138671875,1.4801025390625,-0.762939453125
0.7899999,0.3663128614425659,-9.797073364257812,0.7565677165985107,2.01416015625,0.06103515625,-1.2664794921875
0.8099999,0.3663128614425659,-9.823410034179688,0.7709329724311829,2.7313232421875,-0.701904296875,0.48828125
0.8299999,0.3734954595565796,-9.821015357971191,0.768538773059845,0.91552734375,0.30517578125,0.06103515625
0.8499998999999999,0.38546648621559143,-9.821015357971191,0.7565677165985107,-0.3509521484375,1.2054443359375,-0.762939453125
0.8699998999999999,0.38546648621559143,-9.825803756713867,0.768538773059845,0.30517578125,1.2969970703125,-0.30517578125
0.8899999,0.3902548849582672,-9.830592155456543,0.7589619159698486,0.7171630859375,-0.4425048828125,-0.5035400390625
0.9099999,0.3878606855869293,-9.828198432922363,0.7733271718025208,0.732421875,0,-1.251220703125
0.9299999,0.3926490843296051,-9.81143856048584,0.7589619159698486,0.6103515625,1.2664794921875,-0.9307861328125
0.9499999,0.3926490843296051,-9.792284965515137,0.768538773059845,0.244140625,1.8768310546875,0.6561279296875
0.9699998999999999,0.3878606855869293,-9.773131370544434,0.7757213711738586,0.42724609375,0.3662109375,0.7781982421875
0.9899998999999999,0.38307225704193115,-9.78989028930664,0.7781155705451965,-0.0152587890625,-0.732421875,-0.0152587890625
1.0099999,0.3687070608139038,-9.813833236694336,0.7852981686592102,-0.732421875,1.3885498046875,-1.2664794921875
1.0299999,0.363918662071228,-9.84256362915039,0.7709329724311829,-0.8544921875,1.556396484375,-1.556396484375
1.0499999,0.3711012601852417,-9.86889934539795,0.7493851184844971,0.0457763671875,0.2899169921875,-0.0152587890625
1.0699999,0.3758896589279175,-9.86889934539795,0.7565677165985107,1.068115234375,1.2054443359375,-0.2593994140625
1.0899999,0.38067805767059326,-9.876082420349121,0.7493851184844971,1.1749267578125,0.79345703125,-0.5340576171875
1.1099999,0.3758896589279175,-9.861717224121094,0.7733271718025208,1.007080078125,0.9002685546875,-1.03759765625
1.1299999,0.3734954595565796,-9.837775230407715,0.7781155705451965,1.46484375,0.0152587890625,-1.1138916015625
1.1499999,0.38067805767059326,-9.804255485534668,0.7757213711738586,0.640869140625,0.3662109375,-0.640869140625
1.1699998999999999,0.3902548849582672,-9.77791976928711,0.7757213711738586,0.5950927734375,2.6092529296875,-0.0152587890625
1.1899998999999999,0.40462008118629456,-9.773131370544434,0.7805097699165344,1.2664794921875,2.3193359375,0.244140625
1.2099999,0.40940847992897034,-9.782708168029785,0.8092401623725891,0.67138671875,0.91552734375,-0.213623046875
1.2299999,0.40940847992897034,-9.81143856048584,0.8379706144332886,0.4425048828125,-0.3662109375,-0.3662109375
1.2499999,0.4165911078453064,-9.823410034179688,0.828393816947937,0.1220703125,0.06103515625,-0.335693359375
1.2699999,0.4165911078453064,-9.835380554199219,0.8259995579719543,0.030517578125,2.5787353515625,0
1.2899999,0.4189853072166443,-9.821015357971191,0.8020575642585754,0.06103515625,2.0751953125,-0.3814697265625
1.3099999,0.40940847992897034,-9.804255485534668,0.8164227604866028,-0.1678466796875,0.6103515625,-0.3204345703125
1.3299999,0.3998316824436188,-9.775525093078613,0.828393816947937,-0.396728515625,0.06103515625,-0.0152587890625
1.3499999,0.40222588181495667,-9.775525093078613,0.8355764150619507,-0.3204345703125,0.3509521484375,0.2899169921875
1.3699999,0.4189853072166443,-9.773131370544434,0.8236053586006165,-0.5340576171875,0.518798828125,-0.732421875
1.3899999,0.42856210470199585,-9.787496566772461,0.8164227604866028,-0.213623046875,0.3662109375,-0.5340576171875
1.4099999,0.4213795065879822,-9.806650161743164,0.8140285611152649,1.6021728515625,-0.6561279296875,0.701904296875
1.4299998999999999,0.3998316824436188,-9.801861763000488,0.8092401623725891,1.2359619140625,-1.251220703125,0.1068115234375
1.4499999,0.3663128614425659,-9.794678688049316,0.8068459630012512,-0.0457763671875,0.4119873046875,0.0152587890625
1.4699999,0.3423708379268646,-9.799467086791992,0.7805097699165344,-1.46484375,1.800537109375,1.1444091796875
1.4899999,0.33279404044151306,-9.813833236694336,0.768538773059845,-1.2664794921875,2.2125244140625,0.701904296875
1.5099999,0.33039984107017517,-9.847352027893066,0.7781155705451965,-0.30517578125,1.9073486328125,-0.274658203125
1.5299999,0.33518823981285095,-9.904812812805176,0.7924807667732239,-0.06103515625,-0.4730224609375,-0.42724609375
1.5499999,0.35913026332855225,-9.926360130310059,0.8212111592292786,0.3509521484375,-0.732421875,-1.6021728515625
1.5699999,0.395043283700943,-9.914389610290527,0.8307880163192749,0.1373291015625,0.3204345703125,-1.5716552734375
1.5899999,0.4429273009300232,-9.880870819091797,0.8164227604866028,0.4425048828125,0.6103515625,0.5035400390625
1.6099999,0.4884171485900879,-9.823410034179688,0.7972691655158997,0.152587890625,1.03759765625,0.5645751953125
1.6299999,0.5099649429321289,-9.785101890563965,0.7876923680305481,0.2288818359375,1.9683837890625,0.2288818359375
1.6499999,0.5099649429321289,-9.763554573059082,0.7757213711738586,-0.030517578125,2.01416015625,0.42724609375
1.6699999,0.4908113479614258,-9.773131370544434,0.7709329724311829,-0.0457763671875,1.9378662109375,1.1749267578125
1.6899998999999999,0.4620809257030487,-9.785101890563965,0.7709329724311829,0.1068115234375,2.6092529296875,0.701904296875
1.7099999,0.42616790533065796,-9.81143856048584,0.7781155705451965,1.0223388671875,2.7618408203125,0.6103515625
1.7299999,0.38546648621559143,-9.84495735168457,0.8259995579719543,2.74658203125,1.9378662109375,0.5035400390625
1.7499999,0.35434186458587646,-9.856928825378418,0.8738836050033569,2.2430419921875,-0.9918212890625,-1.220703125
1.7699999,0.33758243918418884,-9.859322547912598,0.9050082564353943,1.64794921875,-2.471923828125,-1.1444091796875
1.7899999,0.3519476354122162,-9.84256362915039,0.8978256583213806,0.9765625,0.0762939453125,0.06103515625
1.8099999,0.3734954595565796,-9.806650161743164,0.8738836050033569,-0.3814697265625,3.4027099609375,-0.0152587890625
1.8299999,0.395043283700943,-9.78989028930664,0.849941611289978,0.518798828125,2.7618408203125,0.0457763671875
1.8499999,0.3902548849582672,-9.77791976928711,0.8906430602073669,-0.1068115234375,-0.1220703125,-0.946044921875
1.8699999,0.38307225704193115,-9.804255485534668,0.8930372595787048,0.1068115234375,-0.67138671875,-0.274658203125
1.8899999,0.3878606855869293,-9.816226959228516,0.8786720037460327,0.030517578125,0.06103515625,-1.15966796875
1.9099999,0.3998316824436188,-9.837775230407715,0.8523358106613159,0.1220703125,1.03759765625,-1.312255859375
1.9299998999999999,0.4141969084739685,-9.849745750427246,0.8307880163192749,0.48828125,0.9765625,0.0457763671875
1.9499999,0.4189853072166443,-9.849745750427246,0.8475474119186401,0.3662109375,0.5645751953125,0.244140625
1.9699999,0.42377370595932007,-9.849745750427246,0.8547300100326538,0.518798828125,-1.2054443359375,0.1678466796875
1.9899999,0.43335050344467163,-9.828198432922363,0.8595184087753296,-0.2593994140625,-0.701904296875,-0.7476806640625
2.0099999,0.44532153010368347,-9.81143856048584,0.8595184087753296,-0.579833984375,1.739501953125,-0.457763671875
2.0299999,0.4596867263317108,-9.78989028930664,0.8547300100326538,-0.6866455078125,1.800537109375,-0.0152587890625
2.0499999,0.4620809257030487,-9.780313491821289,0.8667010068893433,-0.3204345703125,0.48828125,0
2.0699999,0.4572925269603729,-9.782708168029785,0.8834604024887085,-0.4119873046875,-0.0152587890625,-0.1373291015625
2.0899999,0.4405331015586853,-9.806650161743164,0.8882488012313843,0.244140625,-0.152587890625,0.67138671875
2.1099999,0.43095630407333374,-9.823410034179688,0.8690952062606812,0.9918212890625,-0.091552734375,0
2.1299999,0.42616790533065796,-9.832986831665039,0.8403648138046265,0.7171630859375,1.0223388671875,-0.67138671875
2.1499999,0.4189853072166443,-9.837775230407715,0.828393816947937,-0.18310546875,1.7852783203125,0.1068115234375
2.1699999,0.40940847992897034,-9.84495735168457,0.8307880163192749,0.244140625,1.068115234375,0.54931640625
2.1899999,0.40462008118629456,-9.830592155456543,0.8523358106613159,0.0457763671875,0.213623046875,-1.3275146484375
2.2099999,0.40222588181495667,-9.837775230407715,0.8762778043746948,0.579833984375,-0.0762939453125,-1.0528564453125
2.2299999,0.4118026793003082,-9.823410034179688,0.8786720037460327,0.762939453125,0.1220703125,-0.1678466796875
2.2499999,0.43095630407333374,-9.806650161743164,0.8667010068893433,0.4425048828125,0.823974609375,0.2288818359375
2.2699999,0.44771572947502136,-9.801861763000488,0.8571242094039917,0.3204345703125,1.5869140625,0.4425048828125
2.2899999,0.44771572947502136,-9.81143856048584,0.8571242094039917,0.8087158203125,1.0986328125,0.1983642578125
2.3099999,0.4405331015586853,-9.818621635437012,0.871489405632019,1.03759765625,0.152587890625,-0.885009765625
2.3299999,0.42616790533065796,-9.825803756713867,0.8954314589500427,1.4495849609375,-0.3509521484375,-0.67138671875
2.3499999,0.42377370595932007,-9.806650161743164,0.9026140570640564,1.2969970703125,0.3662109375,0.030517578125
2.3699999,0.4213795065879822,-9.799467086791992,0.912190854549408,0.2288818359375,0.6103515625,0.4119873046875
2.3899999,0.42377370595932007,-9.78989028930664,0.9241618514060974,-0.396728515625,0.4425048828125,-0.457763671875
2.4099999,0.4165911078453064,-9.859322547912598,0.9217676520347595,0.244140625,-1.1749267578125,-0.9918212890625
2.4299999,0.4165911078453064,-9.938331604003906,0.9217676520347595,0.6103515625,-1.312255859375,-3.082275390625
2.4499999,0.42616790533065796,-10.062829971313477,0.8954314589500427,0.9918212890625,-1.2054443359375,-3.6468505859375
2.4699999,0.4405331015586853,-10.15141487121582,0.8762778043746948,2.3345947265625,-1.4801025390625,-1.9683837890625
2.4899999,0.4620809257030487,-10.204087257385254,0.8427590131759644,4.4708251953125,-2.9754638671875,-0.732421875
2.5099999,0.47644615173339844,-10.158597946166992,0.8427590131759644,6.2255859375,-1.800537109375,-1.6632080078125
2.5299999,0.48602294921875,-10.014945983886719,0.8451532125473022,4.3487548828125,-0.2899169921875,-3.0517578125
2.5499999,0.49799394607543945,-9.799467086791992,0.8690952062606812,3.41796875,0.18310546875,-0.4119873046875
2.5699999,0.5099649429321289,-9.579200744628906,0.8906430602073669,2.50244140625,0.79345703125,1.7242431640625
2.5899999,0.5123591423034668,-9.418789863586426,0.9409212470054626,1.434326171875,2.6702880859375,1.1749267578125
2.6099999,0.5027823448181152,-9.370905876159668,1.0031704902648926,0.152587890625,2.86865234375,-0.457763671875
2.6299999,0.49559974670410156,-9.404424667358398,1.0438719987869263,-0.67138671875,0.3814697265625,-0.732421875
2.6499999,0.49799394607543945,-9.473855972290039,1.0845733880996704,-1.15966796875,0.5035400390625,-0.1678466796875
2.6699999,0.5123591423034668,-9.57201862335205,1.0749965906143188,-1.373291015625,1.15966796875,0.8697509765625
2.6899999,0.5171475410461426,-9.682151794433594,1.0582371950149536,-0.2288818359375,1.9989013671875,1.0223388671875
2.7099999,0.5219359993934631,-9.775525093078613,1.036689281463623,0.030517578125,0.7171630859375,-0.9765625
2.7299999,0.5123591423034668,-9.84495735168457,1.0223240852355957,0.7476806640625,-0.7476806640625,-1.220703125
2.7499999,0.5051765441894531,-9.859322547912598,0.9983820915222168,0.2899169921875,0.579833984375,0.2899169921875
2.7699999,0.49799394607543945,-9.847352027893066,0.9792284965515137,-0.396728515625,2.2125244140625,1.3427734375
2.7899999,0.4836287498474121,-9.832986831665039,0.9720458984375,-0.6256103515625,2.0599365234375,-0.1068115234375
2.8099999,0.47165772318840027,-9.830592155456543,0.9696516990661621,-0.7171630859375,0.1678466796875,-2.0294189453125
2.8299999,0.4620809257030487,-9.823410034179688,0.9840168952941895,-0.640869140625,0.335693359375,-1.9989013671875
2.8499999,0.47165772318840027,-9.794678688049316,0.993593692779541,-0.42724609375,1.3427734375,-0.6866455078125
2.8699999,0.49799394607543945,-9.768342971801758,0.9696516990661621,-0.8392333984375,0.3509521484375,0.8087158203125
2.8899999,0.5171475410461426,-9.763554573059082,0.9648633003234863,-0.579833984375,1.495361328125,1.129150390625
2.9099999,0.5219359993934631,-9.804255485534668,0.9576807022094727,-0.06103515625,1.800537109375,0.2288818359375
2.9299999,0.5147533416748047,-9.856928825378418,0.9672574996948242,0.06103515625,0.732421875,-1.2054443359375
2.9499999,0.5003881454467773,-9.907206535339355,0.9648633003234863,0.946044921875,-0.5950927734375,-0.9002685546875
2.9699999,0.4884171485900879,-9.916783332824707,0.9720458984375,0.7781982421875,0.885009765625,-0.2899169921875
2.9899999,0.4836287498474121,-9.892841339111328,0.9624691009521484,1.007080078125,1.678466796875,0
3.0099999,0.4812345504760742,-9.852140426635742,0.9648633003234863,1.0528564453125,1.1138916015625,0.0457763671875
3.0299999,0.47644615173339844,-9.813833236694336,0.9864110946655273,1.0223388671875,0.30517578125,-0.244140625
3.0499999,0.47405192255973816,-9.785101890563965,1.0199298858642578,1.4190673828125,-0.244140625,-0.7476806640625
3.0699999,0.48602294921875,-9.763554573059082,1.0295066833496094,1.2054443359375,-0.91552734375,-0.8697509765625
3.0899999,0.5147533416748047,-9.739612579345703,1.0295066833496094,0.67138671875,-0.06103515625,-0.1373291015625
3.1099999,0.5554547905921936,-9.710882186889648,1.0079588890075684,0.4425048828125,1.373291015625,0.762939453125
3.1299999,0.5841852426528931,-9.708487510681152,0.9959878921508789,0.1678466796875,2.0904541015625,1.6937255859375
3.1499999,0.5889736413955688,-9.727641105651855,0.9959878921508789,0.18310546875,1.3885498046875,1.1444091796875
3.1699999,0.5674257874488831,-9.765948295593262,1.0055646896362305,0.2288818359375,0.67138671875,-0.335693359375
3.1899999,0.5339069962501526,-9.801861763000488,1.01753568649292,0.18310546875,1.03759765625,-0.5340576171875
3.2099999,0.49799394607543945,-9.823410034179688,1.0271124839782715,0.7171630859375,1.1444091796875,0.8087158203125
3.2299999,0.47165772318840027,-9.830592155456543,1.0247182846069336,0.6256103515625,0.457763671875,0.6103515625
3.2499999,0.4620809257030487,-9.825803756713867,1.0223240852355957,0.8392333984375,0.9002685546875,-0.8544921875
3.2699999,0.4572925269603729,-9.828198432922363,1.0342950820922852,0.0457763671875,1.4190673828125,-0.91552734375
3.2899999,0.4668693244457245,-9.830592155456543,1.0414776802062988,-0.396728515625,0.2593994140625,-0.457763671875
3.3099999,0.4884171485900879,-9.816226959228516,1.036689281463623,-0.18310546875,-0.732421875,-1.0528564453125
3.3299999000000002,0.5099649429321289,-9.797073364257812,1.0438719987869263,0.3814697265625,0.8544921875,-0.6256103515625
3.3499999,0.5410895943641663,-9.782708168029785,1.0199298858642578,0.6256103515625,1.46484375,0.3814697265625
3.3699999,0.5674257874488831,-9.782708168029785,1.0127472877502441,0.6256103515625,1.15966796875,0.1220703125
3.3899999,0.5578489899635315,-9.794678688049316,1.0247182846069336,0.8544921875,1.2664794921875,-0.396728515625
3.4099999,0.5386953949928284,-9.787496566772461,1.039083480834961,0.457763671875,0.9765625,-0.4730224609375
3.4299999,0.5147533416748047,-9.785101890563965,1.0534487962722778,0.640869140625,0.640869140625,0.7781982421875
3.4499999,0.49320554733276367,-9.75637149810791,1.0678139925003052,0.3509521484375,0.4730224609375,0.091552734375
3.4699999,0.4836287498474121,-9.765948295593262,1.070208191871643,0.1068115234375,0.396728515625,-0.1220703125
3.4899999,0.4836287498474121,-9.770736694335938,1.0654197931289673,-0.3204345703125,0.640869140625,-0.8697509765625
3.5099999,0.5003881454467773,-9.77791976928711,1.0558429956436157,-1.0833740234375,1.15966796875,-1.312255859375
3.5299999,0.524330198764801,-9.77791976928711,1.0462661981582642,-0.7781982421875,1.03759765625,0.0152587890625
3.5499999,0.5434837937355042,-9.770736694335938,1.0414776802062988,-0.1220703125,0.9918212890625,0.6256103515625
3.5699999,0.5506663918495178,-9.782708168029785,1.0414776802062988,0.4730224609375,0.5950927734375,0.457763671875
3.5899999,0.5434837937355042,-9.799467086791992,1.0462661981582642,-0.7476806640625,0.5035400390625,-0.79345703125
3.6099999,0.5315127968788147,-9.816226959228516,1.05105459690094,-2.3193359375,0.701904296875,-0.9002685546875
3.6299999,0.5219359993934631,-9.823410034179688,1.0462661981582642,-1.983642578125,0.18310546875,-0.3662109375
3.6499999,0.5219359993934631,-9.818621635437012,1.0295066833496094,-0.1678466796875,0.030517578125,0.2899169921875
3.6699999,0.524330198764801,-9.816226959228516,1.01753568649292,0.2288818359375,1.6632080078125,0.701904296875
3.6899999,0.5315127968788147,-9.821015357971191,0.9959878921508789,0.3814697265625,1.0833740234375,0.67138671875
3.7099999,0.5339069962501526,-9.821015357971191,1.0079588890075684,0.8697509765625,0.9918212890625,0.0152587890625
3.7299999,0.5291185975074768,-9.81143856048584,1.0247182846069336,0.7171630859375,0.6561279296875,-0.2899169921875
3.7499999,0.5267243981361389,-9.801861763000488,1.0319008827209473,0.5035400390625,-0.1983642578125,0.54931640625
3.7699999,0.5291185975074768,-9.775525093078613,1.0414776802062988,0.0152587890625,0.91552734375,0.4425048828125
3.7899999,0.5339069962501526,-9.773131370544434,1.0319008827209473,0.06103515625,1.556396484375,0.5340576171875
3.8099999,0.5386953949928284,-9.785101890563965,1.0295066833496094,0.274658203125,1.617431640625,0.274658203125
3.8299999000000002,0.5363011956214905,-9.797073364257812,1.0295066833496094,0.1983642578125,1.434326171875,-0.5340576171875
3.8499999,0.5267243981361389,-9.801861763000488,1.048660397529602,-0.0152587890625,1.15966796875,-0.4119873046875
3.8699999,0.5147533416748047,-9.799467086791992,1.0630255937576294,0.18310546875,0.335693359375,0.42724609375
3.8899999,0.5099649429321289,-9.77791976928711,1.072602391242981,-0.7781982421875,0.091552734375,0.0762939453125
3.9099999,0.507570743560791,-9.775525093078613,1.0630255937576294,-0.6256103515625,0.5950927734375,0.3814697265625
3.9299999,0.507570743560791,-9.77791976928711,1.0582371950149536,-0.0152587890625,1.5106201171875,-0.030517578125
3.9499999,0.5099649429321289,-9.787496566772461,1.05105459690094,-0.0457763671875,0.8697509765625,-0.79345703125
3.9699999,0.5123591423034668,-9.78989028930664,1.0462661981582642,-0.3204345703125,-0.1983642578125,-0.7781982421875
3.9899999,0.5171475410461426,-9.785101890563965,1.0462661981582642,-0.30517578125,0.7476806640625,0.091552734375
4.0099999,0.5267243981361389,-9.782708168029785,1.048660397529602,-0.2593994140625,1.556396484375,0.6256103515625
4.029999900000001,0.5386953949928284,-9.77791976928711,1.0438719987869263,-0.3509521484375,0.6103515625,-0.0762939453125
4.0499999,0.5410895943641663,-9.78989028930664,1.0534487962722778,-0.1983642578125,0.4425048828125,-0.67138671875
4.069999900000001,0.5386953949928284,-9.797073364257812,1.0654197931289673,0.4730224609375,0.6103515625,-0.732421875
4.0899999000000005,0.5434837937355042,-9.801861763000488,1.05105459690094,0.1373291015625,-0.1983642578125,-0.579833984375
4.1099999,0.5410895943641663,-9.806650161743164,1.048660397529602,0.457763671875,0.6561279296875,0.1220703125
4.1299999000000005,0.5434837937355042,-9.80904483795166,1.0342950820922852,0.3814697265625,1.2969970703125,0.30517578125
4.1499999,0.545877993106842,-9.801861763000488,1.0271124839782715,0.3204345703125,0.9918212890625,-0.1220703125
4.1699999000000005,0.5434837937355042,-9.794678688049316,1.036689281463623,0.579833984375,1.1749267578125,0.0762939453125
4.1899999,0.545877993106842,-9.785101890563965,1.0414776802062988,0.5035400390625,0.7476806640625,0.3814697265625
4.209999900000001,0.5410895943641663,-9.765948295593262,1.0678139925003052,0.030517578125,1.5106201171875,-0.4119873046875
4.2299999,0.5410895943641663,-9.770736694335938,1.072602391242981,0.1373291015625,0.701904296875,0.3204345703125
4.249999900000001,0.5434837937355042,-9.780313491821289,1.070208191871643,0.0762939453125,-0.0152587890625,0.2899169921875
4.2699999,0.5386953949928284,-9.782708168029785,1.072602391242981,-0.42724609375,1.953125,-0.457763671875
4.289999900000001,0.5339069962501526,-9.804255485534668,1.0534487962722778,-0.1983642578125,1.5411376953125,0.3204345703125
4.3099999,0.524330198764801,-9.799467086791992,1.0558429956436157,0.396728515625,0.9307861328125,0.030517578125
4.329999900000001,0.5099649429321289,-9.782708168029785,1.0797849893569946,0.2288818359375,1.15966796875,-0.6256103515625
4.3499999,0.5027823448181152,-9.785101890563965,1.0749965906143188,0.1983642578125,-0.732421875,0.396728515625
4.369999900000001,0.5051765441894531,-9.765948295593262,1.0869675874710083,0.30517578125,0.152587890625,-0.640869140625
4.3899999,0.5195417404174805,-9.75397777557373,1.0773907899856567,0.335693359375,1.2359619140625,-1.5106201171875
4.409999900000001,0.5434837937355042,-9.732429504394531,1.070208191871643,-0.1678466796875,0.8392333984375,-0.5035400390625
4.4299999,0.5650315880775452,-9.713275909423828,1.0797849893569946,-0.7476806640625,0.6103515625,0.5645751953125
4.449999900000001,0.5817909836769104,-9.718064308166504,1.0797849893569946,-0.3662109375,0.3204345703125,1.0833740234375
4.4699999,0.5841852426528931,-9.744400978088379,1.0749965906143188,-0.3204345703125,0.640869140625,0.2593994140625
4.489999900000001,0.5770025849342346,-9.787496566772461,1.0606313943862915,-0.42724609375,1.2054443359375,-0.396728515625
4.5099999,0.5578489899635315,-9.828198432922363,1.048660397529602,-0.30517578125,1.434326171875,-0.274658203125
4.529999900000001,0.5315127968788147,-9.84495735168457,1.0582371950149536,-0.2288818359375,1.1444091796875,-0.244140625
4.5499999,0.5147533416748047,-9.84256362915039,1.0606313943862915,-0.30517578125,-0.0762939453125,-0.48828125
4.569999900000001,0.507570743560791,-9.84495735168457,1.070208191871643,0.030517578125,-0.3814697265625,-0.1678466796875
4.5899999000000005,0.524330198764801,-9.821015357971191,1.05105459690094,-0.762939453125,0.79345703125,-0.946044921875
4.609999900000001,0.5482721924781799,-9.823410034179688,1.039083480834961,-0.42724609375,2.197265625,0.1983642578125
4.6299999000000005,0.5674257874488831,-9.81143856048584,1.0342950820922852,-0.244140625,1.9378662109375,0.6561279296875
4.6499999,0.5674257874488831,-9.80904483795166,1.048660397529602,0.335693359375,1.0528564453125,0.213623046875
4.6699999000000005,0.5554547905921936,-9.816226959228516,1.0654197931289673,0.42724609375,0.1220703125,0.1373291015625
4.6899999,0.5434837937355042,-9.816226959228516,1.0749965906143188,0.0762939453125,0.67138671875,-0.244140625
4.709999900000001,0.5339069962501526,-9.816226959228516,1.094150185585022,0.7781982421875,1.3275146484375,0.0762939453125
4.7299999,0.5410895943641663,-9.813833236694336,1.0749965906143188,0.5340576171875,0.2288818359375,0.30517578125
4.749999900000001,0.5482721924781799,-9.792284965515137,1.0797849893569946,-0.1220703125,1.0223388671875,-0.3814697265625
4.7699999,0.5530605912208557,-9.770736694335938,1.0797849893569946,0.1983642578125,1.8463134765625,0.274658203125
4.789999900000001,0.5530605912208557,-9.763554573059082,1.0845733880996704,-0.0457763671875,0.67138671875,0.9918212890625
4.8099999,0.5482721924781799,-9.758766174316406,1.094150185585022,-0.54931640625,-0.06103515625,-0.457763671875
4.829999900000001,0.5482721924781799,-9.770736694335938,1.0845733880996704,-0.1678466796875,0.30517578125,-0.67138671875
4.8499999,0.5530605912208557,-9.797073364257812,1.070208191871643,0.18310546875,1.5716552734375,0.7476806640625
4.869999900000001,0.5578489899635315,-9.80904483795166,1.0534487962722778,0.1373291015625,2.3345947265625,0.3814697265625
4.8899999,0.5482721924781799,-9.828198432922363,1.0749965906143188,0.5645751953125,-0.1220703125,0.06103515625
4.909999900000001,0.5482721924781799,-9.832986831665039,1.0845733880996704,0.1983642578125,0.244140625,0.30517578125
4.9299999,0.5554547905921936,-9.832986831665039,1.0821791887283325,0.4425048828125,1.46484375,0.06103515625
4.949999900000001,0.569819986820221,-9.852140426635742,1.0582371950149536,1.03759765625,1.556396484375,0.4425048828125
4.9699999,0.5722141861915588,-9.871294021606445,1.0582371950149536,1.3580322265625,1.8768310546875,0.0152587890625
4.989999900000001,0.5722141861915588,-9.892841339111328,1.0558429956436157,1.617431640625,1.2054443359375,-0.213623046875
5.0099999,0.5650315880775452,-9.931148529052734,1.070208191871643,3.1890869140625,0.6866455078125,0.6866455078125
5.029999900000001,0.5650315880775452,-9.950302124023438,1.0654197931289673,3.60107421875,0.3509521484375,0.30517578125
5.0499999,0.5602431893348694,-9.943120002746582,1.091755986213684,3.570556640625,2.197265625,-0.4425048828125
5.069999900000001,0.5530605912208557,-9.926360130310059,1.1013327836990356,3.997802734375,1.373291015625,0.4425048828125
5.0899999000000005,0.5386953949928284,-9.8784761428833,1.139639973640442,4.69970703125,0.244140625,0.2288818359375
5.109999900000001,0.5267243981361389,-9.799467086791992,1.1755530834197998,3.875732421875,0.5035400390625,-1.9683837890625
5.1299999000000005,0.5147533416748047,-9.737217903137207,1.1971008777618408,3.326416015625,0.42724609375,-0.6103515625
5.1499999,0.5051765441894531,-9.701305389404297,1.213860273361206,2.99072265625,0.18310546875,1.068115234375
5.1699999000000005,0.5003881454467773,-9.708487510681152,1.2306196689605713,3.6468505859375,-0.0762939453125,0
5.1899999,0.5027823448181152,-9.785101890563965,1.2282254695892334,4.8828125,-1.77001953125,-0.732421875
5.209999900000001,0.5123591423034668,-9.890447616577148,1.2258312702178955,6.40869140625,-1.6021728515625,-0.4730224609375
5.2299999,0.5386953949928284,-9.99100399017334,1.1994950771331787,7.1258544921875,-0.579833984375,-0.7476806640625
5.249999900000001,0.569819986820221,-10.077195167541504,1.1779472827911377,7.3089599609375,0.5340576171875,-0.9002685546875
5.2699999,0.5841852426528931,-10.101137161254883,1.192312479019165,8.8043212890625,1.129150390625,-1.7852783203125
5.289999900000001,0.586579442024231,-10.108319282531738,1.2234370708465576,10.8795166015625,-0.54931640625,-1.9073486328125
5.3099999,0.5793967843055725,-10.067618370056152,1.2761094570159912,10.406494140625,-0.9307861328125,-3.997802734375
5.329999900000001,0.5722141861915588,-9.995792388916016,1.3335703611373901,9.6435546875,0.4730224609375,-7.2021484375
5.3499999,0.5674257874488831,-9.897629737854004,1.3934253454208374,9.368896484375,1.1138916015625,-7.904052734375
5.369999900000001,0.5770025849342346,-9.804255485534668,1.4460978507995605,10.406494140625,-0.640869140625,-6.3323974609375
5.3899999,0.5889736413955688,-9.708487510681152,1.4939818382263184,11.2457275390625,-1.52587890625,-6.2713623046875
5.409999900000001,0.608127236366272,-9.622296333312988,1.5490485429763794,10.9100341796875,0.06103515625,-8.23974609375
5.4299999,0.6392518281936646,-9.531316757202148,1.5442601442337036,10.4217529296875,-0.3509521484375,-8.7127685546875
5.449999900000001,0.6727706789970398,-9.346963882446289,1.5969325304031372,8.7738037109375,2.5482177734375,-9.368896484375
5.4699999,0.7493851184844971,-8.827422142028809,1.7190368175506592,3.936767578125,3.7689208984375,-8.1939697265625
5.489999900000001,0.8810662031173706,-7.833827972412109,1.946485996246338,-8.544921875,0.823974609375,6.1187744140625
5.5099999,1.0438719987869263,-6.586448669433594,2.123656988143921,-26.9012451171875,-4.791259765625,35.1104736328125
5.529999900000001,1.2258312702178955,-5.185841083526611,2.2577321529388428,-51.4678955078125,2.8533935546875,50.7965087890625
5.5499999,1.3215993642807007,-4.048594951629639,2.1954829692840576,-78.4454345703125,11.6424560546875,52.5665283203125
5.569999900000001,1.2449848651885986,-3.8091750144958496,1.8770540952682495,-91.85791015625,12.054443359375,65.704345703125
5.5899999000000005,0.9624691009521484,-4.675876140594482,1.335964560508728,-97.6104736328125,12.26806640625,66.0400390625
5.609999900000001,0.4596867263317108,-6.754043102264404,0.545877993106842,-95.7489013671875,14.09912109375,52.490234375
5.6299999000000005,-0.27054479718208313,-10.433931350708008,-0.40940847992897034,-63.2171630859375,9.2926025390625,58.4716796875
5.6499999,-1.1803414821624756,-14.911087989807129,-1.3287819623947144,-17.15087890625,5.523681640625,43.64013671875
5.6699999000000005,-2.1475989818573,-19.55344581604004,-2.0590133666992188,24.7650146484375,-0.1068115234375,-2.38037109375
5.6899999,-2.911349296569824,-22.881385803222656,-2.4588451385498047,62.5762939453125,-6.2713623046875,-58.1512451171875
5.709999900000001,-3.1866824626922607,-23.949199676513672,-2.717418909072876,86.3037109375,-13.5345458984375,-86.273193359375
5.7299999,-2.9233202934265137,-22.754493713378906,-2.6862943172454834,116.5771484375,-9.246826171875,-64.1937255859375
5.749999900000001,-2.212242364883423,-19.850326538085938,-2.604891538619995,142.5628662109375,-8.3465576171875,-48.27880859375
5.7699999,-1.292868971824646,-16.366762161254883,-2.4157495498657227,155.364990234375,-14.1448974609375,-55.999755859375
5.789999900000001,-0.3974374830722809,-12.959814071655273,-2.008735179901123,155.9295654296875,-7.1563720703125,-67.718505859375
5.8099999,0.3687070608139038,-9.749189376831055,-1.3407529592514038,148.1170654296875,5.6304931640625,-64.2852783203125
5.829999900000001,0.9552865028381348,-6.7923502922058105,-0.3495534360408783,137.3291015625,9.5672607421875,-47.8057861328125
5.8499999,1.3024457693099976,-4.244919776916504,0.9624691009521484,123.077392578125,8.30078125,-29.60205078125
5.869999900000001,1.403002142906189,-2.2361843585968018,2.432508945465088,100.8148193359375,6.7138671875,-19.4091796875
5.8899999,1.3072341680526733,-0.8619126081466675,3.8522706031799316,74.981689453125,4.608154296875,-15.19775390625
5.909999900000001,1.1228805780410767,0.040701430290937424,5.032611846923828,41.7633056640625,2.1514892578125,-17.4102783203125
5.9299999,0.9313444495201111,0.7829039692878723,6.045359134674072,4.2572021484375,5.79833984375,-19.95849609375
5.949999900000001,0.8403648138046265,1.6831238269805908,6.806715488433838,-39.520263671875,1.9989013671875,-10.2386474609375
5.9699999,0.8523358106613159,2.7772738933563232,7.252037048339844,-84.65576171875,-11.322021484375,23.4527587890625
5.989999900000001,0.9026140570640564,3.6798880100250244,7.2113356590271,-120.2392578125,-21.728515625,68.939208984375
6.0099999,0.9313444495201111,3.6152446269989014,6.406883716583252,-159.027099609375,-23.284912109375,88.7908935546875
6.029999900000001,0.9696516990661621,2.319981336593628,4.78122091293335,-204.5135498046875,-13.5650634765625,68.4814453125
6.0499999,0.9050082564353943,-0.4668693244457245,2.470816135406494,-231.1553955078125,-5.096435546875,65.582275390625
6.069999900000001,0.5937620401382446,-5.284003257751465,-0.15801730751991272,-188.96484375,-3.1890869140625,112.24365234375
6.0899999000000005,-0.004788403399288654,-11.70046329498291,-2.7126305103302,-124.3743896484375,2.044677734375,97.015380859375
6.109999900000001,-0.8643068075180054,-18.77532958984375,-4.54419469833374,-72.0977783203125,18.524169921875,-0.7781982421875
6.1299999000000005,-1.6304513216018677,-24.85181427001953,-5.485116004943848,-26.0162353515625,17.822265625,-68.7255859375
6.149999900000001,-1.968033790588379,-28.479028701782227,-5.693411827087402,34.759521484375,2.3193359375,-44.952392578125
6.1699999000000005,-1.8291701078414917,-28.81421661376953,-5.200206279754639,89.996337890625,8.1024169921875,-19.683837890625
6.1899999,-1.3263877630233765,-26.44156265258789,-4.446032524108887,123.4893798828125,23.712158203125,-39.00146484375
6.209999900000001,-0.7254431247711182,-22.48394775390625,-3.581725835800171,142.15087890625,19.1802978515625,-51.45263671875
6.2299999,-0.20350714027881622,-17.78891944885254,-2.604891538619995,156.2042236328125,14.0533447265625,-50.3997802734375
6.249999900000001,0.26336219906806946,-12.856863021850586,-1.5442601442337036,152.0538330078125,20.7977294921875,-61.0198974609375
6.2699999,0.6248866319656372,-8.31985092163086,-0.304063618183136,133.6212158203125,32.5927734375,-62.9730224609375
6.289999900000001,0.8451532125473022,-4.486733913421631,1.113303780555725,117.9046630859375,28.564453125,-39.306640625
6.3099999,0.9097966551780701,-1.5466543436050415,2.655169725418091,96.1151123046875,19.439697265625,-19.7296142578125
6.329999900000001,0.8020575642585754,0.4381389021873474,4.206612586975098,69.2138671875,19.0887451171875,-15.0299072265625
6.3499999,0.5746083855628967,1.601720929145813,5.5760955810546875,35.7818603515625,18.6004638671875,-13.397216796875
6.369999900000001,0.31364041566848755,2.298433542251587,6.653486728668213,-5.4931640625,8.7890625,-4.7760009765625
6.3899999,0.06703764945268631,2.8131868839263916,7.508216381072998,-49.7283935546875,1.739501953125,8.270263671875
6.409999900000001,-0.11252748221158981,3.9695863723754883,7.687781810760498,-141.11328125,-26.18408203125,52.55126953125
6.4299999,-0.06464344263076782,3.7205893993377686,6.555324077606201,-188.4918212890625,-41.1529541015625,94.3603515625
6.449999900000001,0.05746084079146385,2.205059766769409,4.326322555541992,-215.8355712890625,-44.12841796875,108.062744140625
6.4699999,0.05506663769483566,-1.3407529592514038,1.4053963422775269,-220.1080322265625,-6.103515625,78.79638671875
6.489999900000001,-0.1149216815829277,-6.9024834632873535,-1.86508309841156,-198.1048583984375,21.2249755859375,39.9017333984375
6.5099999,-0.44771572947502136,-14.027627944946289,-4.630385875701904,-135.040283203125,10.467529296875,30.33447265625
6.529999900000001,-0.9145850539207458,-21.116859436035156,-6.418854713439941,-59.2498779296875,-0.762939453125,7.8277587890625
6.5499999,-1.3120225667953491,-27.875690460205078,-7.462726593017578,16.8914794921875,-15.1519775390625,0.4119873046875
6.569999900000001,-1.455674648284912,-31.818941116333008,-7.754819393157959,90.9576416015625,1.2664794921875,-40.4510498046875
6.5899999000000005,-1.3048399686813354,-32.49410629272461,-7.491456985473633,143.1427001953125,24.322509765625,-78.7506103515625
6.609999900000001,-0.871489405632019,-29.613880157470703,-6.864176273345947,179.87060546875,27.40478515625,-61.6302490234375
6.6299999000000005,-0.2753331959247589,-23.724143981933594,-5.774814605712891,192.0013427734375,26.9012451171875,-55.0994873046875
6.649999900000001,0.28730419278144836,-16.4816837310791,-4.230554580688477,190.7958984375,35.1409912109375,-54.290771484375
6.6699999000000005,0.6200982332229614,-9.3828763961792,-2.367865562438965,175.6439208984375,38.787841796875,-40.4815673828125
6.6899999,0.608127236366272,-3.406949043273926,-0.1628057211637497,154.0374755859375,33.1878662109375,-23.834228515625
6.709999900000001,0.2298433631658554,1.0223240852355957,2.293645143508911,117.2027587890625,33.99658203125,-32.40966796875
6.7299999,-0.37828385829925537,3.9049429893493652,4.776432514190674,67.8863525390625,26.6571044921875,-44.891357421875
6.749999900000001,-0.9313444495201111,5.616796970367432,6.967126846313477,14.8162841796875,4.608154296875,-35.8123779296875
6.7699999,-1.2521674633026123,6.507440090179443,8.611943244934082,-33.38623046875,-16.693115234375,-4.9896240234375
6.789999900000001,-1.2401964664459229,6.8043212890625,9.459490776062012,-74.52392578125,-29.0679931640625,30.2581787109375
6.8099999,-0.9816226959228516,6.469132900238037,9.265560150146484,-114.0899658203125,-43.39599609375,60.5621337890625
6.829999900000001,-0.667982280254364,5.238513469696045,8.164227485656738,-159.0728759765625,-49.5758056640625,78.06396484375
6.8499999,-0.2322375625371933,3.0597896575927734,5.925649166107178,-194.6868896484375,-57.8155517578125,77.880859375
6.869999900000001,0.24660277366638184,0.47644615173339844,3.1723172664642334,-218.2464599609375,-38.75732421875,65.73486328125
6.8899999,0.524330198764801,-2.8131868839263916,0.2513911724090576,-231.1859130859375,-11.77978515625,89.90478515625
6.909999900000001,0.45250412821769714,-7.594407558441162,-2.8562827110290527,-199.188232421875,-39.3218994140625,148.8494873046875
6.9299999,-0.11252748221158981,-13.917494773864746,-5.659893035888672,-134.46044921875,-38.9251708984375,113.2965087890625
6.949999900000001,-1.1659762859344482,-21.155166625976562,-7.529764175415039,-64.3310546875,16.41845703125,-10.8795166015625
6.9699999,-2.0015525817871094,-27.863719940185547,-8.858546257019043,-6.9580078125,16.3726806640625,-70.3277587890625
6.989999900000001,-2.4229321479797363,-31.77584457397461,-9.02135181427002,66.2994384765625,0.8697509765625,-49.652099609375
7.0099999,-2.279279947280884,-31.809364318847656,-8.188169479370117,129.5318603515625,23.4832763671875,-41.7022705078125
7.029999900000001,-1.6974890232086182,-28.682537078857422,-7.060500621795654,166.2445068359375,31.646728515625,-44.5709228515625
7.0499999,-1.0247182846069336,-23.1495361328125,-5.473145008087158,178.6346435546875,28.411865234375,-47.5921630859375
7.069999900000001,-0.45010992884635925,-16.65167236328125,-3.758896589279175,176.6204833984375,24.7650146484375,-42.205810546875
7.0899999000000005,-0.05985504388809204,-10.383652687072754,-1.9967641830444336,166.229248046875,22.2015380859375,-31.6619873046875
7.109999900000001,0.11971008777618408,-5.224148273468018,-0.2825157940387726,147.9644775390625,27.3590087890625,-35.1409912109375
7.1299999000000005,0.08140286058187485,-1.5658079385757446,1.45806884765625,120.330810546875,33.172607421875,-48.88916015625
7.149999900000001,-0.07900865375995636,0.7422025203704834,3.2369606494903564,86.3494873046875,30.853271484375,-54.5196533203125
7.1699999000000005,-0.2801215946674347,2.011129379272461,4.955997467041016,50.537109375,16.3116455078125,-38.57421875
7.1899999,-0.4429273009300232,2.604891538619995,6.421248912811279,19.866943359375,6.0882568359375,-14.9688720703125
7.209999900000001,-0.5410895943641663,2.7940332889556885,7.496245384216309,-13.4735107421875,3.6163330078125,-4.2877197265625
7.2299999,-0.586579442024231,2.875436305999756,8.087613105773926,-54.9774169921875,-1.8463134765625,-1.953125
7.249999900000001,-0.5626373887062073,3.2321722507476807,8.29590892791748,-100.76904296875,-17.51708984375,13.5498046875
7.2699999,-0.47405192255973816,3.665522813796997,7.790732383728027,-150.848388671875,-44.7540283203125,53.741455078125
7.289999900000001,-0.2968810200691223,3.6774938106536865,6.514622688293457,-187.6373291015625,-58.2733154296875,98.1292724609375
7.3099999,-0.10295066982507706,2.540247917175293,4.129997730255127,-216.644287109375,-51.8035888671875,105.072021484375
7.329999900000001,-0.0454898327589035,-0.42377370595932007,1.1444283723831177,-229.9957275390625,-27.40478515625,93.20068359375
7.3499999,-0.3208230137825012,-5.872976779937744,-2.406172752380371,-200.6683349609375,-33.294677734375,102.35595703125
7.369999900000001,-0.9720458984375,-14.238317489624023,-5.899312973022461,-99.7772216796875,-41.3055419921875,112.79296875
7.3899999,-1.8722656965255737,-22.692243576049805,-8.14028549194336,-27.5421142578125,9.9639892578125,-7.38525390625
7.409999900000001,-2.559401512145996,-30.605079650878906,-9.730035781860352,26.06201171875,1.46484375,-67.7032470703125
7.4299999,-2.849100112915039,-34.43819808959961,-9.679757118225098,105.6671142578125,7.049560546875,-64.6514892578125
7.449999900000001,-2.535459518432617,-33.61698532104492,-8.683769226074219,155.1055908203125,27.7862548828125,-73.3489990234375
7.4699999,-1.8291701078414917,-28.960264205932617,-7.249642848968506,179.50439453125,27.923583984375,-69.03076171875
7.489999900000001,-1.0271124839782715,-21.796812057495117,-5.355829238891602,179.229736328125,37.353515625,-69.88525390625
7.5099999,-0.3447650372982025,-14.183250427246094,-3.4332852363586426,170.013427734375,37.139892578125,-53.2379150390625
7.529999900000001,0.0694318488240242,-7.326257228851318,-1.381454348564148,153.3355712890625,40.10009765625,-43.0450439453125
7.5499999,0.16519992053508759,-2.011129379272461,0.6727706789970398,128.0059814453125,43.4722900390625,-46.0662841796875
7.569999900000001,0,1.7717092037200928,2.894589900970459,92.4224853515625,45.22705078125,-44.677734375
7.5899999000000005,-0.30885201692581177,4.206612586975098,5.092466831207275,50.2166748046875,26.55029296875,-18.402099609375
7.609999900000001,-0.5937620401382446,5.628767967224121,6.936002254486084,6.4544677734375,-2.0904541015625,18.585205078125
7.6299999000000005,-0.8259995579719543,6.114790916442871,8.248024940490723,-40.1611328125,-8.1329345703125,37.2161865234375
7.649999900000001,-0.9792284965515137,5.772420406341553,8.724471092224121,-80.7342529296875,-9.46044921875,42.144775390625
7.6699999000000005,-1.0414776802062988,4.733336925506592,8.317456245422363,-118.65234375,-26.6265869140625,43.121337890625
7.6899999,-0.871489405632019,3.24414324760437,7.017405033111572,-164.24560546875,-36.224365234375,40.313720703125
7.709999900000001,-0.49320554733276367,1.216254472732544,4.771644115447998,-199.1424560546875,-33.2183837890625,59.3414306640625
7.7299999,-0.23942017555236816,-2.2840683460235596,2.008735179901123,-187.2100830078125,-12.20703125,103.82080078125
7.749999900000001,-0.15083470940589905,-7.1490864753723145,-0.9983820915222168,-155.3192138671875,-1.678466796875,76.3702392578125
7.7699999,-0.38067805767059326,-12.720393180847168,-3.318363666534424,-135.31494140625,5.6915283203125,-18.3563232421875
7.789999900000001,-0.5291185975074768,-18.090587615966797,-4.987122058868408,-92.6055908203125,-2.685546875,-39.2303466796875
7.8099999,-0.6584054827690125,-22.615629196166992,-5.9088897705078125,-24.993896484375,-18.1121826171875,21.3165283203125
7.829999900000001,-0.6536170840263367,-26.31706428527832,-6.3973069190979,51.7120361328125,-6.8359375,45.22705078125
7.8499999,-0.7350199222564697,-28.215667724609375,-6.385335922241211,94.6197509765625,26.611328125,-52.3223876953125
7.869999900000001,-0.8164227604866028,-28.37368392944336,-6.026205539703369,124.420166015625,32.40966796875,-100.9063720703125
7.8899999,-0.7350199222564697,-25.75682258605957,-5.250484466552734,149.2919921875,28.564453125,-71.807861328125
7.909999900000001,-0.3711012601852417,-20.863073348999023,-4.225766181945801,166.80908203125,29.8919677734375,-41.8701171875
7.9299999,0.24420857429504395,-9.521739959716797,-1.6328455209732056,153.3050537109375,50.872802734375,-47.4700927734375
7.949999900000001,0.11971008777618408,-4.7836151123046875,0.031124621629714966,133.7127685546875,45.3338623046875,-47.79052734375
7.9699999,-0.2777273952960968,-0.8164227604866028,2.097320795059204,94.29931640625,43.5638427734375,-58.7615966796875
7.989999900000001,-0.7613561153411865,2.2912509441375732,4.278438568115234,51.971435546875,31.0516357421875,-45.59326171875
8.0099999,-1.1420341730117798,4.786009311676025,6.370970726013184,9.70458984375,9.552001953125,-13.946533203125
8.0299999,-1.3551181554794312,6.6127848625183105,8.087613105773926,-41.6107177734375,-7.38525390625,20.0958251953125
8.049999900000001,-1.4269442558288574,7.417236804962158,8.947132110595703,-89.9658203125,-28.228759765625,60.791015625
8.069999900000001,-1.4460978507995605,7.007828235626221,8.746018409729004,-129.0130615234375,-44.9676513671875,82.6873779296875
8.0899999,-1.4101848602294922,5.214571475982666,7.534552574157715,-168.1365966796875,-43.1671142578125,65.582275390625
8.1099999,-1.091755986213684,2.6408045291900635,5.130774021148682,-199.8138427734375,-50.8575439453125,44.2352294921875
8.129999900000001,-0.7015010714530945,-1.1204863786697388,2.0614075660705566,-209.1522216796875,-44.9066162109375,81.35986328125
8.149999900000001,-0.44771572947502136,-6.452373504638672,-1.3072341680526733,-179.931640625,-20.1416015625,121.5667724609375
8.1699999,-0.4572925269603729,-13.417106628417969,-4.431667327880859,-127.3193359375,-12.4664306640625,74.76806640625
8.1899999,-0.8547300100326538,-21.2054443359375,-6.643909931182861,-51.361083984375,-16.2353515625,-7.965087890625
8.2099999,-1.2497732639312744,-28.936321258544922,-8.233659744262695,25.32958984375,-28.228759765625,-26.8402099609375
8.229999900000001,-1.3886369466781616,-33.154903411865234,-8.631096839904785,100.6317138671875,4.1046142578125,-53.2379150390625
8.2499999,-1.1468225717544556,-33.70796585083008,-8.355764389038086,152.52685546875,33.0047607421875,-73.66943359375
8.2699999,-0.667982280254364,-30.308198928833008,-7.524975776672363,177.79541015625,25.3753662109375,-58.6090087890625
8.2899999,-0.14844051003456116,-23.93722915649414,-6.038176536560059,187.9119873046875,31.1126708984375,-55.0079345703125
8.309999900000001,0.2513911724090576,-16.59181785583496,-4.383783340454102,186.798095703125,40.7257080078125,-49.102783203125
8.3299999,0.36152446269989014,-9.651026725769043,-2.5115175247192383,176.3458251953125,44.4793701171875,-41.07666015625
8.3499999,0.12210428714752197,-3.7014358043670654,-0.35913026332855225,148.8800048828125,50.079345703125,-59.3109130859375
8.3699999,-0.3711012601852417,1.015141487121582,2.142810583114624,104.2022705078125,47.9583740234375,-71.5484619140625
8.389999900000001,-0.9457096457481384,4.618414878845215,4.797980308532715,56.610107421875,26.91650390625,-42.8924560546875
8.4099999,-1.414973258972168,7.400477409362793,7.331045627593994,6.5460205078125,3.1890869140625,-1.4801025390625
8.4299999,-1.7286136150360107,9.095572471618652,9.29189682006836,-51.69677734375,-13.2293701171875,33.6761474609375
8.4499999,-1.8914192914962769,9.691728591918945,10.33098030090332,-106.3995361328125,-27.89306640625,59.5855712890625
8.469999900000001,-1.9345149993896484,9.373299598693848,10.18493366241455,-155.181884765625,-49.346923828125,78.7811279296875
8.4899999,-1.8914192914962769,8.003816604614258,8.734047889709473,-204.4219970703125,-63.934326171875,102.35595703125
8.5099999,-1.7286136150360107,5.293580055236816,5.920860767364502,-238.4796142578125,-63.507080078125,114.44091796875
8.5299999,-1.3766659498214722,1.702277421951294,2.1140801906585693,-255.340576171875,-46.356201171875,89.508056640625
8.549999900000001,-1.2665326595306396,-3.5170822143554688,-2.0829553604125977,-245.819091796875,-22.27783203125,94.482421875
8.569999900000001,-1.501164436340332,-11.420342445373535,-6.435614109039307,-173.248291015625,-36.285400390625,147.491455078125
8.5899999,-2.1811177730560303,-19.541473388671875,-9.29189682006836,-87.005615234375,-8.0108642578125,61.4776611328125
8.6099999,-3.0119056701660156,-28.270732879638672,-11.283872604370117,-33.7371826171875,12.7716064453125,-56.1676025390625
8.629999900000001,-3.4955344200134277,-33.70796585083008,-11.614272117614746,46.875,2.44140625,-69.122314453125
8.649999900000001,-3.375824451446533,-34.9744987487793,-10.711658477783203,115.7073974609375,25.146484375,-62.3016357421875
8.6699999,-2.7126305103302,-32.22834777832031,-9.327810287475586,163.26904296875,28.5186767578125,-43.6553955078125
8.6899999,-1.8267759084701538,-26.680984497070312,-7.625532627105713,195.0836181640625,26.4129638671875,-48.6907958984375
8.709999900000001,-1.05105459690094,-19.907787322998047,-5.750872611999512,204.2999267578125,46.9512939453125,-76.019287109375
8.729999900000001,-0.4644751250743866,-12.923900604248047,-3.7277719974517822,185.6231689453125,53.466796875,-74.310302734375
8.7499999,-0.13407529890537262,-6.576871871948242,-1.623268723487854,164.4439697265625,31.9061279296875,-35.8734130859375
8.7699999,-0.10055647045373917,-1.2617442607879639,0.7733271718025208,147.308349609375,31.6314697265625,-11.5203857421875
8.7899999,-0.3208230137825012,2.43011474609375,3.090914487838745,111.9537353515625,34.5458984375,-13.2904052734375
8.809999900000001,-0.7398083209991455,4.81473970413208,5.396530628204346,62.0269775390625,24.6429443359375,-20.050048828125
8.8299999,-1.1875240802764893,6.327875137329102,7.422025203704834,2.3193359375,4.5623779296875,-13.1378173828125
8.8499999,-1.556231141090393,6.9910688400268555,8.829815864562988,-55.2825927734375,-19.34814453125,19.439697265625
8.8699999,-1.7836803197860718,7.254431247711182,9.557653427124023,-102.3406982421875,-23.101806640625,38.116455078125
8.889999900000001,-1.8746598958969116,6.71334171295166,9.165003776550293,-140.5029296875,-45.5780029296875,54.8858642578125
8.9099999,-1.8124107122421265,5.2049946784973145,7.654263019561768,-182.80029296875,-70.404052734375,79.0863037109375
8.9299999,-1.5275006294250488,2.6024973392486572,4.745307922363281,-214.5233154296875,-72.0977783203125,91.1712646484375
8.9499999,-1.2473790645599365,-1.4772224426269531,1.1013327836990356,-216.156005859375,-26.5960693359375,92.3309326171875
8.969999900000001,-1.1324573755264282,-6.938396453857422,-2.7461493015289307,-186.5234375,8.331298828125,79.77294921875
8.9899999,-1.3910311460494995,-13.967772483825684,-6.157886981964111,-124.1607666015625,-13.0767822265625,64.1021728515625
9.0099999,-2.054224967956543,-21.253328323364258,-8.157045364379883,-44.5556640625,-6.317138671875,23.1781005859375
9.0299999,-2.7724854946136475,-28.273128509521484,-9.418789863586426,19.378662109375,-3.5400390625,-22.1099853515625
9.049999900000001,-3.2537200450897217,-32.577903747558594,-9.44991397857666,96.6644287109375,15.7318115234375,-52.5054931640625
9.069999900000001,-3.2369606494903564,-33.45418167114258,-8.865729331970215,155.3192138671875,29.205322265625,-73.1048583984375
9.0899999,-2.7748796939849854,-30.4925537109375,-7.60637903213501,197.4639892578125,23.4222412109375,-55.17578125
9.1099999,-2.0159177780151367,-24.43043327331543,-5.944802761077881,204.2083740234375,22.7508544921875,-49.49951171875
9.129999900000001,-1.2282254695892334,-17.226282119750977,-4.122815132141113,204.8797607421875,17.2271728515625,-36.468505859375
9.149999900000001,-0.6512228846549988,-10.156203269958496,-2.2409727573394775,194.88525390625,21.3470458984375,-32.989501953125
9.1699999,-0.40940847992897034,-4.278438568115234,-0.33039984107017517,171.56982421875,30.1971435546875,-39.55078125
9.1899999,-0.5195417404174805,0.4189853072166443,1.9393033981323242,137.4359130859375,42.449951171875,-54.5196533203125
9.209999900000001,-0.8020575642585754,4.039018154144287,4.367023944854736,82.305908203125,26.9927978515625,-47.8973388671875
9.229999900000001,-1.0869675874710083,6.5696892738342285,6.624756336212158,26.824951171875,-12.420654296875,-1.6937255859375
9.2499999,-1.2306196689605713,8.147468566894531,8.401253700256348,-21.0418701171875,-17.181396484375,27.83203125
9.2699999,-1.2066776752471924,8.669404029846191,9.301473617553711,-74.40185546875,-8.48388671875,36.346435546875
9.2899999,-1.1061211824417114,8.281543731689453,9.23443603515625,-122.00927734375,-21.9268798828125,61.2640380859375
9.309999900000001,-1.015141487121582,7.101202011108398,8.154650688171387,-160.9649658203125,-44.9066162109375,97.381591796875
9.3299999,-0.9528923034667969,4.8267107009887695,6.064512729644775,-193.115234375,-41.4886474609375,106.62841796875
9.3499999,-0.7637503147125244,2.2433669567108154,3.1890766620635986,-235.2294921875,-5.584716796875,62.8204345703125
9.3699999,-0.7876923680305481,-1.4987702369689941,-0.16519992053508759,-248.53515625,7.7972412109375,79.9713134765625
9.389999900000001,-1.3215993642807007,-7.01979923248291,-3.6583402156829834,-204.742431640625,-9.27734375,151.30615234375
9.4099999,-2.583343744277954,-14.731523513793945,-6.641515731811523,-138.2293701171875,9.674072265625,116.912841796875
9.4299999,-4.369418144226074,-22.874202728271484,-8.066065788269043,-71.0906982421875,52.642822265625,14.434814453125
9.4499999,-6.8593878746032715,-34.84281921386719,-8.403648376464844,96.405029296875,-17.333984375,-49.774169921875
9.469999900000001,-6.682217121124268,-34.62494659423828,-7.462726593017578,153.656005859375,9.307861328125,-55.1910400390625
9.4899999,-5.681440830230713,-30.957027435302734,-6.540958881378174,186.0504150390625,-2.44140625,-57.0220947265625
9.5099999,-4.292803764343262,-24.77519989013672,-5.430049419403076,203.5369873046875,-1.220703125,-66.131591796875
9.5299999,-2.851494312286377,-17.85835075378418,-4.388571739196777,207.733154296875,6.744384765625,-66.070556640625
9.549999900000001,-1.5897499322891235,-11.130643844604492,-3.227383852005005,199.52392578125,13.9312744140625,-63.3087158203125
9.569999900000001,-0.6799532771110535,-5.351040840148926,-1.8171991109848022,179.99267578125,22.796630859375,-65.704345703125
9.5899999,-0.22505496442317963,-0.730231523513794,0.05985504388809204,154.052734375,34.088134765625,-63.6444091796875
9.6099999,-0.16759411990642548,2.808398485183716,2.38462495803833,111.9537353515625,34.088134765625,-61.9049072265625
9.629999900000001,-0.37828385829925537,5.418078422546387,4.955997467041016,57.4951171875,19.1497802734375,-52.1087646484375
9.649999900000001,-0.6823474764823914,7.091625213623047,7.33583402633667,5.584716796875,4.08935546875,-24.3377685546875
9.6699999,-0.9193734526634216,7.908048152923584,9.0859956741333,-42.17529296875,-1.800537109375,2.4566650390625
9.6899999,-1.0462661981582642,7.903259754180908,9.907206535339355,-87.9364013671875,-6.16455078125,24.871826171875
9.709999900000001,-1.1252747774124146,7.1921820640563965,9.696516990661621,-125.640869140625,-21.66748046875,53.1768798828125
9.729999900000001,-1.2473790645599365,5.4444146156311035,8.339004516601562,-160.33935546875,-36.6058349609375,74.7222900390625
9.7499999,-1.2210428714752197,3.1459810733795166,6.138733386993408,-198.1048583984375,-22.8729248046875,48.004150390625
9.7699999,-1.0127472877502441,0.3711012601852417,3.203441858291626,-232.9559326171875,-3.4637451171875,16.8609619140625
9.7899999,-0.8259995579719543,-3.1675288677215576,-0.035913024097681046,-230.2703857421875,-3.0975341796875,70.86181640625
9.809999900000001,-1.0989385843276978,-8.853757858276367,-3.359065055847168,-172.66845703125,-18.768310546875,149.1546630859375
9.8299999,-2.0901381969451904,-16.40985870361328,-6.1052141189575195,-103.8970947265625,8.2550048828125,84.259033203125
9.8499999,-3.4739866256713867,-24.272417068481445,-7.484274387359619,-43.2891845703125,37.078857421875,-84.0301513671875
9.8699999,-4.4508209228515625,-30.61705207824707,-8.106766700744629,14.4805908203125,-6.378173828125,-114.9444580078125
9.889999900000001,-4.704606533050537,-33.28179931640625,-7.536946773529053,97.198486328125,-21.5911865234375,-22.6287841796875
9.9099999,-4.043806552886963,-31.739931106567383,-6.57926607131958,155.82275390625,10.4217529296875,-20.3857421875
9.9299999,-3.023876667022705,-27.76555633544922,-5.784391403198242,183.4869384765625,11.0931396484375,-49.1485595703125
9.9499999,-2.094926595687866,-22.129606246948242,-4.7189717292785645,198.272705078125,10.3912353515625,-57.403564453125
9.969999900000001,-1.2856862545013428,-15.655684471130371,-3.442862033843994,196.96044921875,14.404296875,-54.6417236328125
9.9899999,-0.6775590777397156,-9.368511199951172,-1.9105730056762695,186.187744140625,12.4053955078125,-35.308837890625
10.0099999,-0.33279404044151306,-3.9217023849487305,-0.07422025501728058,165.83251953125,15.0909423828125,-26.123046875
10.0299999,-0.2777273952960968,0.3423708379268646,2.049436569213867,130.3558349609375,21.392822265625,-37.017822265625
10.049999900000001,-0.45010992884635925,3.397372245788574,4.343081951141357,84.6710205078125,16.998291015625,-42.388916015625
10.069999900000001,-0.6991068720817566,5.631162166595459,6.694188117980957,33.0963134765625,5.9814453125,-29.052734375
10.0899999,-0.8355764150619507,7.237671852111816,8.607154846191406,-21.4385986328125,-12.1307373046875,1.1749267578125
10.1099999,-0.8379706144332886,8.192957878112793,9.90241813659668,-70.709228515625,-21.7742919921875,41.778564453125
10.129999900000001,-0.7086837291717529,8.434772491455078,10.132261276245117,-114.8681640625,-30.6854248046875,75.592041015625
10.149999900000001,-0.5937620401382446,7.668628215789795,9.114726066589355,-156.0516357421875,-38.63525390625,97.320556640625
10.1699999,-0.5267243981361389,5.781997203826904,7.0341644287109375,-194.6563720703125,-27.34375,95.27587890625
10.1899999,-0.4381389021873474,3.2297780513763428,4.153939723968506,-231.842041015625,-5.67626953125,61.46240234375
10.209999900000001,-0.35434186458587646,-0.23942017555236816,0.5506663918495178,-243.22509765625,-6.9732666015625,74.21875
10.229999900000001,-0.7565677165985107,-4.9583916664123535,-2.8395233154296875,-217.9412841796875,15.350341796875,109.832763671875
10.2499999,-1.7501614093780518,-11.870451927185059,-5.937620162963867,-166.8548583984375,36.285400390625,83.8470458984375
10.2699999,-2.978386878967285,-18.823213577270508,-7.704541206359863,-139.70947265625,52.67333984375,-67.68798828125
10.2899999,-4.122815132141113,-25.33544158935547,-8.35097599029541,-86.639404296875,24.932861328125,-96.6339111328125
10.309999900000001,-4.841075897216797,-30.475793838500977,-8.20732307434082,32.257080078125,-23.712158203125,46.32568359375
10.3299999,-4.8602294921875,-31.792604446411133,-7.242460250854492,105.316162109375,13.61083984375,4.0740966796875
10.3499999,-4.534617900848389,-30.92829704284668,-6.366182327270508,136.0931396484375,14.46533203125,-63.3087158203125
10.3699999,-3.9815573692321777,-27.870901107788086,-5.51624059677124,167.6788330078125,-3.72314453125,-49.8046875
10.389999900000001,-3.1268274784088135,-22.797588348388672,-4.659116744995117,190.7196044921875,3.326416015625,-42.6177978515625
10.4099999,-2.1475989818573,-17.269376754760742,-4.000710964202881,202.7587890625,17.76123046875,-48.5992431640625
10.4299999,-1.290474772453308,-11.927912712097168,-3.2130186557769775,202.484130859375,28.045654296875,-53.8177490234375
10.4499999,-0.7086837291717529,-7.2137298583984375,-2.0901381969451904,183.3648681640625,31.7840576171875,-53.5125732421875
10.469999900000001,-0.4668693244457245,-3.205836057662964,-0.4405331015586853,161.3311767578125,30.975341796875,-44.3572998046875
10.4899999,-0.5339069962501526,0.014365210197865963,1.6160861253738403,130.8135986328125,33.0352783203125,-44.464111328125
10.5099999,-0.7589619159698486,2.647987127304077,4.0078935623168945,86.5631103515625,28.4423828125,-49.4537353515625
10.5299999,-0.9983820915222168,4.807557106018066,6.358999729156494,38.7115478515625,12.3443603515625,-32.623291015625
10.549999900000001,-1.1180921792984009,6.552929878234863,8.317456245422363,-7.232666015625,-8.8958740234375,8.9569091796875
10.569999900000001,-1.1755530834197998,7.723694801330566,9.62947940826416,-63.720703125,-9.063720703125,36.07177734375
10.5899999,-1.1899182796478271,8.10437297821045,9.983820915222168,-114.5477294921875,-17.39501953125,48.9501953125
10.6099999,-1.1971008777618408,7.632715225219727,9.334992408752441,-159.60693359375,-33.111572265625,56.121826171875
10.629999900000001,-1.2497732639312744,5.384559631347656,7.3669586181640625,-190.673828125,-47.607421875,76.934814453125
10.649999900000001,-1.2066776752471924,1.2832920551300049,4.1611223220825195,-200.37841796875,-34.48486328125,59.722900390625
10.6699999,-1.1683704853057861,-4.050989151000977,0.8930372595787048,-196.807861328125,23.6053466796875,-7.9803466796875
10.6899999,-1.1468225717544556,-10.32858657836914,-2.3798365592956543,-155.09033203125,8.72802734375,7.5836181640625
10.709999900000001,-1.3072341680526733,-16.297330856323242,-4.378994941711426,-87.1124267578125,-28.167724609375,73.42529296875
10.729999900000001,-1.6639702320098877,-21.246145248413086,-5.216965675354004,-43.365478515625,-11.3983154296875,51.8951416015625
10.7499999,-2.0829553604125977,-23.99708366394043,-4.924872875213623,-19.622802734375,10.3302001953125,-32.77587890625
10.7699999,-2.3367409706115723,-24.49747085571289,-3.971980571746826,3.082275390625,4.3792724609375,-57.1136474609375
10.7899999,-2.3104045391082764,-22.100875854492188,-2.4133553504943848,19.5770263671875,-1.6021728515625,-23.9715576171875
10.809999900000001,-2.0039467811584473,-18.033126831054688,-0.8978256583213806,24.4598388671875,-4.1656494140625,7.3394775390625
10.8299999,-1.6328455209732056,-13.613430976867676,0.395043283700943,21.78955078125,-0.48828125,4.0283203125
10.8499999,-1.3215993642807007,-9.892841339111328,1.237802267074585,12.481689453125,1.678466796875,-16.17431640625
10.8699999,-1.1300631761550903,-7.340622425079346,1.7741034030914307,5.31005859375,3.1585693359375,-14.251708984375
10.889999900000001,-1.01753568649292,-5.985504150390625,2.049436569213867,-0.335693359375,1.2969970703125,0.762939453125
10.9099999,-0.9744400978088379,-5.822698593139648,2.0805611610412598,-5.3253173828125,-5.462646484375,6.2408447265625
10.9299999,-0.9768342971801758,-6.53377628326416,1.9728221893310547,-9.27734375,-7.2479248046875,-8.6212158203125
10.9499999,-0.9648633003234863,-7.773972988128662,1.6735470294952393,-9.613037109375,-5.2032470703125,-18.707275390625
10.969999900000001,-0.7445967197418213,-9.888052940368652,1.0103530883789062,-4.94384765625,-1.1749267578125,0.701904296875
10.9899999,-0.6200982332229614,-10.5344877243042,0.7661445140838623,-1.89208984375,-1.5716552734375,5.8135986328125
11.0099999,-0.5530605912208557,-10.833763122558594,0.6536170840263367,-0.4730224609375,0.8392333984375,-4.0283203125
11.0299999,-0.5315127968788147,-10.884040832519531,0.6057330369949341,0.2288818359375,2.3345947265625,-9.82666015625
11.049999900000001,-0.5386953949928284,-10.615890502929688,0.6560112833976746,1.7242431640625,4.2266845703125,-4.180908203125
11.069999900000001,-0.5770025849342346,-10.213664054870605,0.7805097699165344,3.3416748046875,3.9215087890625,4.1656494140625
11.0899999,-0.6584054827690125,-9.816226959228516,0.9313444495201111,2.38037109375,2.0294189453125,1.983642578125
11.1099999,-0.7733271718025208,-9.593565940856934,1.0773907899856567,1.007080078125,0.1983642578125,-3.2806396484375
11.129999900000001,-0.8786720037460327,-9.512163162231445,1.158793568611145,0.2899169921875,0.6866455078125,-4.4708251953125
11.149999900000001,-0.9241618514060974,-9.50498104095459,1.1659762859344482,-0.213623046875,0.457763671875,-0.8392333984375
11.1699999,-0.933738648891449,-9.600749015808105,1.1109095811843872,1.6937255859375,0.946044921875,3.753662109375
11.1899999,-0.9097966551780701,-9.694122314453125,1.0678139925003052,2.2430419921875,2.0294189453125,-0.274658203125
11.209999900000001,-0.8810662031173706,-9.801861763000488,1.0342950820922852,1.52587890625,1.251220703125,-3.6468505859375
11.229999900000001,-0.849941611289978,-9.847352027893066,1.0247182846069336,0.8544921875,0.4425048828125,-0.8392333984375
11.2499999,-0.8092401623725891,-9.794678688049316,1.048660397529602,0.579833984375,1.312255859375,2.3193359375
11.2699999,-0.7757213711738586,-9.749189376831055,1.0342950820922852,0.8087158203125,1.190185546875,3.570556640625
11.2899999,-0.7661445140838623,-9.751583099365234,1.0271124839782715,1.5869140625,1.7547607421875,1.373291015625
11.309999900000001,-0.768538773059845,-9.782708168029785,1.015141487121582,1.3427734375,3.11279296875,-3.173828125
11.3299999,-0.7996633648872375,-9.835380554199219,1.0438719987869263,2.5482177734375,3.4942626953125,-1.9989013671875
11.3499999,-0.8164227604866028,-9.797073364257812,1.0893617868423462,1.1138916015625,1.251220703125,-0.67138671875
11.3699999,-0.8379706144332886,-9.734824180603027,1.1324573755264282,-0.0762939453125,0.0152587890625,1.2359619140625
11.389999900000001,-0.8643068075180054,-9.674968719482422,1.170764684677124,-0.2899169921875,0.6866455078125,1.6937255859375
11.4099999,-0.8882488012313843,-9.643844604492188,1.1827356815338135,-0.7476806640625,1.3275146484375,-1.007080078125
11.4299999,-0.9026140570640564,-9.672574996948242,1.1659762859344482,-0.4119873046875,-0.8392333984375,-1.1749267578125
11.4499999,-0.8978256583213806,-9.706093788146973,1.1444283723831177,-1.0223388671875,-0.7781982421875,-0.5645751953125
11.469999900000001,-0.8738836050033569,-9.737217903137207,1.1204863786697388,-1.1138916015625,0.5950927734375,0.2899169921875
11.4899999,-0.8451532125473022,-9.813833236694336,1.0654197931289673,-0.244140625,0.518798828125,0.6866455078125
11.5099999,-0.8236053586006165,-9.904812812805176,1.0247182846069336,0.2899169921875,0.9918212890625,-2.1209716796875
11.5299999,-0.8188169598579407,-10.002974510192871,1.0055646896362305,0.7781982421875,2.7008056640625,-6.134033203125
11.549999900000001,-0.8068459630012512,-10.010157585144043,1.0247182846069336,1.190185546875,1.8157958984375,-6.16455078125
11.569999900000001,-0.7805097699165344,-9.923966407775879,1.0558429956436157,1.129150390625,-0.3662109375,-2.3193359375
11.5899999,-0.7445967197418213,-9.792284965515137,1.094150185585022,1.1444091796875,-0.4730224609375,2.9296875
11.6099999,-0.7110779285430908,-9.648633003234863,1.1180921792984009,0.457763671875,1.40380859375,1.7242431640625
11.629999900000001,-0.7015010714530945,-9.612719535827637,1.1204863786697388,-0.0152587890625,1.7242431640625,0.5035400390625
11.649999900000001,-0.706289529800415,-9.617507934570312,1.115697979927063,0.274658203125,1.2054443359375,-0.3204345703125
11.6699999,-0.7206547260284424,-9.622296333312988,1.1348515748977661,0.2593994140625,2.0904541015625,-1.251220703125
11.6899999,-0.7254431247711182,-9.612719535827637,1.139639973640442,-0.244140625,1.5716552734375,0.5645751953125
11.709999900000001,-0.7206547260284424,-9.569623947143555,1.1516109704971313,-1.15966796875,1.0833740234375,3.021240234375
11.729999900000001,-0.730231523513794,-9.569623947143555,1.158793568611145,0.030517578125,0.1678466796875,5.92041015625
11.7499999,-0.7469909191131592,-9.622296333312988,1.139639973640442,1.312255859375,-0.8544921875,5.79833984375
11.7699999,-0.7852981686592102,-9.708487510681152,1.137245774269104,2.5787353515625,-0.18310546875,3.4332275390625
11.7899999,-0.828393816947937,-9.828198432922363,1.1180921792984009,2.044677734375,0.0762939453125,2.8228759765625
11.809999900000001,-0.8595184087753296,-9.864110946655273,1.1204863786697388,0.091552734375,0.7476806640625,1.739501953125
11.8299999,-0.871489405632019,-9.828198432922363,1.1300631761550903,-2.227783203125,0.9002685546875,2.105712890625
11.8499999,-0.8786720037460327,-9.821015357971191,1.1061211824417114,-2.410888671875,0.2593994140625,6.1187744140625
11.8699999,-0.8858546018600464,-9.821015357971191,1.0965443849563599,-0.1373291015625,2.227783203125,4.2266845703125
11.889999900000001,-0.9074024558067322,-9.856928825378418,1.0989385843276978,0.0762939453125,3.7078857421875,-2.7618408203125
11.9099999,-0.9241618514060974,-9.90241813659668,1.0821791887283325,0.213623046875,0.6561279296875,-2.86865234375
11.9299999,-0.9385270476341248,-9.847352027893066,1.1276689767837524,-0.274658203125,1.6326904296875,-1.52587890625
11.9499999,-0.9313444495201111,-9.806650161743164,1.1061211824417114,-0.0762939453125,0.7171630859375,1.8463134765625
11.969999900000001,-0.9193734526634216,-9.732429504394531,1.1204863786697388,-1.1138916015625,2.5787353515625,-0.701904296875
11.9899999,-0.9169792532920837,-9.737217903137207,1.115697979927063,-0.518798828125,2.7923583984375,-1.8157958984375
12.0099999,-0.9217676520347595,-9.770736694335938,1.1420341730117798,0.518798828125,0.54931640625,-1.434326171875
12.0299999,-0.9193734526634216,-9.775525093078613,1.1635819673538208,0.030517578125,-0.48828125,-3.1585693359375
12.049999900000001,-0.9002198576927185,-9.765948295593262,1.1563993692398071,-0.3814697265625,-0.1373291015625,-3.4637451171875
12.069999900000001,-0.8595184087753296,-9.734824180603027,1.1109095811843872,-0.48828125,1.52587890625,-2.197265625
12.0899999,-0.8140285611152649,-9.706093788146973,1.0773907899856567,0.0457763671875,4.180908203125,-1.4801025390625
12.1099999,-0.7781155705451965,-9.713275909423828,1.0462661981582642,0.5340576171875,3.3721923828125,-1.5869140625
12.129999900000001,-0.7637503147125244,-9.768342971801758,1.048660397529602,0.5035400390625,2.471923828125,-2.38037109375
12.149999900000001,-0.768538773059845,-9.797073364257812,1.072602391242981,0.8087158203125,3.2196044921875,-4.058837890625
12.1699999,-0.7829039692878723,-9.816226959228516,1.1061211824417114,1.03759765625,3.4637451171875,-2.9754638671875
12.1899999,-0.7948749661445618,-9.797073364257812,1.1348515748977661,0.762939453125,2.25830078125,-0.8392333984375
12.209999900000001,-0.8188169598579407,-9.770736694335938,1.173158884048462,0.18310546875,1.5869140625,-0.9765625
12.229999900000001,-0.8475474119186401,-9.780313491821289,1.2018892765045166,0.4730224609375,1.190185546875,-2.5787353515625
12.2499999,-0.8619126081466675,-9.801861763000488,1.1875240802764893,0,0.4425048828125,-5.1422119140625
12.2699999,-0.8571242094039917,-9.792284965515137,1.192312479019165,-0.3509521484375,1.983642578125,-5.9814453125
12.289999900000002,-0.8212111592292786,-9.770736694335938,1.1540051698684692,0.2288818359375,0.8392333984375,-2.288818359375
12.309999900000001,-0.7781155705451965,-9.744400978088379,1.137245774269104,0.274658203125,0.5950927734375,-0.1373291015625
12.3299999,-0.7422025203704834,-9.742006301879883,1.137245774269104,0.091552734375,1.708984375,-2.166748046875
12.3499999,-0.7134721279144287,-9.770736694335938,1.1204863786697388,-0.5035400390625,0.244140625,-3.7689208984375
12.3699999,-0.7015010714530945,-9.765948295593262,1.137245774269104,-1.220703125,1.7852783203125,-3.5552978515625
12.389999900000001,-0.6871358752250671,-9.75637149810791,1.1300631761550903,-0.7171630859375,1.3275146484375,-0.6256103515625
12.4099999,-0.6775590777397156,-9.727641105651855,1.1300631761550903,-0.457763671875,1.2359619140625,0.213623046875
12.4299999,-0.6775590777397156,-9.725247383117676,1.139639973640442,-0.1678466796875,1.617431640625,-0.79345703125
12.4499999,-0.6847416758537292,-9.751583099365234,1.158793568611145,0.3509521484375,0.457763671875,-1.251220703125
12.469999900000001,-0.6823474764823914,-9.768342971801758,1.1516109704971313,0.06103515625,-0.4730224609375,-1.46484375
12.4899999,-0.6727706789970398,-9.770736694335938,1.1228805780410767,-1.0833740234375,2.0599365234375,0.1220703125
12.5099999,-0.6703764796257019,-9.77791976928711,1.1085153818130493,-1.0833740234375,1.8157958984375,-0.396728515625
12.5299999,-0.6847416758537292,-9.813833236694336,1.0989385843276978,-0.54931640625,1.15966796875,-1.220703125
12.549999900000001,-0.7015010714530945,-9.830592155456543,1.115697979927063,-0.5645751953125,1.739501953125,-3.814697265625
12.569999900000001,-0.7134721279144287,-9.80904483795166,1.1348515748977661,-1.1444091796875,1.220703125,-4.6539306640625
12.5899999,-0.7110779285430908,-9.782708168029785,1.1324573755264282,-1.190185546875,0.0457763671875,-1.89208984375
12.6099999,-0.6919242739677429,-9.725247383117676,1.139639973640442,-1.373291015625,1.03759765625,-1.2664794921875
12.629999900000001,-0.6655880808830261,-9.701305389404297,1.113303780555725,-1.6632080078125,1.8310546875,-1.64794921875
12.649999900000001,-0.646434485912323,-9.708487510681152,1.094150185585022,-1.556396484375,1.983642578125,-1.2359619140625
12.6699999,-0.6344634294509888,-9.734824180603027,1.0773907899856567,-1.617431640625,1.89208984375,-1.1444091796875
12.6899999,-0.6344634294509888,-9.773131370544434,1.0773907899856567,-1.312255859375,2.01416015625,-1.5869140625
12.709999900000001,-0.6248866319656372,-9.794678688049316,1.0630255937576294,-0.9307861328125,1.28173828125,-1.7852783203125
12.729999900000001,-0.6200982332229614,-9.792284965515137,1.0797849893569946,-0.762939453125,1.953125,-0.2899169921875
12.7499999,-0.6129156351089478,-9.804255485534668,1.0773907899856567,0.1068115234375,1.4801025390625,2.13623046875
12.7699999,-0.6129156351089478,-9.78989028930664,1.094150185585022,0.06103515625,1.03759765625,-0.0457763671875
12.789999900000002,-0.6224924325942993,-9.806650161743164,1.094150185585022,-0.3662109375,1.007080078125,-1.4190673828125
12.809999900000001,-0.6320692300796509,-9.813833236694336,1.0893617868423462,-0.762939453125,1.52587890625,-0.732421875
12.8299999,-0.6392518281936646,-9.806650161743164,1.0869675874710083,-0.2288818359375,1.7547607421875,-0.0762939453125
12.8499999,-0.6392518281936646,-9.801861763000488,1.0797849893569946,-0.213623046875,1.251220703125,-0.2288818359375
12.8699999,-0.6344634294509888,-9.797073364257812,1.0749965906143188,-0.030517578125,1.1749267578125,-0.640869140625
12.889999900000001,-0.6248866319656372,-9.773131370544434,1.0749965906143188,-0.2899169921875,1.8768310546875,-1.068115234375
12.9099999,-0.6200982332229614,-9.770736694335938,1.0654197931289673,0.152587890625,2.1820068359375,0.762939453125
12.9299999,-0.6224924325942993,-9.744400978088379,1.0821791887283325,-0.5035400390625,1.9683837890625,0.335693359375
12.9499999,-0.6344634294509888,-9.742006301879883,1.0893617868423462,-1.434326171875,1.15966796875,-0.732421875
12.969999900000001,-0.6488286852836609,-9.730035781860352,1.113303780555725,-1.556396484375,1.1444091796875,-1.068115234375
12.9899999,-0.6560112833976746,-9.6989107131958,1.1204863786697388,-1.739501953125,1.0986328125,-1.9073486328125
13.0099999,-0.6488286852836609,-9.66539192199707,1.0989385843276978,-2.7923583984375,1.1138916015625,-1.953125
13.0299999,-0.6392518281936646,-9.617507934570312,1.094150185585022,-3.8604736328125,3.021240234375,-2.5482177734375
13.049999900000001,-0.6272808313369751,-9.627084732055664,1.070208191871643,-3.662109375,2.471923828125,-1.8463134765625
13.069999900000001,-0.6129156351089478,-9.679757118225098,1.05105459690094,-2.716064453125,0.9613037109375,-1.708984375
13.0899999,-0.586579442024231,-9.75637149810791,1.0247182846069336,-2.13623046875,1.129150390625,-2.5482177734375
13.1099999,-0.5530605912208557,-9.84495735168457,0.993593692779541,-1.434326171875,2.2125244140625,-0.79345703125
13.129999900000001,-0.5195417404174805,-9.911994934082031,0.9672574996948242,-0.4425048828125,2.2735595703125,1.5106201171875
13.149999900000001,-0.507570743560791,-9.938331604003906,0.9600749015808105,-0.6561279296875,1.8157958984375,1.15966796875
13.1699999,-0.5291185975074768,-9.959878921508789,0.9768342971801758,-0.244140625,1.190185546875,0.701904296875
13.1899999,-0.569819986820221,-9.955090522766113,0.9911994934082031,-0.2593994140625,0.030517578125,-0.1678466796875
13.209999900000001,-0.6177040338516235,-9.923966407775879,1.0079588890075684,-0.4119873046875,0.8544921875,-1.129150390625
13.229999900000001,-0.6488286852836609,-9.883264541625977,0.9959878921508789,-0.2593994140625,1.3885498046875,-1.129150390625
13.2499999,-0.6655880808830261,-9.837775230407715,0.9959878921508789,-0.7171630859375,1.9378662109375,-1.129150390625
13.2699999,-0.6584054827690125,-9.804255485534668,0.9911994934082031,-0.946044921875,1.739501953125,-1.5411376953125
13.289999900000002,-0.629675030708313,-9.780313491821289,0.9959878921508789,-1.068115234375,1.28173828125,-1.3427734375
13.309999900000001,-0.5937620401382446,-9.773131370544434,1.0079588890075684,-0.640869140625,1.1138916015625,-0.1220703125
13.3299999,-0.5530605912208557,-9.768342971801758,1.0079588890075684,-0.0457763671875,0.885009765625,0.030517578125
13.3499999,-0.524330198764801,-9.768342971801758,0.993593692779541,-0.2593994140625,0.701904296875,-0.48828125
13.3699999,-0.5171475410461426,-9.75397777557373,0.9959878921508789,-1.1444091796875,2.105712890625,-1.068115234375
13.389999900000001,-0.5267243981361389,-9.742006301879883,1.0055646896362305,-1.0986328125,2.1209716796875,-0.1983642578125
13.4099999,-0.5386953949928284,-9.710882186889648,1.0103530883789062,-1.5411376953125,-0.091552734375,-0.3204345703125
13.4299999,-0.5602431893348694,-9.674968719482422,1.0271124839782715,-2.1514892578125,0.823974609375,-1.2664794921875
13.4499999,-0.5746083855628967,-9.655815124511719,1.015141487121582,-2.5177001953125,1.3427734375,-1.068115234375
13.469999900000001,-0.586579442024231,-9.667786598205566,1.0007762908935547,-2.410888671875,1.800537109375,-0.7476806640625
13.4899999,-0.5913678407669067,-9.706093788146973,0.9983820915222168,-1.983642578125,1.0528564453125,-1.2054443359375
13.5099999,-0.5841852426528931,-9.794678688049316,0.9720458984375,-1.922607421875,-0.1373291015625,-1.068115234375
13.5299999,-0.5722141861915588,-9.880870819091797,0.9624691009521484,-1.4495849609375,0.6103515625,-0.5340576171875
13.549999900000001,-0.5506663918495178,-9.95748519897461,0.9193734526634216,-0.2288818359375,1.28173828125,-0.4425048828125
13.569999900000001,-0.5410895943641663,-10.010157585144043,0.8954314589500427,0.4425048828125,1.2359619140625,-0.518798828125
13.5899999,-0.5506663918495178,-10.007762908935547,0.8858546018600464,0.48828125,1.312255859375,-1.5106201171875
13.6099999,-0.569819986820221,-9.974244117736816,0.9050082564353943,0.42724609375,0.91552734375,-1.556396484375
13.629999900000001,-0.5841852426528931,-9.907206535339355,0.9265560507774353,0.335693359375,-0.3204345703125,-1.3427734375
13.649999900000001,-0.5793967843055725,-9.816226959228516,0.9528923034667969,-0.5035400390625,0.06103515625,-1.77001953125
13.6699999,-0.5626373887062073,-9.773131370544434,0.9600749015808105,-0.3814697265625,0.3814697265625,-0.244140625
13.6899999,-0.5339069962501526,-9.744400978088379,0.9624691009521484,-0.4425048828125,0.67138671875,-0.885009765625
13.709999900000001,-0.5027823448181152,-9.732429504394531,0.9576807022094727,-0.54931640625,0.8392333984375,-1.983642578125
13.729999900000001,-0.47405192255973816,-9.739612579345703,0.950498104095459,-1.0223388671875,1.2359619140625,-1.2054443359375
13.7499999,-0.45489832758903503,-9.739612579345703,0.9433154463768005,-0.823974609375,1.9378662109375,-0.1373291015625
13.7699999,-0.44532153010368347,-9.746794700622559,0.9361328482627869,-0.640869140625,1.983642578125,-1.068115234375
13.789999900000002,-0.45250412821769714,-9.744400978088379,0.9409212470054626,-0.5645751953125,1.7242431640625,-1.983642578125
13.809999900000001,-0.4668693244457245,-9.768342971801758,0.9409212470054626,-0.6256103515625,1.1138916015625,-0.9765625
13.8299999,-0.4812345504760742,-9.770736694335938,0.9457096457481384,-0.579833984375,1.5869140625,-1.251220703125
13.8499999,-0.4908113479614258,-9.801861763000488,0.9385270476341248,0.4425048828125,1.739501953125,-0.9613037109375
13.8699999,-0.5027823448181152,-9.847352027893066,0.9409212470054626,0.9002685546875,1.2664794921875,-0.152587890625
13.889999900000001,-0.5171475410461426,-9.904812812805176,0.933738648891449,0.9307861328125,0.3662109375,-0.7781982421875
13.9099999,-0.5315127968788147,-9.93593692779541,0.9385270476341248,0.579833984375,0.4119873046875,-2.410888671875
13.9299999,-0.5506663918495178,-9.964667320251465,0.9385270476341248,0.7781982421875,0.48828125,-1.922607421875
13.9499999,-0.545877993106842,-9.938331604003906,0.9289502501487732,0.1983642578125,0.3662109375,-2.655029296875
13.969999900000001,-0.524330198764801,-9.871294021606445,0.933738648891449,0.1068115234375,1.129150390625,-3.0670166015625
13.9899999,-0.4908113479614258,-9.816226959228516,0.9409212470054626,0.48828125,0.946044921875,-1.007080078125
14.0099999,-0.40462008118629456,-9.715670585632324,0.9720458984375,-0.4119873046875,0.1678466796875,-2.8228759765625
14.0299999,-0.3687070608139038,-9.708487510681152,0.9696516990661621,-0.2899169921875,0.885009765625,-1.4495849609375
14.049999900000001,-0.33518823981285095,-9.68694019317627,0.9672574996948242,-0.30517578125,1.7852783203125,0.213623046875
14.069999900000001,-0.3208230137825012,-9.691728591918945,0.9576807022094727,-0.3509521484375,1.7852783203125,1.0833740234375
14.0899999,-0.33997663855552673,-9.732429504394531,0.9576807022094727,0.1068115234375,1.0833740234375,1.3427734375
14.1099999,-0.38067805767059326,-9.787496566772461,0.9528923034667969,0.091552734375,0.5340576171875,-0.6103515625
14.129999900000001,-0.42377370595932007,-9.847352027893066,0.9409212470054626,-0.42724609375,1.220703125,-1.6021728515625
14.149999900000001,-0.4668693244457245,-9.876082420349121,0.9433154463768005,-0.06103515625,2.5177001953125,-0.5645751953125
14.1699999,-0.4836287498474121,-9.8784761428833,0.9385270476341248,0.518798828125,0.9918212890625,0.396728515625
14.1899999,-0.4884171485900879,-9.854534149169922,0.9528923034667969,0.1068115234375,0.1678466796875,-0.518798828125
14.209999900000001,-0.47884035110473633,-9.837775230407715,0.9624691009521484,-0.213623046875,0.1068115234375,-1.0833740234375
14.229999900000001,-0.4596867263317108,-9.823410034179688,0.9696516990661621,-0.091552734375,1.2664794921875,-1.3275146484375
14.2499999,-0.42616790533065796,-9.80904483795166,0.9624691009521484,0.1068115234375,0.54931640625,-0.9765625
14.2699999,-0.3974374830722809,-9.787496566772461,0.9696516990661621,-0.396728515625,0.946044921875,-1.0528564453125
14.289999900000002,-0.3734954595565796,-9.780313491821289,0.9648633003234863,-0.5645751953125,0.762939453125,-0.396728515625
14.309999900000001,-0.35913026332855225,-9.770736694335938,0.9600749015808105,-0.5340576171875,0.54931640625,-0.244140625
14.3299999,-0.35913026332855225,-9.770736694335938,0.9528923034667969,-0.396728515625,1.1138916015625,-0.1678466796875
14.3499999,-0.3711012601852417,-9.794678688049316,0.9409212470054626,0,0.9613037109375,0.701904296875
14.3699999,-0.38546648621559143,-9.799467086791992,0.9409212470054626,0.579833984375,0.8392333984375,0.42724609375
14.389999900000001,-0.3998316824436188,-9.806650161743164,0.9457096457481384,0.54931640625,0.9307861328125,0.4730224609375
14.4099999,-0.40940847992897034,-9.81143856048584,0.9552865028381348,0.4425048828125,0.7781982421875,0.9307861328125
14.4299999,-0.40940847992897034,-9.797073364257812,0.9648633003234863,-0.2899169921875,0.4425048828125,0
14.4499999,-0.4118026793003082,-9.801861763000488,0.9600749015808105,-0.30517578125,0.4730224609375,0.18310546875
14.469999900000001,-0.4118026793003082,-9.818621635437012,0.9481038451194763,-0.30517578125,0.9613037109375,0.2899169921875
14.4899999,-0.40940847992897034,-9.825803756713867,0.9313444495201111,-0.5950927734375,1.9989013671875,-0.5645751953125
14.5099999,-0.4141969084739685,-9.837775230407715,0.9361328482627869,-0.5340576171875,1.9989013671875,-0.4425048828125
14.5299999,-0.4141969084739685,-9.840168952941895,0.9289502501487732,0.030517578125,0.8087158203125,0.274658203125
14.549999900000001,-0.4165911078453064,-9.821015357971191,0.9600749015808105,-0.091552734375,1.4495849609375,-0.3204345703125
14.569999900000001,-0.4165911078453064,-9.813833236694336,0.9672574996948242,0.091552734375,0.762939453125,-0.091552734375
14.5899999,-0.40701428055763245,-9.799467086791992,0.9720458984375,-0.030517578125,0.3509521484375,-0.4119873046875
14.6099999,-0.3926490843296051,-9.770736694335938,0.9816226959228516,-0.5035400390625,1.8310546875,-0.823974609375
14.629999900000001,-0.3711012601852417,-9.75397777557373,0.9744400978088379,-0.18310546875,1.1444091796875,0.42724609375
14.649999900000001,-0.35434186458587646,-9.730035781860352,0.9696516990661621,-0.1068115234375,0.48828125,1.1138916015625
14.6699999,-0.35673606395721436,-9.734824180603027,0.9768342971801758,-0.579833984375,1.4495849609375,1.190185546875
14.6899999,-0.3758896589279175,-9.773131370544434,0.9648633003234863,-0.5340576171875,0.6561279296875,1.0528564453125
14.709999900000001,-0.4118026793003082,-9.821015357971191,0.9528923034667969,0,0.7171630859375,-0.518798828125
14.729999900000001,-0.45489832758903503,-9.876082420349121,0.9433154463768005,-0.335693359375,1.40380859375,-1.3580322265625
14.7499999,-0.47884035110473633,-9.909601211547852,0.933738648891449,-0.457763671875,1.190185546875,-1.3580322265625
14.7699999,-0.47644615173339844,-9.892841339111328,0.9217676520347595,-1.220703125,0.42724609375,-2.0599365234375
14.789999900000002,-0.45250412821769714,-9.864110946655273,0.933738648891449,-0.5035400390625,1.6021728515625,-1.0528564453125
14.809999900000001,-0.4165911078453064,-9.825803756713867,0.9457096457481384,0.823974609375,0.91552734375,0.5340576171875
14.8299999,-0.37828385829925537,-9.785101890563965,0.9600749015808105,0.30517578125,-0.091552734375,-0.1983642578125
14.8499999,-0.35913026332855225,-9.75397777557373,0.9768342971801758,0.579833984375,0.6561279296875,-0.1678466796875
14.8699999,-0.3471592366695404,-9.727641105651855,0.9720458984375,0.2899169921875,1.28173828125,0.335693359375
14.889999900000001,-0.3471592366695404,-9.708487510681152,0.9696516990661621,-0.9307861328125,1.922607421875,0.30517578125
14.9099999,-0.35673606395721436,-9.703699111938477,0.9720458984375,-0.3814697265625,1.52587890625,0.1068115234375
14.9299999,-0.36152446269989014,-9.727641105651855,0.9696516990661621,-0.8544921875,0.5035400390625,-0.5340576171875
14.9499999,-0.363918662071228,-9.758766174316406,0.9648633003234863,-1.8768310546875,0.9613037109375,-0.457763671875
14.969999900000001,-0.3519476354122162,-9.780313491821289,0.950498104095459,-2.288818359375,2.1209716796875,-0.2899169921875
14.9899999,-0.3519476354122162,-9.797073364257812,0.9409212470054626,-1.708984375,1.861572265625,1.3580322265625
15.0099999,-0.3687070608139038,-9.830592155456543,0.9289502501487732,-0.213623046875,0.7476806640625,2.593994140625
15.0299999,-0.40462008118629456,-9.864110946655273,0.9385270476341248,-0.7171630859375,0.213623046875,0.9002685546875
15.049999900000001,-0.45010992884635925,-9.921571731567383,0.9361328482627869,-0.5340576171875,0.48828125,-0.5035400390625
15.069999900000001,-0.47884035110473633,-9.945513725280762,0.9289502501487732,-0.457763671875,0.5645751953125,-1.4801025390625
15.0899999,-0.4836287498474121,-9.926360130310059,0.9217676520347595,0.274658203125,0.6561279296875,-1.3427734375
15.1099999,-0.47405192255973816,-9.9000244140625,0.9145850539207458,1.708984375,0.1983642578125,0.67138671875
15.129999900000001,-0.44532153010368347,-9.832986831665039,0.9193734526634216,1.03759765625,0,-0.0762939453125
15.149999900000001,-0.4141969084739685,-9.797073364257812,0.9361328482627869,0.3814697265625,0.4119873046875,-0.3204345703125
15.1699999,-0.37828385829925537,-9.770736694335938,0.9313444495201111,0.518798828125,-0.1678466796875,0.579833984375
15.1899999,-0.3447650372982025,-9.739612579345703,0.9552865028381348,-0.1068115234375,1.0833740234375,-0.5950927734375
15.209999900000001,-0.3256114423274994,-9.75397777557373,0.9528923034667969,0.457763671875,1.0528564453125,0.4730224609375
15.229999900000001,-0.31364041566848755,-9.761159896850586,0.9433154463768005,-0.3204345703125,0.5035400390625,0.1983642578125
15.2499999,-0.3208230137825012,-9.768342971801758,0.9457096457481384,-1.3580322265625,2.1820068359375,-0.7781982421875
15.2699999,-0.3495534360408783,-9.797073364257812,0.9433154463768005,-1.6021728515625,2.349853515625,0.152587890625
15.289999900000002,-0.38307225704193115,-9.797073364257812,0.9576807022094727,-1.5716552734375,0.9307861328125,-0.4730224609375
15.309999900000001,-0.4165911078453064,-9.80904483795166,0.9720458984375,-0.9765625,0.06103515625,-1.068115234375
15.3299999,-0.43335050344467163,-9.828198432922363,0.9648633003234863,-1.28173828125,0,-0.5950927734375
15.3499999,-0.43095630407333374,-9.852140426635742,0.9481038451194763,-3.8909912109375,1.617431640625,-1.739501953125
15.3699999,-0.4213795065879822,-9.84256362915039,0.9457096457481384,-6.8511962890625,2.532958984375,-4.1656494140625
15.389999900000001,-0.4165911078453064,-9.847352027893066,0.933738648891449,-6.28662109375,0.457763671875,-3.1890869140625
15.4099999,-0.4118026793003082,-9.825803756713867,0.9361328482627869,-4.08935546875,-1.007080078125,-2.6397705078125
15.4299999,-0.38546648621559143,-9.785101890563965,0.8906430602073669,-4.7454833984375,0.2288818359375,-4.21142578125
15.4499999,-0.3447650372982025,-9.765948295593262,0.8427590131759644,-4.4708251953125,2.5634765625,-2.685546875
15.469999900000001,-0.29209262132644653,-9.751583099365234,0.7972691655158997,-1.9378662109375,2.838134765625,-0.3662109375
15.4899999,-0.24899697303771973,-9.768342971801758,0.7829039692878723,-1.5411376953125,1.2359619140625,0.152587890625
15.5099999,-0.2322375625371933,-9.801861763000488,0.7948749661445618,-1.5869140625,0.6561279296875,-0.18310546875
15.5299999,-0.26336219906806946,-9.854534149169922,0.8259995579719543,-0.091552734375,0.2899169921875,0.701904296875
15.549999900000001,-0.28730419278144836,-9.84256362915039,0.8140285611152649,-0.030517578125,-0.1068115234375,0.213623046875
15.569999900000001,-0.31124621629714966,-9.80904483795166,0.8140285611152649,-0.946044921875,1.15966796875,-0.3662109375
15.5899999,-0.33518823981285095,-9.797073364257812,0.8044517636299133,-0.1983642578125,1.068115234375,1.068115234375
15.6099999,-0.35434186458587646,-9.78989028930664,0.8140285611152649,0.457763671875,0.3662109375,0.9307861328125
15.629999900000001,-0.3687070608139038,-9.813833236694336,0.8164227604866028,0.48828125,-0.213623046875,0.335693359375
15.649999900000001,-0.3758896589279175,-9.840168952941895,0.8236053586006165,0.7171630859375,0.42724609375,0.244140625
15.6699999,-0.3687070608139038,-9.849745750427246,0.8188169598579407,0.5950927734375,1.0833740234375,-0.244140625
15.6899999,-0.3519476354122162,-9.852140426635742,0.8020575642585754,0.54931640625,0.7171630859375,0.06103515625
15.709999900000001,-0.3423708379268646,-9.852140426635742,0.8188169598579407,0.30517578125,1.1749267578125,-0.091552734375
15.729999900000001,-0.3256114423274994,-9.86650562286377,0.8188169598579407,-0.48828125,0.0152587890625,-1.0223388671875
15.7499999,-0.3016694188117981,-9.854534149169922,0.8331822156906128,-0.6561279296875,-0.2593994140625,-2.227783203125
15.7699999,-0.26815059781074524,-9.849745750427246,0.8259995579719543,-0.06103515625,0.701904296875,-0.946044921875
15.789999900000002,-0.2298433631658554,-9.797073364257812,0.811634361743927,-0.244140625,1.64794921875,-0.1983642578125
15.809999900000001,-0.21308395266532898,-9.751583099365234,0.7996633648872375,-0.6103515625,2.2735595703125,-0.4119873046875
15.8299999,-0.2322375625371933,-9.737217903137207,0.8020575642585754,0.1678466796875,2.3193359375,0.2899169921875
15.8499999,-0.26815059781074524,-9.75397777557373,0.8020575642585754,-0.335693359375,1.1444091796875,-1.2054443359375
15.869999900000002,-0.31364041566848755,-9.799467086791992,0.8068459630012512,-0.4730224609375,1.5106201171875,-2.3651123046875
15.889999900000001,-0.3447650372982025,-9.856928825378418,0.7948749661445618,-0.1220703125,2.1514892578125,-0.7476806640625
15.9099999,-0.35913026332855225,-9.904812812805176,0.7852981686592102,0.3204345703125,2.4566650390625,0.30517578125
15.9299999,-0.3687070608139038,-9.931148529052734,0.7948749661445618,0.4425048828125,2.197265625,-0.4119873046875
15.9499999,-0.38067805767059326,-9.943120002746582,0.8379706144332886,1.2054443359375,0.5950927734375,-1.2054443359375
15.969999900000001,-0.3758896589279175,-9.93593692779541,0.8595184087753296,1.0986328125,-1.9683837890625,-1.6021728515625
15.9899999,-0.35673606395721436,-9.876082420349121,0.8954314589500427,0.579833984375,-0.885009765625,-1.9989013671875
16.0099999,-0.31603461503982544,-9.830592155456543,0.8834604024887085,0.9918212890625,-0.5340576171875,-0.18310546875
16.0299999,-0.26815059781074524,-9.787496566772461,0.8619126081466675,1.068115234375,-1.0833740234375,0.3204345703125
16.0499999,-0.2346317619085312,-9.75637149810791,0.8355764150619507,0.30517578125,-0.335693359375,-1.007080078125
16.0699999,-0.21547815203666687,-9.763554573059082,0.8140285611152649,0.1983642578125,1.03759765625,-0.30517578125
16.089999900000002,-0.21547815203666687,-9.770736694335938,0.8020575642585754,0.1220703125,1.434326171875,0.2899169921875
16.109999900000002,-0.22266076505184174,-9.775525093078613,0.8092401623725891,-0.274658203125,1.64794921875,-0.4425048828125
16.1299999,-0.2322375625371933,-9.787496566772461,0.8164227604866028,0.030517578125,1.4801025390625,-0.0457763671875
16.1499999,-0.23942017555236816,-9.794678688049316,0.8379706144332886,0.274658203125,1.708984375,0.335693359375
16.1699999,-0.2513911724090576,-9.799467086791992,0.8595184087753296,0.54931640625,1.3427734375,0.5645751953125
16.1899999,-0.272938996553421,-9.816226959228516,0.8738836050033569,0.701904296875,0.18310546875,0.9002685546875
16.2099999,-0.28969839215278625,-9.84256362915039,0.871489405632019,0.3662109375,-0.6103515625,0.0152587890625
16.2299999,-0.3016694188117981,-9.864110946655273,0.8523358106613159,-0.42724609375,0.7476806640625,-1.28173828125
16.249999900000002,-0.3064578175544739,-9.883264541625977,0.8331822156906128,-0.9002685546875,2.5787353515625,-1.1444091796875
16.269999900000002,-0.2992752194404602,-9.892841339111328,0.811634361743927,-1.03759765625,1.8310546875,-1.068115234375
16.2899999,-0.2968810200691223,-9.873687744140625,0.8403648138046265,-0.4425048828125,1.1138916015625,-1.800537109375
16.3099999,-0.2753331959247589,-9.840168952941895,0.8523358106613159,0.5950927734375,-0.4730224609375,-1.2664794921875
16.3299999,-0.24899697303771973,-9.801861763000488,0.8690952062606812,0.823974609375,0.48828125,0.5035400390625
16.3499999,-0.22026655077934265,-9.765948295593262,0.8643068075180054,0.42724609375,1.4495849609375,1.1138916015625
16.3699999,-0.20350714027881622,-9.75397777557373,0.8619126081466675,0.1220703125,1.3427734375,0.5340576171875
16.3899999,-0.2059013396501541,-9.751583099365234,0.8619126081466675,-0.0152587890625,0.8544921875,-0.3204345703125
16.4099999,-0.21787235140800476,-9.770736694335938,0.8571242094039917,0.18310546875,0.640869140625,0.2288818359375
16.429999900000002,-0.2346317619085312,-9.785101890563965,0.8619126081466675,-0.2593994140625,1.800537109375,0.30517578125
16.4499999,-0.24660277366638184,-9.81143856048584,0.849941611289978,-0.335693359375,1.739501953125,0.1068115234375
16.4699999,-0.2585737705230713,-9.84256362915039,0.8475474119186401,0.0152587890625,1.0528564453125,-0.1220703125
16.4899999,-0.26815059781074524,-9.861717224121094,0.8475474119186401,-0.732421875,0.7171630859375,-0.6866455078125
16.5099999,-0.27054479718208313,-9.859322547912598,0.8547300100326538,-1.129150390625,1.2359619140625,-0.7781982421875
16.5299999,-0.26575639843940735,-9.84495735168457,0.8667010068893433,-0.0457763671875,0.79345703125,0.0457763671875
16.5499999,-0.24181437492370605,-9.818621635437012,0.8523358106613159,0.244140625,-0.1678466796875,0.5035400390625
16.5699999,-0.22266076505184174,-9.797073364257812,0.8547300100326538,0.1373291015625,1.5106201171875,0.3509521484375
16.589999900000002,-0.2059013396501541,-9.792284965515137,0.8355764150619507,0.335693359375,2.2735595703125,0.762939453125
16.609999900000002,-0.2059013396501541,-9.785101890563965,0.8379706144332886,0.5035400390625,1.800537109375,0.3509521484375
16.6299999,-0.2298433631658554,-9.804255485534668,0.8475474119186401,-0.091552734375,1.2054443359375,0.5035400390625
16.6499999,-0.26575639843940735,-9.818621635437012,0.8667010068893433,-0.518798828125,1.495361328125,0.213623046875
16.6699999,-0.29209262132644653,-9.835380554199219,0.8690952062606812,-0.67138671875,1.3275146484375,-0.54931640625
16.6899999,-0.31124621629714966,-9.852140426635742,0.871489405632019,0.091552734375,1.739501953125,-0.4730224609375
16.7099999,-0.31364041566848755,-9.86650562286377,0.8571242094039917,0.5645751953125,1.0986328125,0.2288818359375
16.7299999,-0.3064578175544739,-9.86650562286377,0.8547300100326538,-0.0457763671875,1.5869140625,-0.6561279296875
16.749999900000002,-0.2992752194404602,-9.861717224121094,0.8571242094039917,0,1.6326904296875,-1.46484375
16.769999900000002,-0.2849099934101105,-9.852140426635742,0.8547300100326538,0.579833984375,0.67138671875,-0.732421875
16.7899999,-0.26336219906806946,-9.816226959228516,0.8762778043746948,0.0457763671875,1.52587890625,-1.434326171875
16.8099999,-0.2346317619085312,-9.804255485534668,0.871489405632019,-0.274658203125,0.4425048828125,-0.7476806640625
16.8299999,-0.2059013396501541,-9.782708168029785,0.8810662031173706,0.06103515625,0.2288818359375,-0.701904296875
16.8499999,-0.17956513166427612,-9.775525093078613,0.8667010068893433,-0.06103515625,0.7476806640625,-0.9307861328125
16.8699999,-0.1628057211637497,-9.77791976928711,0.849941611289978,0.030517578125,1.4801025390625,0.1678466796875
16.8899999,-0.16519992053508759,-9.775525093078613,0.8379706144332886,0.0152587890625,2.288818359375,0.3509521484375
16.9099999,-0.1843535304069519,-9.782708168029785,0.8379706144332886,0.06103515625,1.9989013671875,0.48828125
16.929999900000002,-0.2106897532939911,-9.794678688049316,0.8427590131759644,-0.8697509765625,0.885009765625,0.2288818359375
16.9499999,-0.23702596127986908,-9.816226959228516,0.8595184087753296,-0.9613037109375,0.9002685546875,0.1983642578125
16.9699999,-0.24420857429504395,-9.837775230407715,0.8595184087753296,-0.396728515625,0.9765625,0.4425048828125
16.9899999,-0.24899697303771973,-9.864110946655273,0.8690952062606812,0.0762939453125,1.251220703125,0.762939453125
17.0099999,-0.24899697303771973,-9.890447616577148,0.8547300100326538,0.8544921875,0.7781982421875,0.732421875
17.0299999,-0.24660277366638184,-9.885659217834473,0.8547300100326538,1.0986328125,1.0223388671875,-0.518798828125
17.0499999,-0.2585737705230713,-9.8784761428833,0.8451532125473022,0.152587890625,0.946044921875,0.2593994140625
17.0699999,-0.2585737705230713,-9.825803756713867,0.871489405632019,-0.701904296875,2.1514892578125,-2.655029296875
17.089999900000002,-0.26815059781074524,-9.828198432922363,0.8786720037460327,0.091552734375,1.3580322265625,-0.48828125
17.109999900000002,-0.272938996553421,-9.81143856048584,0.9026140570640564,0.4425048828125,-0.0762939453125,0.1220703125
17.1299999,-0.26815059781074524,-9.804255485534668,0.9097966551780701,0.701904296875,0.396728515625,-2.2735595703125
17.1499999,-0.2561795711517334,-9.813833236694336,0.9002198576927185,0.48828125,0.518798828125,-1.2969970703125
17.1699999,-0.2346317619085312,-9.806650161743164,0.8834604024887085,-0.274658203125,1.434326171875,-0.8087158203125
17.1899999,-0.2059013396501541,-9.799467086791992,0.8643068075180054,-0.54931640625,1.2359619140625,-1.0223388671875
17.2099999,-0.17717093229293823,-9.785101890563965,0.8451532125473022,-1.1444091796875,1.0223388671875,-1.5869140625
17.2299999,-0.15801730751991272,-9.785101890563965,0.8475474119186401,-0.5645751953125,1.983642578125,-0.3662109375
17.249999900000002,-0.1412578970193863,-9.77791976928711,0.849941611289978,0.0762939453125,1.800537109375,0.579833984375
17.269999900000002,-0.14365209639072418,-9.787496566772461,0.8762778043746948,0.3662109375,0.9307861328125,1.2054443359375
17.2899999,-0.15801730751991272,-9.84256362915039,0.8786720037460327,0.6866455078125,-0.5035400390625,1.251220703125
17.3099999,-0.1843535304069519,-9.84256362915039,0.8978256583213806,-1.1444091796875,0.9765625,-2.1820068359375
17.3299999,-0.21308395266532898,-9.907206535339355,0.871489405632019,-1.28173828125,1.007080078125,-0.518798828125
17.3499999,-0.2322375625371933,-9.897629737854004,0.8786720037460327,-1.190185546875,1.678466796875,-0.7171630859375
17.3699999,-0.24420857429504395,-9.847352027893066,0.8858546018600464,-2.2125244140625,1.03759765625,-2.655029296875
17.3899999,-0.2561795711517334,-9.821015357971191,0.8810662031173706,-0.5340576171875,-0.8697509765625,1.220703125
17.409999900000003,-0.2537853717803955,-9.751583099365234,0.9026140570640564,0.335693359375,-0.213623046875,0.8697509765625
17.429999900000002,-0.24420857429504395,-9.720458984375,0.8882488012313843,-0.1373291015625,0.457763671875,0.244140625
17.4499999,-0.2322375625371933,-9.749189376831055,0.8810662031173706,-0.4730224609375,-0.1220703125,1.3275146484375
17.4699999,-0.2106897532939911,-9.77791976928711,0.8690952062606812,-0.06103515625,-0.579833984375,-0.1678466796875
17.4899999,-0.18914192914962769,-9.828198432922363,0.8403648138046265,-0.091552734375,-0.06103515625,-0.7476806640625
17.5099999,-0.17477671802043915,-9.856928825378418,0.8212111592292786,-0.335693359375,2.0294189453125,0.06103515625
17.5299999,-0.16759411990642548,-9.856928825378418,0.8020575642585754,-0.5340576171875,2.4871826171875,0.1678466796875
17.5499999,-0.181959331035614,-9.847352027893066,0.828393816947937,-0.4730224609375,1.89208984375,-0.274658203125
17.5699999,-0.20111294090747833,-9.854534149169922,0.849941611289978,0.030517578125,0.3509521484375,-0.3509521484375
17.589999900000002,-0.21787235140800476,-9.86650562286377,0.8738836050033569,-0.42724609375,0.091552734375,-1.2969970703125
17.609999900000002,-0.22266076505184174,-9.880870819091797,0.8810662031173706,-0.79345703125,1.6632080078125,-2.1209716796875
17.6299999,-0.21308395266532898,-9.888052940368652,0.8762778043746948,-0.79345703125,1.3885498046875,-1.2359619140625
17.6499999,-0.20350714027881622,-9.888052940368652,0.871489405632019,-0.9918212890625,0.4425048828125,-1.15966796875
17.6699999,-0.19393034279346466,-9.873687744140625,0.8619126081466675,-1.2664794921875,-0.091552734375,-2.0599365234375
17.6899999,-0.17477671802043915,-9.835380554199219,0.8403648138046265,-2.105712890625,1.2969970703125,-2.9296875
17.7099999,-0.16759411990642548,-9.81143856048584,0.8379706144332886,-1.4495849609375,2.3345947265625,-0.7171630859375
17.7299999,-0.1604115068912506,-9.780313491821289,0.8403648138046265,-0.9765625,1.0833740234375,-0.18310546875
17.749999900000002,-0.15801730751991272,-9.773131370544434,0.8451532125473022,-0.8087158203125,-1.129150390625,-1.434326171875
17.769999900000002,-0.15562310814857483,-9.761159896850586,0.8619126081466675,-0.274658203125,-0.2593994140625,-1.6937255859375
17.7899999,-0.14844051003456116,-9.792284965515137,0.8379706144332886,0.8697509765625,0.335693359375,0.91552734375
17.8099999,-0.1388636976480484,-9.804255485534668,0.8331822156906128,0.5950927734375,0.91552734375,0.30517578125
17.8299999,-0.12449848651885986,-9.823410034179688,0.8092401623725891,-0.54931640625,0.396728515625,-1.52587890625
17.8499999,-0.1173158809542656,-9.84256362915039,0.7996633648872375,-0.6103515625,0.9765625,-0.54931640625
17.8699999,-0.11013327538967133,-9.825803756713867,0.7948749661445618,-0.9307861328125,1.8768310546875,0.1068115234375
17.8899999,-0.10295066982507706,-9.799467086791992,0.7924807667732239,-0.6256103515625,1.8463134765625,0.1068115234375
17.909999900000003,-0.11252748221158981,-9.792284965515137,0.8092401623725891,-0.213623046875,1.6021728515625,0.5950927734375
17.929999900000002,-0.12928688526153564,-9.801861763000488,0.8307880163192749,0.30517578125,1.129150390625,0.4425048828125
17.9499999,-0.14844051003456116,-9.835380554199219,0.8379706144332886,0.4119873046875,0.152587890625,-0.1373291015625
17.9699999,-0.16519992053508759,-9.864110946655273,0.8451532125473022,0.18310546875,0.9002685546875,-0.5950927734375
17.9899999,-0.17956513166427612,-9.888052940368652,0.8355764150619507,0.1678466796875,1.312255859375,-0.2593994140625
18.0099999,-0.17956513166427612,-9.885659217834473,0.8307880163192749,-0.091552734375,0.9613037109375,-0.579833984375
18.0299999,-0.17477671802043915,-9.871294021606445,0.8236053586006165,-0.67138671875,0.7171630859375,-1.129150390625
18.0499999,-0.15801730751991272,-9.847352027893066,0.8236053586006165,-0.8087158203125,1.617431640625,-1.4495849609375
18.0699999,-0.13168109953403473,-9.813833236694336,0.8164227604866028,-0.54931640625,1.64794921875,-0.91552734375
18.089999900000002,-0.10295066982507706,-9.792284965515137,0.8259995579719543,0.3204345703125,1.64794921875,0.3509521484375
18.109999900000002,-0.08619125932455063,-9.780313491821289,0.8355764150619507,0.6103515625,0.9002685546875,0.79345703125
18.1299999,-0.08140286058187485,-9.780313491821289,0.8403648138046265,0.3509521484375,0.335693359375,0.2288818359375
18.1499999,-0.0933738648891449,-9.799467086791992,0.8403648138046265,0.7476806640625,1.0833740234375,0.48828125
18.1699999,-0.1149216815829277,-9.818621635437012,0.8331822156906128,0.91552734375,1.800537109375,0.518798828125
18.1899999,-0.13168109953403473,-9.830592155456543,0.8212111592292786,-0.335693359375,1.556396484375,-0.6866455078125
18.2099999,-0.14844051003456116,-9.84495735168457,0.8307880163192749,-0.6866455078125,1.8310546875,-0.5340576171875
18.2299999,-0.1604115068912506,-9.854534149169922,0.849941611289978,-0.0762939453125,0.91552734375,-0.2593994140625
18.249999900000002,-0.14844051003456116,-9.840168952941895,0.8595184087753296,-0.2593994140625,-0.213623046875,-1.3275146484375
18.269999900000002,-0.1412578970193863,-9.828198432922363,0.8786720037460327,-0.42724609375,0.640869140625,-0.5035400390625
18.2899999,-0.12928688526153564,-9.816226959228516,0.8810662031173706,-0.0762939453125,0.0762939453125,0.9002685546875
18.3099999,-0.1173158809542656,-9.806650161743164,0.8690952062606812,0.579833984375,-0.823974609375,-0.152587890625
18.3299999,-0.10534487664699554,-9.806650161743164,0.8403648138046265,0.30517578125,-0.335693359375,-0.8697509765625
18.3499999,-0.10055647045373917,-9.823410034179688,0.8212111592292786,0.1220703125,1.861572265625,0.1678466796875
18.3699999,-0.09576806426048279,-9.837775230407715,0.7972691655158997,0.2288818359375,1.373291015625,0.5340576171875
18.3899999,-0.10055647045373917,-9.840168952941895,0.7972691655158997,0.030517578125,0.5340576171875,-0.701904296875
18.409999900000003,-0.11252748221158981,-9.852140426635742,0.8068459630012512,0.2593994140625,0.5645751953125,-0.30517578125
18.429999900000002,-0.12210428714752197,-9.84495735168457,0.828393816947937,0.2593994140625,1.495361328125,0.0762939453125
18.4499999,-0.11252748221158981,-9.835380554199219,0.8307880163192749,-0.244140625,1.007080078125,-0.2899169921875
18.4699999,-0.10534487664699554,-9.821015357971191,0.8523358106613159,0.18310546875,0.762939453125,-0.3509521484375
18.4899999,-0.09816227108240128,-9.816226959228516,0.8523358106613159,0.1678466796875,0.885009765625,-0.0457763671875
18.5099999,-0.10295066982507706,-9.816226959228516,0.8643068075180054,0.4425048828125,1.220703125,0.091552734375
18.5299999,-0.11252748221158981,-9.818621635437012,0.8595184087753296,0.3662109375,0.7781982421875,-0.5645751953125
18.5499999,-0.1364694982767105,-9.830592155456543,0.8619126081466675,0.152587890625,0.7476806640625,-0.54931640625
18.5699999,-0.15801730751991272,-9.852140426635742,0.8547300100326538,-0.2899169921875,0.3509521484375,-1.495361328125
18.589999900000002,-0.14365209639072418,-9.84495735168457,0.8595184087753296,-0.54931640625,0.335693359375,-2.01416015625
18.609999900000002,-0.10534487664699554,-9.84256362915039,0.849941611289978,-0.2899169921875,0.244140625,-0.579833984375
18.6299999,-0.06224924325942993,-9.816226959228516,0.8475474119186401,0.030517578125,0.9918212890625,0.0152587890625
18.6499999,-0.031124621629714966,-9.804255485534668,0.8379706144332886,0.5950927734375,1.4495849609375,0.18310546875
18.6699999,-0.033518824726343155,-9.801861763000488,0.8451532125473022,0.3509521484375,1.190185546875,0.3509521484375
18.6899999,-0.047884032130241394,-9.801861763000488,0.8403648138046265,-0.6561279296875,0.8087158203125,-0.732421875
18.7099999,-0.08140286058187485,-9.813833236694336,0.8667010068893433,-0.79345703125,1.495361328125,-0.54931640625
18.7299999,-0.10055647045373917,-9.832986831665039,0.8571242094039917,-0.823974609375,0.6561279296875,-0.2593994140625
18.749999900000002,-0.11013327538967133,-9.84495735168457,0.8643068075180054,-0.518798828125,0.67138671875,-0.8544921875
18.769999900000002,-0.10773907601833344,-9.856928825378418,0.8547300100326538,-0.244140625,0.5950927734375,-0.91552734375
18.7899999,-0.10055647045373917,-9.859322547912598,0.8475474119186401,0.457763671875,0.67138671875,-0.213623046875
18.8099999,-0.08858546614646912,-9.847352027893066,0.8547300100326538,0.274658203125,1.03759765625,-0.3509521484375
18.8299999,-0.07422025501728058,-9.828198432922363,0.8475474119186401,-0.1373291015625,0.335693359375,-0.457763671875
18.8499999,-0.0694318488240242,-9.804255485534668,0.8619126081466675,-0.274658203125,0.823974609375,0.0457763671875
18.8699999,-0.06464344263076782,-9.78989028930664,0.8571242094039917,-0.30517578125,0.885009765625,0.4730224609375
18.8899999,-0.06703764945268631,-9.78989028930664,0.8738836050033569,-0.640869140625,0.9765625,-0.2593994140625
18.909999900000003,-0.07182604819536209,-9.804255485534668,0.8810662031173706,-0.8697509765625,-0.1678466796875,-0.6561279296875
18.929999900000002,-0.07182604819536209,-9.828198432922363,0.8786720037460327,-0.3814697265625,-0.885009765625,-0.457763671875
18.9499999,-0.07182604819536209,-9.828198432922363,0.871489405632019,-0.0457763671875,0.42724609375,-0.5645751953125
18.9699999,-0.0694318488240242,-9.825803756713867,0.849941611289978,-0.457763671875,0.6866455078125,-0.1983642578125
18.9899999,-0.06224924325942993,-9.804255485534668,0.8331822156906128,-0.640869140625,0.3509521484375,-0.4119873046875
19.0099999,-0.05027823522686958,-9.787496566772461,0.8307880163192749,-0.48828125,0.42724609375,0.0152587890625
19.0299999,-0.040701430290937424,-9.792284965515137,0.8259995579719543,0.030517578125,0.91552734375,1.0986328125
19.0499999,-0.031124621629714966,-9.806650161743164,0.8259995579719543,0.42724609375,1.312255859375,1.0223388671875
19.0699999,-0.028730420395731926,-9.825803756713867,0.8140285611152649,0.030517578125,1.03759765625,0.5035400390625
19.089999900000002,-0.0454898327589035,-9.84256362915039,0.8259995579719543,-0.0457763671875,2.01416015625,0.8697509765625
19.109999900000002,-0.06703764945268631,-9.856928825378418,0.8331822156906128,-0.3204345703125,1.3885498046875,0.79345703125
19.1299999,-0.08858546614646912,-9.856928825378418,0.8427590131759644,-0.885009765625,0.67138671875,-0.640869140625
19.1499999,-0.10534487664699554,-9.86650562286377,0.8523358106613159,-0.3509521484375,1.0986328125,-0.7171630859375
19.1699999,-0.11013327538967133,-9.871294021606445,0.8475474119186401,0.4425048828125,1.251220703125,0.18310546875
19.1899999,-0.10773907601833344,-9.86650562286377,0.8547300100326538,0.335693359375,1.15966796875,-0.274658203125
19.2099999,-0.10055647045373917,-9.852140426635742,0.8619126081466675,0.518798828125,0.274658203125,-0.579833984375
19.2299999,-0.08858546614646912,-9.823410034179688,0.8667010068893433,0.640869140625,-0.244140625,-0.1220703125
19.249999900000002,-0.07661445438861847,-9.81143856048584,0.871489405632019,0.7171630859375,0.3814697265625,0.823974609375
19.269999900000002,-0.05506663769483566,-9.78989028930664,0.8571242094039917,-0.06103515625,0.6256103515625,-0.2288818359375
19.2899999,-0.0454898327589035,-9.787496566772461,0.8547300100326538,-0.3204345703125,0.91552734375,-0.67138671875
19.3099999,-0.043095629662275314,-9.801861763000488,0.8403648138046265,-0.2593994140625,0.9765625,0.3814697265625
19.3299999,-0.047884032130241394,-9.80904483795166,0.8427590131759644,0.0152587890625,1.2054443359375,0.1678466796875
19.3499999,-0.06224924325942993,-9.837775230407715,0.8379706144332886,0.3509521484375,0.9002685546875,-0.3509521484375
19.3699999,-0.07422025501728058,-9.847352027893066,0.8379706144332886,-0.54931640625,1.2054443359375,-1.3427734375
19.3899999,-0.08140286058187485,-9.856928825378418,0.849941611289978,-0.2899169921875,1.64794921875,-0.579833984375
19.409999900000003,-0.07661445438861847,-9.849745750427246,0.849941611289978,-0.0152587890625,0.762939453125,0.18310546875
19.429999900000002,-0.06224924325942993,-9.832986831665039,0.8595184087753296,-0.2288818359375,0.5340576171875,-0.2593994140625
19.4499999,-0.047884032130241394,-9.818621635437012,0.8619126081466675,0.335693359375,1.068115234375,-0.0762939453125
19.4699999,-0.040701430290937424,-9.821015357971191,0.8619126081466675,1.129150390625,0.8087158203125,0.8697509765625
19.4899999,-0.038307227194309235,-9.816226959228516,0.8547300100326538,0.396728515625,0.640869140625,-0.3662109375
19.5099999,-0.05267243832349777,-9.828198432922363,0.8547300100326538,0.2593994140625,0.6256103515625,-0.396728515625
19.5299999,-0.06703764945268631,-9.835380554199219,0.8475474119186401,-0.1220703125,1.1444091796875,-0.1983642578125
19.5499999,-0.08140286058187485,-9.840168952941895,0.8451532125473022,-0.335693359375,1.28173828125,-0.2899169921875
19.5699999,-0.090979665517807,-9.837775230407715,0.8643068075180054,0.48828125,1.28173828125,-0.4425048828125
19.589999900000002,-0.08140286058187485,-9.835380554199219,0.8667010068893433,0.54931640625,-0.152587890625,-0.6103515625
19.609999900000002,-0.05746084079146385,-9.821015357971191,0.871489405632019,-0.3662109375,0.3662109375,-0.9002685546875
19.6299999,-0.026336219161748886,-9.801861763000488,0.8619126081466675,-0.48828125,2.1209716796875,-0.18310546875
19.6499999,0.002394201699644327,-9.792284965515137,0.849941611289978,-0.030517578125,2.50244140625,0.8392333984375
19.6699999,0.019153613597154617,-9.770736694335938,0.8523358106613159,0.213623046875,1.7547607421875,-0.0457763671875
19.6899999,0.014365210197865963,-9.77791976928711,0.8595184087753296,0.457763671875,0.8392333984375,0.4425048828125
19.7099999,0,-9.765948295593262,0.871489405632019,0.701904296875,1.678466796875,0.54931640625
19.7299999,-0.028730420395731926,-9.77791976928711,0.8786720037460327,-0.1373291015625,1.678466796875,0.54931640625
19.749999900000002,-0.06703764945268631,-9.782708168029785,0.8882488012313843,-0.213623046875,1.52587890625,0.6103515625
19.769999900000002,-0.10773907601833344,-9.813833236694336,0.8906430602073669,-0.6866455078125,0.6561279296875,-0.1678466796875
19.7899999,-0.13168109953403473,-9.830592155456543,0.8930372595787048,-1.15966796875,0.9918212890625,-1.2664794921875
19.8099999,-0.12449848651885986,-9.86650562286377,0.8738836050033569,-1.1749267578125,0.9002685546875,-1.3427734375
19.8299999,-0.09576806426048279,-9.871294021606445,0.8571242094039917,-0.5340576171875,1.4495849609375,-0.5645751953125
19.8499999,-0.05985504388809204,-9.895236015319824,0.8427590131759644,-0.18310546875,1.6326904296875,0.335693359375
19.8699999,-0.040701430290937424,-9.895236015319824,0.8427590131759644,-0.091552734375,1.2664794921875,-0.06103515625
19.8899999,-0.035913024097681046,-9.888052940368652,0.8523358106613159,0.3662109375,0.7476806640625,-0.6866455078125
19.909999900000003,-0.043095629662275314,-9.873687744140625,0.8571242094039917,0.5340576171875,0.244140625,0.0457763671875
19.929999900000002,-0.05506663769483566,-9.837775230407715,0.8643068075180054,-0.0152587890625,1.190185546875,-0.06103515625
19.9499999,-0.06464344263076782,-9.818621635437012,0.8690952062606812,-0.30517578125,1.0833740234375,-0.2899169921875
19.9699999,-0.07661445438861847,-9.813833236694336,0.8810662031173706,0.0152587890625,0.5645751953125,-0.6256103515625
19.9899999,-0.08140286058187485,-9.821015357971191,0.871489405632019,-0.42724609375,-0.274658203125,-1.2359619140625
20.0099999,-0.08140286058187485,-9.821015357971191,0.8834604024887085,-0.5950927734375,0.762939453125,-1.739501953125
20.0299999,-0.07900865375995636,-9.825803756713867,0.8906430602073669,0.091552734375,0.640869140625,-0.762939453125
20.0499999,-0.0694318488240242,-9.81143856048584,0.8882488012313843,-0.213623046875,-1.3580322265625,-1.2054443359375
20.0699999,-0.06464344263076782,-9.77791976928711,0.9265560507774353,-0.457763671875,-1.4190673828125,-2.4566650390625
20.089999900000002,-0.0454898327589035,-9.86889934539795,0.9768342971801758,-0.6561279296875,-2.86865234375,-3.326416015625
20.109999900000002,-0.033518824726343155,-9.95748519897461,1.0295066833496094,-3.0517578125,-2.38037109375,-15.2740478515625
20.1299999,-0.0071826050989329815,-10.02691650390625,1.0055646896362305,-8.544921875,-4.2572021484375,-26.1077880859375
20.1499999,0.016759412363171577,-9.96945571899414,1.01753568649292,-7.171630859375,-4.913330078125,-18.646240234375
20.1699999,0.014365210197865963,-9.974244117736816,0.9552865028381348,-4.0435791015625,-9.5977783203125,-7.3699951171875
20.1899999,-0.09576806426048279,-10.134655952453613,0.9816226959228516,-3.692626953125,-12.2528076171875,-12.5579833984375
20.2099999,-0.26336219906806946,-10.484209060668945,0.9911994934082031,-7.4310302734375,-17.63916015625,-31.79931640625
20.2299999,-0.42616790533065796,-10.72841739654541,1.1276689767837524,-6.378173828125,-22.6898193359375,-42.2821044921875
20.249999900000002,-0.5051765441894531,-10.745177268981934,1.3455413579940796,-1.922607421875,-32.562255859375,-28.6712646484375
20.269999900000002,-0.43095630407333374,-10.47702693939209,1.50355863571167,-1.77001953125,-49.5452880859375,-11.8255615234375
20.2899999,-0.2561795711517334,-10.065223693847656,1.7573440074920654,0.06103515625,-53.985595703125,-11.2762451171875
20.3099999,0.05267243832349777,-9.883264541625977,1.7501614093780518,0.06103515625,-59.6160888671875,-12.26806640625
