# Time (seconds),Accel_X,Accel_Y,Accel_Z,Gyro_X,Gyro_Y,Gyro_Z
0.0099999,2.717418909072876,8.947132110595703,2.7102363109588623,-16.8914794921875,3.4637451171875,-11.5509033203125
0.029999900000000003,2.6671407222747803,9.030928611755371,2.6623523235321045,-19.2413330078125,4.2877197265625,-9.9639892578125
0.0499999,2.631227731704712,9.066842079162598,2.6192567348480225,-18.1121826171875,11.0626220703125,-13.7176513671875
0.0699999,2.6024973392486572,9.083600997924805,2.5665841102600098,-17.1051025390625,15.93017578125,-19.866943359375
0.08999990000000001,2.564189910888672,9.133879661560059,2.5546131134033203,-9.3231201171875,14.9993896484375,-21.7437744140625
0.10999990000000001,2.518700122833252,9.258378028869629,2.63362193107605,11.260986328125,13.946533203125,-16.2506103515625
0.1299999,2.5067291259765625,9.473855972290039,2.6240451335906982,18.5089111328125,9.8419189453125,-15.350341796875
0.14999990000000002,2.513911724090576,9.68694019317627,2.5522189140319824,2.2735595703125,10.101318359375,-12.054443359375
0.1699999,2.5474305152893066,9.897629737854004,2.564189910888672,-3.082275390625,27.6641845703125,-4.913330078125
0.1899999,2.5474305152893066,10.041281700134277,2.6192567348480225,2.838134765625,28.3050537109375,1.28173828125
0.20999990000000002,2.494758129119873,10.132261276245117,2.808398485183716,13.5498046875,14.7857666015625,2.9144287109375
0.2299999,2.410961151123047,10.211270332336426,3.045424461364746,23.2696533203125,11.199951171875,1.0986328125
0.2499999,2.3247697353363037,10.314221382141113,3.205836057662964,8.1024169921875,17.425537109375,3.997802734375
0.2699999,2.2673089504241943,10.498574256896973,3.287238836288452,-18.402099609375,22.0947265625,10.589599609375
0.28999990000000003,2.2242133617401123,10.642226219177246,3.3494882583618164,-21.54541015625,19.0582275390625,21.2554931640625
0.3099999,2.207453966140747,10.721235275268555,3.4955344200134277,0.5645751953125,17.852783203125,27.587890625
0.3299999,2.209848165512085,10.668562889099121,3.646369218826294,20.8740234375,12.7410888671875,28.289794921875
0.34999990000000003,2.2409727573394775,10.553641319274902,3.780444383621216,21.1334228515625,7.659912109375,31.158447265625
0.3699999,2.298433542251587,10.488997459411621,3.914519786834717,7.0953369140625,10.6201171875,35.6903076171875
0.3899999,2.382230758666992,10.407594680786133,3.9863457679748535,-3.3721923828125,10.162353515625,47.210693359375
0.40999990000000003,2.470816135406494,10.254365921020508,4.050989151000977,-1.0986328125,6.9732666015625,54.99267578125
0.4299999,2.5546131134033203,10.06043529510498,4.244919776916504,9.0484619140625,8.2855224609375,50.59814453125
0.4499999,2.626439332962036,9.739612579345703,4.51067590713501,23.1475830078125,2.7923583984375,52.9022216796875
0.4699999,2.6839001178741455,9.3828763961792,4.771644115447998,22.0184326171875,-14.068603515625,60.0738525390625
0.4899999,2.717418909072876,9.059659004211426,5.03021764755249,9.21630859375,-20.9808349609375,59.08203125
0.5099999,2.7533318996429443,8.597578048706055,5.097255229949951,0.4119873046875,-25.970458984375,61.4013671875
0.5299999,2.7988216876983643,8.006210327148438,4.965574264526367,-1.983642578125,-34.97314453125,61.1419677734375
0.5499999,2.8610711097717285,7.3023152351379395,4.73573112487793,1.007080078125,-38.299560546875,51.2237548828125
0.5699999,2.9328970909118652,6.536170482635498,4.486733913421631,8.392333984375,-41.6412353515625,41.900634765625
0.5899998999999999,3.0166940689086914,5.894524574279785,4.23773717880249,9.2315673828125,-51.4678955078125,31.8603515625
0.6099998999999999,3.1052796840667725,5.420472621917725,3.9887399673461914,1.3427734375,-62.286376953125,25.8026123046875
0.6299999,3.227383852005005,5.135562419891357,3.77565598487854,1.373291015625,-62.4847412109375,17.822265625
0.6499999,3.3877954483032227,4.994304656982422,3.5051112174987793,7.598876953125,-67.0623779296875,6.7596435546875
0.6699999,3.581725835800171,4.886565685272217,3.162740468978882,12.6190185546875,-78.3233642578125,-1.6937255859375
0.6899999,3.7900211811065674,4.824316501617432,2.760514497756958,13.641357421875,-79.7882080078125,-11.627197265625
0.7099999,3.9456443786621094,4.831499099731445,2.3127987384796143,1.0528564453125,-74.2645263671875,-24.96337890625
0.7299998999999999,4.022258758544922,4.853046894073486,1.802833914756775,-11.77978515625,-74.4476318359375,-33.2183837890625
0.7499998999999999,4.022258758544922,4.903325080871582,1.194706678390503,-15.533447265625,-81.024169921875,-43.9910888671875
0.7699999,3.9384617805480957,5.0685248374938965,0.5506663918495178,-17.4102783203125,-72.113037109375,-63.568115234375
0.7899999,3.7708675861358643,5.12119722366333,-0.15083470940589905,-11.8865966796875,-55.3131103515625,-69.64111328125
0.8099999,3.5386300086975098,5.274426460266113,-0.8092401623725891,-2.6397705078125,-46.1883544921875,-80.50537109375
0.8299999,3.2393548488616943,5.492298603057861,-1.3838485479354858,3.326416015625,-43.02978515625,-102.05078125
0.8499998999999999,2.9017724990844727,5.8657941818237305,-1.7381904125213623,8.1024169921875,-29.388427734375,-110.7635498046875
0.8699998999999999,2.580949544906616,6.514622688293457,-1.9249382019042969,-2.197265625,-14.0228271484375,-114.1510009765625
0.8899999,2.2888567447662354,7.354987621307373,-1.965639591217041,-24.0631103515625,-11.6424560546875,-113.3575439453125
0.9099999,1.9991583824157715,8.348581314086914,-1.7764976024627686,-21.881103515625,-1.3580322265625,-111.7401123046875
0.9299999,1.7334020137786865,9.48343276977539,-1.45806884765625,-11.5203857421875,13.214111328125,-114.8681640625
0.9499999,1.4915876388549805,10.809821128845215,-1.0414776802062988,-19.439697265625,16.510009765625,-113.4185791015625
0.9699998999999999,1.3072341680526733,12.30859088897705,-0.45250412821769714,-13.97705078125,27.1453857421875,-101.8218994140625
0.9899998999999999,1.1899182796478271,13.778631210327148,0.11013327538967133,8.5601806640625,31.31103515625,-74.4171142578125
1.0099999,1.1061211824417114,15.006855964660645,0.5410895943641663,10.894775390625,32.0587158203125,-53.8330078125
1.0299999,1.0031704902648926,15.61019515991211,0.7541735172271729,-12.298583984375,44.3267822265625,-35.736083984375
1.0499999,0.8140285611152649,15.389928817749023,0.7422025203704834,-21.4385986328125,55.1605224609375,-15.44189453125
1.0699999,0.5722141861915588,14.520833015441895,0.6344634294509888,-8.60595703125,56.9610595703125,-12.26806640625
1.0899999,0.31842881441116333,13.026851654052734,0.36152446269989014,-8.636474609375,48.2330322265625,-9.27734375
1.1099999,0.12689268589019775,11.389217376708984,0.06224924325942993,-15.533447265625,53.2684326171875,-8.758544921875
1.1299999,0.031124621629714966,10.046070098876953,-0.181959331035614,-14.068603515625,71.71630859375,-15.716552734375
1.1499999,-0.002394201699644327,9.244012832641602,-0.3734954595565796,-11.505126953125,73.91357421875,-13.3819580078125
1.1699998999999999,0,9.131484985351562,-0.18914192914962769,-7.4310302734375,77.2705078125,-3.875732421875
1.1899998999999999,0.009576806798577309,9.57201862335205,0.3495534360408783,-4.69970703125,83.0841064453125,3.509521484375
1.2099999,0.002394201699644327,10.24239444732666,1.0630255937576294,-8.331298828125,76.385498046875,9.307861328125
1.2299999,-0.019153613597154617,10.836156845092773,1.8100165128707886,-12.5885009765625,68.0389404296875,17.6544189453125
1.2499999,-0.038307227194309235,11.27190113067627,2.3247697353363037,-15.7012939453125,66.5740966796875,19.47021484375
1.2699999,-0.10773907601833344,11.401188850402832,2.7078421115875244,-10.528564453125,71.807861328125,27.0233154296875
1.2899999,-0.1628057211637497,11.350910186767578,2.9712042808532715,0.5950927734375,70.4803466796875,33.3404541015625
1.3099999,-0.24181437492370605,11.161767959594727,3.3638534545898438,-10.1776123046875,49.6063232421875,36.376953125
1.3299999,-0.22505496442317963,11.111490249633789,3.6296098232269287,7.843017578125,58.41064453125,46.9207763671875
1.3499999,-0.16998831927776337,11.200075149536133,3.9887399673461914,16.4947509765625,50.872802734375,49.560546875
1.3699999,-0.0933738648891449,11.346121788024902,4.390965938568115,10.25390625,28.3966064453125,51.1474609375
1.3899999,-0.004788403399288654,11.444284439086914,4.704606533050537,1.7242431640625,16.54052734375,64.7430419921875
1.4099999,0.10773907601833344,11.496956825256348,4.824316501617432,-0.48828125,21.7437744140625,72.8302001953125
1.4299998999999999,0.23702596127986908,11.370063781738281,4.680664539337158,-0.152587890625,16.7999267578125,74.0203857421875
1.4499999,0.395043283700943,11.101913452148438,4.568136692047119,2.9449462890625,11.0931396484375,75.1953125
1.4699999,0.5746083855628967,10.723628997802734,4.520252704620361,3.143310546875,4.241943359375,78.79638671875
1.4899999,0.7829039692878723,10.350133895874023,4.505887508392334,-1.4495849609375,-7.8277587890625,79.58984375
1.5099999,1.0127472877502441,9.938331604003906,4.5154643058776855,0.3204345703125,-15.350341796875,80.841064453125
1.5299999,1.259350061416626,9.536105155944824,4.4723687171936035,8.758544921875,-20.355224609375,82.550048828125
1.5499999,1.5179238319396973,9.069235801696777,4.307168960571289,14.6026611328125,-29.3121337890625,83.770751953125
1.5699999,1.7932571172714233,8.552088737487793,4.141968727111816,11.7645263671875,-34.11865234375,82.51953125
1.5899999,2.0805611610412598,7.850587368011475,3.9815573692321777,4.5318603515625,-37.0330810546875,80.047607421875
1.6099999,2.382230758666992,7.082048416137695,3.8498764038085938,-5.5999755859375,-46.44775390625,68.634033203125
1.6299999,2.676717519760132,6.294356346130371,3.7852327823638916,-5.55419921875,-55.5267333984375,53.985595703125
1.6499999,2.9688100814819336,5.540182590484619,3.620033025741577,3.60107421875,-63.568115234375,46.5087890625
1.6699999,3.246537446975708,5.066130638122559,3.466804027557373,1.15966796875,-64.4989013671875,32.3638916015625
1.6899998999999999,3.507505416870117,4.757278919219971,3.335123062133789,-1.3885498046875,-66.070556640625,22.5372314453125
1.7099999,3.734954595565796,4.501099109649658,3.1723172664642334,-8.2244873046875,-82.275390625,19.7296142578125
1.7299999,3.9001545906066895,4.292803764343262,2.999934673309326,-17.4713134765625,-94.05517578125,5.157470703125
1.7499999,3.971980571746826,3.9671921730041504,2.676717519760132,-19.34814453125,-95.2606201171875,-11.810302734375
1.7699999,3.9456443786621094,3.665522813796997,2.1763293743133545,-22.4151611328125,-94.42138671875,-28.167724609375
1.7899999,3.8067808151245117,3.5458126068115234,1.4987702369689941,-32.4249267578125,-95.245361328125,-47.6531982421875
1.8099999,3.6176388263702393,3.7421371936798096,0.6967126727104187,-27.984619140625,-92.4224853515625,-65.1092529296875
1.8299999,3.3877954483032227,4.235342979431152,-0.10055647045373917,-15.4571533203125,-78.6895751953125,-74.5697021484375
1.8499999,3.1244332790374756,4.917690277099609,-0.8762778043746948,-7.781982421875,-68.8323974609375,-78.9642333984375
1.8699999,2.8419175148010254,5.822698593139648,-1.50355863571167,-1.251220703125,-64.910888671875,-93.32275390625
1.8899999,2.5450363159179688,6.6846113204956055,-2.0398597717285156,2.62451171875,-58.4716796875,-98.5107421875
1.9099999,2.2218191623687744,7.580042362213135,-2.4396915435791016,-2.86865234375,-42.41943359375,-97.1221923828125
1.9299998999999999,1.9081788063049316,8.4108304977417,-2.7940332889556885,-12.725830078125,-26.3824462890625,-99.2584228515625
1.9499999,1.6208745241165161,9.208099365234375,-3.1220390796661377,-16.357421875,-21.087646484375,-105.3619384765625
1.9699999,1.359906554222107,10.06043529510498,-3.2537200450897217,-3.875732421875,-2.01416015625,-107.1319580078125
1.9899999,1.1276689767837524,10.888829231262207,-3.1723172664642334,7.415771484375,20.2178955078125,-94.6197509765625
2.0099999,0.950498104095459,11.839327812194824,-2.719813108444214,-10.162353515625,28.1524658203125,-86.2274169921875
2.0299999,0.790086567401886,12.552799224853516,-2.1116859912872314,-31.036376953125,23.3306884765625,-75.8819580078125
2.0499999,0.6392518281936646,12.99812126159668,-1.50355863571167,2.38037109375,29.144287109375,-65.582275390625
2.0699999,0.4644751250743866,13.472172737121582,-1.0271124839782715,36.3616943359375,48.9654541015625,-74.951171875
2.0899999,0.2825157940387726,13.883975982666016,-0.7038952708244324,17.5628662109375,57.06787109375,-62.408447265625
2.1099999,0.08140286058187485,14.123395919799805,-0.5123591423034668,-26.763916015625,50.23193359375,-22.8424072265625
2.1299999,-0.0694318488240242,14.159308433532715,-0.2944868206977844,-33.9813232421875,52.490234375,-7.6904296875
2.1499999,-0.16519992053508759,13.680468559265137,-0.19393034279346466,-6.3018798828125,60.455322265625,-12.9547119140625
2.1699999,-0.2059013396501541,12.816162109375,-0.12689268589019775,8.270263671875,63.7054443359375,-9.58251953125
2.1899999,-0.18914192914962769,11.908759117126465,-0.17238251864910126,-1.4801025390625,61.2335205078125,-4.058837890625
2.2099999,-0.17717093229293823,11.073183059692383,-0.26815059781074524,-22.8271484375,61.9049072265625,5.9661865234375
2.2299999,-0.16759411990642548,10.488997459411621,-0.2968810200691223,-15.8843994140625,75.13427734375,8.2855224609375
2.2499999,-0.19871874153614044,10.113107681274414,-0.42377370595932007,-5.7220458984375,72.75390625,7.4462890625
2.2699999,-0.2513911724090576,10.15141487121582,-0.28730419278144836,-2.86865234375,77.667236328125,6.9427490234375
2.2899999,-0.33997663855552673,10.548852920532227,0.21308395266532898,-4.2572021484375,88.80615234375,14.22119140625
2.3099999,-0.4141969084739685,11.08754825592041,0.849941611289978,-6.9580078125,74.8291015625,32.3944091796875
2.3299999,-0.4596867263317108,11.70046329498291,1.6400281190872192,-15.1519775390625,58.197021484375,36.6668701171875
2.3499999,-0.4620809257030487,12.102689743041992,2.4205379486083984,-4.0740966796875,65.5059814453125,38.787841796875
2.3699999,-0.42616790533065796,12.229581832885742,3.0166940689086914,7.6446533203125,64.7735595703125,49.652099609375
2.3899999,-0.35673606395721436,12.27507209777832,3.5458126068115234,4.33349609375,52.825927734375,51.8951416015625
2.4099999,-0.26575639843940735,12.109871864318848,3.9624037742614746,-2.044677734375,38.604736328125,59.6160888671875
2.4299999,-0.14604631066322327,11.887211799621582,4.240131378173828,-2.1514892578125,31.7230224609375,67.56591796875
2.4499999,-0.011971008032560349,11.580753326416016,4.304774761199951,1.861572265625,27.2979736328125,71.319580078125
2.4699999,0.14365209639072418,11.276689529418945,4.311957359313965,6.561279296875,22.4761962890625,74.1424560546875
2.4899999,0.3208230137825012,11.006145477294922,4.228160381317139,4.0130615234375,8.97216796875,78.06396484375
2.5099999,0.5386953949928284,10.735600471496582,4.060565948486328,0.1678466796875,-4.9896240234375,84.808349609375
2.5299999,0.7972691655158997,10.491392135620117,3.885789394378662,0.1373291015625,-5.523681640625,88.653564453125
2.5499999,1.0965443849563599,10.125079154968262,3.5027170181274414,3.84521484375,-14.5416259765625,92.1630859375
2.5699999,1.4221558570861816,9.660603523254395,3.1268274784088135,12.8173828125,-20.0958251953125,92.59033203125
2.5899999,1.7525556087493896,9.131484985351562,2.8203697204589844,10.4217529296875,-17.120361328125,87.95166015625
2.6099999,2.0853497982025146,8.564059257507324,2.583343744277954,-7.8582763671875,-24.017333984375,84.9609375
2.6299999,2.4157495498657227,7.9846625328063965,2.5761611461639404,-21.91162109375,-30.8837890625,84.0301513671875
2.6499999,2.7269957065582275,7.33583402633667,2.698265314102173,-19.561767578125,-39.00146484375,80.9326171875
2.6699999,3.0334534645080566,6.672640323638916,2.8586769104003906,-7.9498291015625,-51.544189453125,69.671630859375
2.6899999,3.3207578659057617,6.071695327758789,2.8874073028564453,-4.180908203125,-62.1795654296875,52.7191162109375
2.7099999,3.603273630142212,5.583278179168701,2.8131868839263916,-10.8795166015625,-62.6068115234375,46.6461181640625
2.7299999,3.883395195007324,5.30076265335083,2.6360161304473877,-28.01513671875,-62.9119873046875,38.9251708984375
2.7499999,4.137180328369141,5.137956619262695,2.499546527862549,-38.5589599609375,-70.587158203125,28.564453125
2.7699999,4.347870349884033,4.924872875213623,2.341529369354248,-25.08544921875,-82.3822021484375,21.4385986328125
2.7899999,4.481945514678955,4.6040496826171875,2.032677173614502,-7.2784423828125,-91.0491943359375,9.5062255859375
2.8099999,4.501099109649658,4.23773717880249,1.0462661981582642,-6.3018798828125,-75.1800537109375,-31.219482421875
2.8299999,4.417302131652832,4.455609321594238,0.47644615173339844,-11.3525390625,-78.7200927734375,-36.9415283203125
2.8499999,4.2951979637146,4.9368438720703125,-0.019153613597154617,-20.6298828125,-78.704833984375,-41.046142578125
2.8699999,4.165910720825195,5.403713226318359,-0.5003881454467773,-25.360107421875,-74.5086669921875,-45.41015625
2.8899999,3.9863457679748535,5.66228723526001,-0.9959878921508789,-23.0712890625,-70.2972412109375,-55.2825927734375
2.9099999,3.7612907886505127,5.837063789367676,-1.4963760375976562,-9.09423828125,-61.920166015625,-75.1495361328125
2.9299999,3.488351821899414,6.081272125244141,-1.987187385559082,6.9732666015625,-53.64990234375,-91.1865234375
2.9499999,3.203441858291626,6.40927791595459,-2.3367409706115723,19.5159912109375,-41.6259765625,-86.639404296875
2.9699999,2.9065608978271484,6.876147270202637,-2.5977089405059814,6.622314453125,-36.07177734375,-86.5936279296875
2.9899999,2.6001031398773193,7.316680431365967,-2.693476915359497,-16.6015625,-28.6865234375,-96.710205078125
3.0099999,2.2601263523101807,7.671022415161133,-2.693476915359497,-27.313232421875,-17.2119140625,-103.94287109375
3.0299999,1.8770540952682495,8.056488990783691,-2.6168625354766846,-28.4423828125,-10.955810546875,-104.7515869140625
3.0499999,1.460463047027588,8.530540466308594,-2.5234885215759277,-22.8271484375,-7.049560546875,-104.278564453125
3.0699999,1.070208191871643,9.35893440246582,-2.403778553009033,-15.380859375,1.6326904296875,-113.677978515625
3.0899999,0.7230489253997803,10.457873344421387,-2.231395959854126,-10.19287109375,14.95361328125,-106.1248779296875
3.1099999,0.4429273009300232,11.765107154846191,-1.9129672050476074,-16.4337158203125,25.8026123046875,-84.0606689453125
3.1299999,0.24420857429504395,13.026851654052734,-1.601720929145813,-10.6964111328125,23.040771484375,-68.2220458984375
3.1499999,0.11252748221158981,14.0635404586792,-1.2641384601593018,10.2386474609375,25.390625,-64.9566650390625
3.1699999,0.0071826050989329815,14.717158317565918,-1.070208191871643,14.862060546875,37.0941162109375,-50.933837890625
3.1899999,-0.07900865375995636,15.064316749572754,-1.0223240852355957,-11.260986328125,42.9534912109375,-29.7698974609375
3.2099999,-0.15322890877723694,14.973337173461914,-1.048660397529602,-33.355712890625,44.830322265625,-8.941650390625
3.2299999,-0.1867477297782898,14.417882919311523,-1.1683704853057861,-29.541015625,48.126220703125,0.396728515625
3.2499999,-0.18914192914962769,13.443442344665527,-1.3503297567367554,-23.62060546875,54.5806884765625,2.01416015625
3.2699999,-0.15322890877723694,12.193669319152832,-1.400607943534851,-8.758544921875,70.98388671875,5.37109375
3.2899999,-0.10773907601833344,11.001357078552246,-1.3742717504501343,-5.43212890625,71.3043212890625,5.2947998046875
3.3099999,-0.0933738648891449,10.091560363769531,-1.1899182796478271,-15.106201171875,67.230224609375,1.6937255859375
3.3299999000000002,-0.11252748221158981,9.57441234588623,-0.9457096457481384,-18.402099609375,72.9522705078125,2.655029296875
3.3499999,-0.16519992053508759,9.524134635925293,-0.5913678407669067,-10.1318359375,84.8388671875,4.4097900390625
3.3699999,-0.23942017555236816,9.864110946655273,-0.17717093229293823,-3.0670166015625,84.5947265625,5.5999755859375
3.3899999,-0.3016694188117981,10.429142951965332,0.29209262132644653,-4.0130615234375,74.4171142578125,12.14599609375
3.4099999,-0.33758243918418884,11.149797439575195,0.8307880163192749,-14.95361328125,75.0732421875,19.4244384765625
3.4299999,-0.3519476354122162,11.75792407989502,1.414973258972168,-17.486572265625,82.45849609375,31.7535400390625
3.4499999,-0.3447650372982025,12.176909446716309,1.9919757843017578,-9.124755859375,73.6846923828125,41.5802001953125
3.4699999,-0.3016694188117981,12.389993667602539,2.6240451335906982,-1.3885498046875,60.8062744140625,42.66357421875
3.4899999,-0.23702596127986908,12.373234748840332,3.2082302570343018,2.62451171875,55.755615234375,49.5147705078125
3.5099999,-0.12210428714752197,12.287043571472168,3.6750996112823486,3.6163330078125,52.5360107421875,59.051513671875
3.5299999,0.031124621629714966,12.179304122924805,4.003105163574219,4.852294921875,41.8701171875,66.802978515625
3.5499999,0.19153612852096558,11.999738693237305,4.278438568115234,11.23046875,32.745361328125,75.3326416015625
3.5699999,0.363918662071228,11.801020622253418,4.481945514678955,13.1683349609375,24.566650390625,79.3304443359375
3.5899999,0.5171475410461426,11.554417610168457,4.5154643058776855,8.056640625,9.674072265625,81.54296875
3.6099999,0.6584054827690125,11.224017143249512,4.343081951141357,10.955810546875,-1.2969970703125,89.84375
3.6299999,0.8236053586006165,10.8505220413208,4.01268196105957,18.2037353515625,-2.5787353515625,93.93310546875
3.6499999,1.015141487121582,10.338163375854492,3.581725835800171,20.3094482421875,-5.645751953125,96.0235595703125
3.6699999,1.2880805730819702,9.770736694335938,3.1962592601776123,14.6942138671875,-14.6484375,93.4906005859375
3.6899999,1.6160861253738403,9.172186851501465,2.9328970909118652,1.983642578125,-24.0020751953125,91.461181640625
3.7099999,1.9823989868164062,8.583212852478027,2.8443117141723633,-9.0789794921875,-29.022216796875,95.672607421875
3.7299999,2.3511061668395996,8.042123794555664,2.9328970909118652,-17.2271728515625,-39.2608642578125,98.175048828125
3.7499999,2.6886885166168213,7.331045627593994,3.098097085952759,-24.96337890625,-57.18994140625,98.6480712890625
3.7699999,3.0095114707946777,6.5265936851501465,3.205836057662964,-38.2080078125,-75.1495361328125,85.9375
3.7899999,3.3231520652770996,5.710171222686768,3.2345664501190186,-48.2330322265625,-78.7811279296875,61.34033203125
3.8099999,3.6343982219696045,4.9368438720703125,3.0597896575927734,-51.5289306640625,-85.0982666015625,51.788330078125
3.8299999000000002,3.9408559799194336,4.381389141082764,2.7916390895843506,-47.9583740234375,-95.0927734375,40.52734375
3.8499999,4.201824188232422,3.9695863723754883,2.4013843536376953,-40.740966796875,-100.6927490234375,23.9410400390625
3.8699999,4.381389141082764,3.6822822093963623,1.900996208190918,-28.9154052734375,-100.2960205078125,3.3416748046875
3.8899999,4.46518611907959,3.5027170181274414,1.2617442607879639,-20.81298828125,-97.6104736328125,-14.9078369140625
3.9099999,4.467580318450928,3.6511576175689697,0.4884171485900879,-26.336669921875,-96.0235595703125,-35.552978515625
3.9299999,4.417302131652832,4.165910720825195,-0.27054479718208313,-23.3001708984375,-86.1358642578125,-50.0335693359375
3.9499999,4.343081951141357,4.953603267669678,-0.9816226959228516,-5.889892578125,-74.310302734375,-49.6368408203125
3.9699999,4.2544965744018555,5.8657941818237305,-1.482010841369629,-4.0130615234375,-67.962646484375,-50.9185791015625
3.9899999,4.132391929626465,6.517016887664795,-1.745373010635376,-13.6566162109375,-64.4073486328125,-53.7567138671875
4.0099999,3.936067581176758,6.787561893463135,-1.8507179021835327,-21.2860107421875,-65.12451171875,-59.26513671875
4.029999900000001,3.689464807510376,6.775590896606445,-1.9847931861877441,-3.692626953125,-63.3087158203125,-74.70703125
4.0499999,3.3925838470458984,6.6846113204956055,-2.1954829692840576,27.83203125,-52.3681640625,-89.66064453125
4.069999900000001,3.064578056335449,6.773196697235107,-2.387019157409668,30.4412841796875,-35.46142578125,-93.109130859375
4.0899999000000005,2.715024709701538,7.1706342697143555,-2.4684219360351562,4.2266845703125,-32.65380859375,-91.9036865234375
4.1099999,2.3798365592956543,7.836222171783447,-2.477998733520508,-6.3018798828125,-38.848876953125,-93.170166015625
4.1299999000000005,2.056619167327881,8.609549522399902,-2.449268341064453,1.77001953125,-35.82763671875,-91.400146484375
4.1499999,1.742978811264038,9.315838813781738,-2.516305923461914,11.1541748046875,-24.2767333984375,-87.1429443359375
4.1699999000000005,1.4867992401123047,10.038887977600098,-2.6240451335906982,21.4691162109375,-15.3961181640625,-93.414306640625
4.1899999,1.2689268589019775,10.737994194030762,-2.80361008644104,16.9219970703125,-16.6473388671875,-93.292236328125
4.209999900000001,1.1180921792984009,11.353304862976074,-2.8179752826690674,-3.204345703125,-3.5858154296875,-75.50048828125
4.2299999,1.0223240852355957,11.81059741973877,-2.765302896499634,-21.1029052734375,7.0648193359375,-63.3697509765625
4.249999900000001,0.9433154463768005,11.954249382019043,-2.4827871322631836,-14.7247314453125,11.138916015625,-64.544677734375
4.2699999,0.828393816947937,11.836933135986328,-2.126051187515259,13.763427734375,9.063720703125,-70.0225830078125
4.289999900000001,0.6727706789970398,11.791443824768066,-1.699883222579956,27.03857421875,12.6190185546875,-72.75390625
4.3099999,0.47884035110473633,11.954249382019043,-1.338358759880066,6.1187744140625,19.8211669921875,-59.38720703125
4.329999900000001,0.27054479718208313,12.140996932983398,-1.1516109704971313,-20.9197998046875,17.15087890625,-32.9742431640625
4.3499999,-0.0933738648891449,12.169727325439453,-1.3766659498214722,-14.9688720703125,21.05712890625,-30.5023193359375
4.369999900000001,-0.26336219906806946,11.729193687438965,-1.7190368175506592,-5.279541015625,33.721923828125,-23.8494873046875
4.3899999,-0.38546648621559143,11.348516464233398,-2.1308395862579346,-16.0369873046875,37.322998046875,-23.98681640625
4.409999900000001,-0.4620809257030487,10.96304988861084,-2.4229321479797363,-27.6336669921875,41.2445068359375,-18.9056396484375
4.4299999,-0.44532153010368347,10.663774490356445,-2.4157495498657227,-10.833740234375,55.2825927734375,-7.568359375
4.449999900000001,-0.38067805767059326,10.484209060668945,-2.233790159225464,7.0953369140625,56.427001953125,-6.9427490234375
4.4699999,-0.31364041566848755,10.304644584655762,-1.7932571172714233,0.4425048828125,54.3365478515625,-7.1258544921875
4.489999900000001,-0.3016694188117981,10.292673110961914,-1.3670891523361206,-21.331787109375,53.558349609375,-6.9122314453125
4.5099999,-0.36152446269989014,10.290278434753418,-1.2306196689605713,-25.8636474609375,52.0477294921875,-1.373291015625
4.529999900000001,-0.47165772318840027,10.378864288330078,-1.2641384601593018,-11.1541748046875,65.4449462890625,3.11279296875
4.5499999,-0.5770025849342346,10.493785858154297,-1.403002142906189,-1.46484375,78.399658203125,0.9918212890625
4.569999900000001,-0.6584054827690125,10.57040023803711,-1.5514427423477173,-17.669677734375,73.05908203125,5.7830810546875
4.5899999000000005,-0.7038952708244324,10.721235275268555,-1.4173674583435059,-38.7725830078125,75.469970703125,10.4522705078125
4.609999900000001,-0.7182605266571045,10.860098838806152,-1.1659762859344482,-30.548095703125,80.169677734375,17.303466796875
4.6299999000000005,-0.7254431247711182,11.164162635803223,-0.8595184087753296,-12.8021240234375,77.63671875,17.0745849609375
4.6499999,-0.7110779285430908,11.676521301269531,-0.4165911078453064,-3.448486328125,83.1756591796875,19.7906494140625
4.6699999000000005,-0.6823474764823914,12.397176742553711,0.2753331959247589,0.8087158203125,93.3074951171875,36.92626953125
4.6899999,-0.6320692300796509,13.139378547668457,1.137245774269104,5.2032470703125,84.686279296875,60.333251953125
4.709999900000001,-0.5386953949928284,13.82172679901123,2.027888774871826,3.509521484375,61.981201171875,69.915771484375
4.7299999,-0.4165911078453064,14.358027458190918,2.8203697204589844,14.892578125,58.89892578125,78.582763671875
4.749999900000001,-0.28969839215278625,14.698003768920898,3.315969467163086,26.9012451171875,63.568115234375,108.306884765625
4.7699999,-0.1843535304069519,14.666879653930664,3.531447410583496,23.5595703125,55.0537109375,144.8822021484375
4.789999900000001,-0.08619125932455063,13.996502876281738,3.758896589279175,18.280029296875,45.3033447265625,163.3758544921875
4.8099999,0.06703764945268631,12.567164421081543,4.015076160430908,22.1710205078125,32.806396484375,151.2451171875
4.829999900000001,0.33039984107017517,10.852916717529297,4.153939723968506,28.900146484375,6.40869140625,123.0926513671875
4.8499999,0.730231523513794,8.942343711853027,4.223371982574463,38.75732421875,-8.575439453125,127.197265625
4.869999900000001,1.2449848651885986,7.343016624450684,4.194641590118408,33.7371826171875,-10.833740234375,127.4566650390625
4.8899999,1.821987509727478,6.030993938446045,3.952826976776123,13.1072998046875,-29.47998046875,102.447509765625
4.909999900000001,2.408566951751709,4.908113479614258,3.708618402481079,2.5177001953125,-47.9583740234375,83.282470703125
4.9299999,2.9975404739379883,4.14915132522583,3.4189200401306152,15.2587890625,-54.87060546875,68.756103515625
4.949999900000001,3.509899616241455,3.6583402156829834,2.940079689025879,27.2064208984375,-73.150634765625,57.3883056640625
4.9699999,3.9456443786621094,3.469198226928711,2.367865562438965,33.6761474609375,-81.329345703125,43.0755615234375
4.989999900000001,4.259284973144531,3.49314022064209,1.6065093278884888,11.077880859375,-84.53369140625,25.6500244140625
5.0099999,4.455609321594238,3.60566782951355,0.7972691655158997,-17.2119140625,-84.716796875,18.3258056640625
5.029999900000001,4.534617900848389,3.6846764087677,-0.07900865375995636,-28.0914306640625,-89.324951171875,9.6282958984375
5.0499999,4.501099109649658,3.7469255924224854,-0.9816226959228516,-25.299072265625,-92.8192138671875,-10.284423828125
5.069999900000001,4.37420654296875,3.7469255924224854,-1.8148049116134644,-28.3050537109375,-80.6121826171875,-29.6630859375
5.0899999000000005,4.151545524597168,3.7876269817352295,-2.4875755310058594,-41.3665771484375,-69.2291259765625,-38.3148193359375
5.109999900000001,3.890577793121338,3.9432501792907715,-3.095702886581421,-24.017333984375,-76.9805908203125,-53.466796875
5.1299999000000005,3.600879430770874,4.393360137939453,-3.603273630142212,6.9427490234375,-78.7200927734375,-77.0721435546875
5.1499999,3.3231520652770996,5.145139217376709,-4.031835556030273,-5.8135986328125,-55.877685546875,-84.014892578125
5.1699999000000005,3.066972494125366,6.1530985832214355,-4.168305397033691,-53.7872314453125,-33.477783203125,-73.9898681640625
5.1899999,2.8107926845550537,6.9910688400268555,-4.185064792633057,-59.112548828125,-42.4041748046875,-64.117431640625
5.209999900000001,2.5713725090026855,7.872135162353516,-4.113238334655762,-7.080078125,-53.9093017578125,-90.75927734375
5.2299999,2.3032219409942627,8.583212852478027,-4.017470359802246,30.21240234375,-29.266357421875,-106.2469482421875
5.249999900000001,2.0374655723571777,9.524134635925293,-3.952826976776123,-7.0648193359375,-5.9967041015625,-88.043212890625
5.2699999,1.7525556087493896,10.577583312988281,-3.8307228088378906,-77.7435302734375,-12.481689453125,-66.4520263671875
5.289999900000001,1.5155296325683594,11.465831756591797,-3.691859006881714,-47.7447509765625,-20.3857421875,-55.328369140625
5.3099999,1.3479355573654175,12.36605167388916,-3.552995204925537,-2.716064453125,-0.4425048828125,-73.333740234375
5.329999900000001,1.280897855758667,12.952630996704102,-3.579331636428833,2.044677734375,20.1263427734375,-60.6842041015625
5.3499999,1.316810965538025,13.48414421081543,-3.2992098331451416,-21.2249755859375,31.4788818359375,-29.083251953125
5.369999900000001,1.381454348564148,13.618219375610352,-2.8347349166870117,-56.33544921875,21.91162109375,-9.94873046875
5.3899999,1.4293384552001953,13.110648155212402,-2.2385785579681396,-41.0614013671875,10.9100341796875,-5.1116943359375
5.409999900000001,1.4389152526855469,12.282255172729492,-1.601720929145813,7.1563720703125,23.712158203125,-19.2108154296875
5.4299999,1.414973258972168,11.432312965393066,-1.115697979927063,6.9732666015625,29.388427734375,-25.2685546875
5.449999900000001,1.3862427473068237,10.788272857666016,-0.6272808313369751,-15.716552734375,21.1639404296875,-5.9814453125
5.4699999,1.3718775510787964,10.536881446838379,-0.0694318488240242,-23.98681640625,15.289306640625,0.518798828125
5.489999900000001,1.3623007535934448,10.345345497131348,0.31603461503982544,-14.678955078125,5.4473876953125,-1.2359619140625
5.5099999,1.357512354850769,10.237606048583984,0.5171475410461426,-0.1983642578125,3.1280517578125,-4.0283203125
5.529999900000001,1.3503297567367554,10.213664054870605,0.5123591423034668,-4.3792724609375,6.89697265625,-3.448486328125
5.5499999,1.3527239561080933,10.1753568649292,0.31364041566848755,-12.298583984375,4.302978515625,5.8441162109375
5.569999900000001,1.3670891523361206,10.158597946166992,0.08379705995321274,-13.9923095703125,1.77001953125,5.9661865234375
5.5899999000000005,1.381454348564148,10.007762908935547,-0.16759411990642548,-5.9661865234375,1.2969970703125,3.2501220703125
5.609999900000001,1.3886369466781616,9.832986831665039,-0.3998316824436188,0.0152587890625,0.18310546875,0.091552734375
5.6299999000000005,1.381454348564148,9.66299819946289,-0.5793967843055725,-1.953125,1.8768310546875,0.4119873046875
5.6499999,1.3766659498214722,9.564835548400879,-0.706289529800415,-6.8817138671875,1.5106201171875,2.5177001953125
5.6699999000000005,1.3766659498214722,9.5408935546875,-0.7206547260284424,-6.34765625,2.9296875,0.79345703125
5.6899999,1.3862427473068237,9.50498104095459,-0.6847416758537292,2.6092529296875,1.0833740234375,1.6937255859375
5.709999900000001,1.400607943534851,9.552865028381348,-0.6009446382522583,3.7384033203125,-0.5035400390625,-1.495361328125
5.7299999,1.4077905416488647,9.552865028381348,-0.5291185975074768,0.67138671875,-0.79345703125,0.457763671875
5.749999900000001,1.4101848602294922,9.600749015808105,-0.5123591423034668,-2.1514892578125,-0.5950927734375,0.762939453125
5.7699999,1.4077905416488647,9.619902610778809,-0.5339069962501526,-1.434326171875,0.3662109375,-0.2288818359375
5.789999900000001,1.3958195447921753,9.62947940826416,-0.5889736413955688,0.5645751953125,0.67138671875,-0.579833984375
5.8099999,1.3862427473068237,9.641449928283691,-0.629675030708313,0.7781982421875,1.1444091796875,-0.8087158203125
5.829999900000001,1.3742717504501343,9.655815124511719,-0.6631938815116882,-0.3204345703125,0.8544921875,-0.8544921875
5.8499999,1.3718775510787964,9.660603523254395,-0.6440402865409851,-0.9307861328125,1.46484375,-0.0152587890625
5.869999900000001,1.3838485479354858,9.706093788146973,-0.5793967843055725,0.3662109375,0.885009765625,-0.9918212890625
5.8899999,1.3934253454208374,9.734824180603027,-0.5674257874488831,0.579833984375,0.3204345703125,-0.152587890625
5.909999900000001,1.3982137441635132,9.746794700622559,-0.5339069962501526,0.396728515625,1.2664794921875,1.0223388671875
5.9299999,1.3934253454208374,9.749189376831055,-0.5410895943641663,-0.9002685546875,0.2593994140625,0.0762939453125
5.949999900000001,1.3838485479354858,9.718064308166504,-0.5291185975074768,-0.3204345703125,-0.3509521484375,-0.2288818359375
5.9699999,1.3742717504501343,9.68694019317627,-0.5554547905921936,0.274658203125,-0.5950927734375,-0.8544921875
5.989999900000001,1.3694833517074585,9.670180320739746,-0.5817909836769104,0.2899169921875,-0.030517578125,-0.91552734375
6.0099999,1.3670891523361206,9.660603523254395,-0.6105214357376099,-0.3814697265625,1.1749267578125,-0.396728515625
6.029999900000001,1.3670891523361206,9.653421401977539,-0.6344634294509888,-0.274658203125,0.6256103515625,0.152587890625
6.0499999,1.3670891523361206,9.655815124511719,-0.6392518281936646,-0.1678466796875,-0.030517578125,-0.9918212890625
6.069999900000001,1.3694833517074585,9.636661529541016,-0.6129156351089478,0.91552734375,1.312255859375,-0.67138671875
6.0899999000000005,1.3718775510787964,9.634267807006836,-0.6057330369949341,0.244140625,0.091552734375,-1.0986328125
6.109999900000001,1.3742717504501343,9.62947940826416,-0.5793967843055725,0.3662109375,0.06103515625,-1.5411376953125
6.1299999000000005,1.3718775510787964,9.636661529541016,-0.5506663918495178,1.0833740234375,1.1444091796875,-1.556396484375
6.149999900000001,1.3694833517074585,9.636661529541016,-0.5339069962501526,0.9307861328125,0.0762939453125,-1.2359619140625
6.1699999000000005,1.3646949529647827,9.66299819946289,-0.5147533416748047,-0.3814697265625,-0.54931640625,-2.4871826171875
6.1899999,1.357512354850769,9.66299819946289,-0.5147533416748047,0.06103515625,-0.4119873046875,-1.129150390625
6.209999900000001,1.3455413579940796,9.66539192199707,-0.5578489899635315,-0.2288818359375,-0.67138671875,-1.40380859375
6.2299999,1.338358759880066,9.660603523254395,-0.5841852426528931,0.1678466796875,1.15966796875,-2.838134765625
6.249999900000001,1.3287819623947144,9.655815124511719,-0.6320692300796509,1.373291015625,0.701904296875,-3.6773681640625
6.2699999,1.3215993642807007,9.66539192199707,-0.6392518281936646,2.960205078125,0.3204345703125,-2.532958984375
6.289999900000001,1.3120225667953491,9.696516990661621,-0.6488286852836609,3.204345703125,0.79345703125,-2.8076171875
6.3099999,1.2976573705673218,9.744400978088379,-0.6631938815116882,1.007080078125,0.3814697265625,-2.8839111328125
6.329999900000001,1.2880805730819702,9.773131370544434,-0.6967126727104187,1.5716552734375,1.2359619140625,-1.4190673828125
6.3499999,1.2832920551300049,9.816226959228516,-0.6967126727104187,2.3345947265625,2.655029296875,-0.335693359375
6.369999900000001,1.280897855758667,9.785101890563965,-0.667982280254364,2.2430419921875,1.5716552734375,1.64794921875
6.3899999,1.2761094570159912,9.744400978088379,-0.6344634294509888,0.1220703125,-1.89208984375,-0.06103515625
6.409999900000001,1.2737152576446533,9.677363395690918,-0.6033388376235962,-0.2899169921875,-1.28173828125,-2.2430419921875
6.4299999,1.2713210582733154,9.62947940826416,-0.6177040338516235,0.335693359375,0.79345703125,-1.9073486328125
6.449999900000001,1.2713210582733154,9.622296333312988,-0.6488286852836609,1.0223388671875,1.3885498046875,-0.762939453125
6.4699999,1.2713210582733154,9.641449928283691,-0.6703764796257019,0.457763671875,0.42724609375,-0.0762939453125
6.489999900000001,1.2713210582733154,9.672574996948242,-0.6919242739677429,0.6561279296875,-0.030517578125,-0.54931640625
6.5099999,1.2689268589019775,9.713275909423828,-0.7038952708244324,1.190185546875,0.6561279296875,-0.2899169921875
6.529999900000001,1.2641384601593018,9.742006301879883,-0.7182605266571045,0.8544921875,1.6326904296875,0.244140625
6.5499999,1.259350061416626,9.761159896850586,-0.730231523513794,0.091552734375,1.0986328125,0.5035400390625
6.569999900000001,1.259350061416626,9.773131370544434,-0.7350199222564697,0.030517578125,0.946044921875,-0.18310546875
6.5899999000000005,1.259350061416626,9.765948295593262,-0.727837324142456,0.640869140625,1.708984375,0.1220703125
6.609999900000001,1.2617442607879639,9.75397777557373,-0.706289529800415,1.28173828125,1.953125,1.0833740234375
6.6299999000000005,1.2641384601593018,9.734824180603027,-0.7110779285430908,0.5950927734375,-0.0762939453125,0.54931640625
6.649999900000001,1.2665326595306396,9.706093788146973,-0.6847416758537292,1.1444091796875,1.7852783203125,0.0152587890625
6.6699999000000005,1.2689268589019775,9.658209800720215,-0.6751648783683777,0.8392333984375,2.471923828125,0.152587890625
6.6899999,1.2713210582733154,9.617507934570312,-0.6655880808830261,0.48828125,0.946044921875,-0.6866455078125
6.709999900000001,1.2713210582733154,9.600749015808105,-0.6536170840263367,0.3204345703125,0.0762939453125,-1.4801025390625
6.7299999,1.2713210582733154,9.603142738342285,-0.646434485912323,1.220703125,0.9613037109375,-0.4425048828125
6.749999900000001,1.2713210582733154,9.627084732055664,-0.6727706789970398,1.708984375,0.7476806640625,0.6561279296875
6.7699999,1.2689268589019775,9.643844604492188,-0.6943184733390808,1.251220703125,1.1749267578125,-0.1068115234375
6.789999900000001,1.2641384601593018,9.66299819946289,-0.727837324142456,0.2593994140625,1.220703125,-1.40380859375
6.8099999,1.2521674633026123,9.68694019317627,-0.7445967197418213,-0.1373291015625,0.9307861328125,-1.800537109375
6.829999900000001,1.2473790645599365,9.715670585632324,-0.7445967197418213,1.068115234375,1.373291015625,-0.1983642578125
6.8499999,1.2449848651885986,9.758766174316406,-0.7493851184844971,-0.3814697265625,0.6561279296875,-0.3204345703125
6.869999900000001,1.2473790645599365,9.75397777557373,-0.7254431247711182,0.0762939453125,1.89208984375,0.6103515625
6.8899999,1.2521674633026123,9.75637149810791,-0.730231523513794,-0.457763671875,1.129150390625,-1.0528564453125
6.909999900000001,1.2545616626739502,9.708487510681152,-0.7254431247711182,-0.091552734375,0.8087158203125,-0.8697509765625
6.9299999,1.2521674633026123,9.677363395690918,-0.706289529800415,1.129150390625,2.2430419921875,-0.7781982421875
6.949999900000001,1.2473790645599365,9.679757118225098,-0.7015010714530945,1.190185546875,0.7476806640625,-2.410888671875
6.9699999,1.2425906658172607,9.710882186889648,-0.667982280254364,2.6702880859375,0.8392333984375,-0.9613037109375
6.989999900000001,1.237802267074585,9.746794700622559,-0.6799532771110535,2.6702880859375,0.0457763671875,1.5411376953125
7.0099999,1.235408067703247,9.787496566772461,-0.7182605266571045,1.0833740234375,0.2899169921875,1.0223388671875
7.029999900000001,1.237802267074585,9.761159896850586,-0.768538773059845,1.1138916015625,2.532958984375,0.457763671875
7.0499999,1.237802267074585,9.708487510681152,-0.8164227604866028,0.335693359375,2.4566650390625,0.2288818359375
7.069999900000001,1.2306196689605713,9.622296333312988,-0.8379706144332886,-0.5950927734375,0.946044921875,-0.091552734375
7.0899999000000005,1.2258312702178955,9.5624418258667,-0.8259995579719543,0.7171630859375,1.4801025390625,-1.1444091796875
7.109999900000001,1.2210428714752197,9.545681953430176,-0.7972691655158997,0.5035400390625,1.9378662109375,-2.4566650390625
7.1299999000000005,1.2210428714752197,9.583989143371582,-0.7757213711738586,-0.030517578125,1.2359619140625,-1.2969970703125
7.149999900000001,1.2282254695892334,9.660603523254395,-0.7637503147125244,-0.3814697265625,0.79345703125,0.1068115234375
7.1699999000000005,1.2330138683319092,9.734824180603027,-0.7350199222564697,1.0223388671875,2.593994140625,0.946044921875
7.1899999,1.2306196689605713,9.768342971801758,-0.7254431247711182,0.6561279296875,1.617431640625,0.732421875
7.209999900000001,1.2258312702178955,9.775525093078613,-0.6991068720817566,-0.6866455078125,0.213623046875,-0.518798828125
7.2299999,1.2234370708465576,9.746794700622559,-0.689530074596405,0.0152587890625,0.213623046875,-0.152587890625
7.249999900000001,1.2234370708465576,9.720458984375,-0.6919242739677429,0.457763671875,0.6866455078125,0.030517578125
7.2699999,1.2258312702178955,9.6989107131958,-0.7086837291717529,0.5645751953125,0.91552734375,-0.274658203125
7.289999900000001,1.2306196689605713,9.684545516967773,-0.7326257228851318,0.9918212890625,0.274658203125,-0.152587890625
7.3099999,1.2306196689605713,9.68694019317627,-0.7326257228851318,1.15966796875,0.6866455078125,-0.18310546875
7.329999900000001,1.2330138683319092,9.66299819946289,-0.7565677165985107,0.1220703125,-0.1678466796875,1.220703125
7.3499999,1.2306196689605713,9.646238327026367,-0.7829039692878723,-0.9613037109375,-0.4425048828125,-0.030517578125
7.369999900000001,1.2258312702178955,9.603142738342285,-0.8259995579719543,0.1678466796875,1.3885498046875,-1.2054443359375
7.3899999,1.213860273361206,9.610325813293457,-0.9050082564353943,-1.3427734375,1.2664794921875,-1.861572265625
7.409999900000001,1.213860273361206,9.670180320739746,-0.8978256583213806,-1.2664794921875,2.13623046875,-1.03759765625
7.4299999,1.216254472732544,9.727641105651855,-0.8619126081466675,0.1983642578125,2.50244140625,0.244140625
7.449999900000001,1.2210428714752197,9.77791976928711,-0.7852981686592102,-0.335693359375,2.7313232421875,-0.5950927734375
7.4699999,1.2186486721038818,9.761159896850586,-0.6967126727104187,-0.335693359375,1.4801025390625,-0.3814697265625
7.489999900000001,1.2090718746185303,9.730035781860352,-0.6344634294509888,-0.67138671875,0.2288818359375,-2.5634765625
7.5099999,1.194706678390503,9.68694019317627,-0.5961562395095825,-1.312255859375,0.4425048828125,-4.669189453125
7.529999900000001,1.1827356815338135,9.682151794433594,-0.6200982332229614,-2.1209716796875,0.5645751953125,-4.5166015625
7.5499999,1.1755530834197998,9.710882186889648,-0.6584054827690125,-1.3885498046875,0.2593994140625,-1.5106201171875
7.569999900000001,1.173158884048462,9.734824180603027,-0.7350199222564697,-0.0152587890625,-0.2593994140625,0.7781982421875
7.5899999000000005,1.1683704853057861,9.75397777557373,-0.8092401623725891,-0.2593994140625,0.1220703125,-0.030517578125
7.609999900000001,1.161187767982483,9.732429504394531,-0.8595184087753296,0.06103515625,2.4261474609375,-0.396728515625
7.6299999000000005,1.1563993692398071,9.706093788146973,-0.8978256583213806,-1.6326904296875,1.251220703125,-0.244140625
7.649999900000001,1.1516109704971313,9.672574996948242,-0.8810662031173706,-1.190185546875,1.312255859375,-0.1220703125
7.6699999000000005,1.1492167711257935,9.655815124511719,-0.8451532125473022,-0.0457763671875,1.64794921875,-0.6561279296875
7.6899999,1.1492167711257935,9.667786598205566,-0.8164227604866028,-0.274658203125,0.9918212890625,-1.4801025390625
7.709999900000001,1.1516109704971313,9.691728591918945,-0.7805097699165344,0.2288818359375,1.6632080078125,0.2593994140625
7.7299999,1.1516109704971313,9.737217903137207,-0.7350199222564697,0.8087158203125,2.3956298828125,0.8087158203125
7.749999900000001,1.1540051698684692,9.785101890563965,-0.706289529800415,0.0457763671875,0.457763671875,-0.030517578125
7.7699999,1.158793568611145,9.816226959228516,-0.6799532771110535,0.518798828125,0.152587890625,0.6256103515625
7.789999900000001,1.1635819673538208,9.821015357971191,-0.6775590777397156,0.8087158203125,1.739501953125,1.953125
7.8099999,1.1683704853057861,9.782708168029785,-0.6823474764823914,1.8310546875,2.288818359375,1.9989013671875
7.829999900000001,1.170764684677124,9.734824180603027,-0.6871358752250671,1.0223388671875,0.946044921875,0.1068115234375
7.8499999,1.1659762859344482,9.641449928283691,-0.7038952708244324,0.1220703125,-0.67138671875,0.48828125
7.869999900000001,1.1683704853057861,9.588777542114258,-0.7086837291717529,1.3275146484375,0.6561279296875,0
7.8899999,1.1659762859344482,9.5624418258667,-0.7493851184844971,0.5950927734375,0.4119873046875,-1.2969970703125
7.909999900000001,1.1683704853057861,9.564835548400879,-0.7709329724311829,0.5340576171875,0.457763671875,-0.2593994140625
7.9299999,1.1683704853057861,9.603142738342285,-0.811634361743927,-0.6103515625,0.0762939453125,-0.1068115234375
7.949999900000001,1.1683704853057861,9.655815124511719,-0.8427590131759644,-0.7476806640625,0.8544921875,-0.6866455078125
7.9699999,1.1683704853057861,9.710882186889648,-0.8403648138046265,0.4425048828125,2.9296875,-0.8087158203125
7.989999900000001,1.161187767982483,9.761159896850586,-0.8331822156906128,-0.3509521484375,1.2969970703125,-0.1373291015625
8.0099999,1.1563993692398071,9.78989028930664,-0.7852981686592102,-0.579833984375,0.3204345703125,0.8087158203125
8.0299999,1.1540051698684692,9.78989028930664,-0.7493851184844971,-0.030517578125,0.640869140625,0.7476806640625
8.049999900000001,1.1540051698684692,9.761159896850586,-0.7230489253997803,0.3509521484375,1.129150390625,-0.030517578125
8.069999900000001,1.1563993692398071,9.715670585632324,-0.7254431247711182,0.67138671875,0.54931640625,-0.1678466796875
8.0899999,1.158793568611145,9.684545516967773,-0.7422025203704834,0.79345703125,0.4119873046875,-0.335693359375
8.1099999,1.1635819673538208,9.674968719482422,-0.7757213711738586,-0.5340576171875,0.8087158203125,-0.6103515625
8.129999900000001,1.1635819673538208,9.68694019317627,-0.7972691655158997,-0.5340576171875,1.8310546875,-0.1678466796875
8.149999900000001,1.1683704853057861,9.6989107131958,-0.8020575642585754,-0.213623046875,1.2969970703125,0.67138671875
8.1699999,1.1659762859344482,9.715670585632324,-0.7996633648872375,-0.1678466796875,0.091552734375,0.18310546875
8.1899999,1.1659762859344482,9.706093788146973,-0.7829039692878723,1.15966796875,0.54931640625,0.4730224609375
8.2099999,1.1635819673538208,9.701305389404297,-0.7852981686592102,0.7171630859375,1.190185546875,0.1373291015625
8.229999900000001,1.161187767982483,9.694122314453125,-0.7852981686592102,0.2288818359375,1.6937255859375,-0.4730224609375
8.2499999,1.161187767982483,9.68694019317627,-0.7876923680305481,0.18310546875,1.2664794921875,-0.1068115234375
8.2699999,1.161187767982483,9.696516990661621,-0.7852981686592102,-0.1373291015625,1.1444091796875,-0.4730224609375
8.2899999,1.161187767982483,9.701305389404297,-0.7829039692878723,0.3509521484375,1.3580322265625,0.3204345703125
8.309999900000001,1.1635819673538208,9.708487510681152,-0.790086567401886,0.091552734375,1.3427734375,0.457763671875
8.3299999,1.1683704853057861,9.696516990661621,-0.7924807667732239,0.6103515625,1.5411376953125,0.8087158203125
8.3499999,1.1683704853057861,9.694122314453125,-0.7924807667732239,0.1220703125,1.28173828125,-0.518798828125
8.3699999,1.170764684677124,9.679757118225098,-0.7948749661445618,-0.06103515625,0.6866455078125,-0.1068115234375
8.389999900000001,1.1683704853057861,9.670180320739746,-0.790086567401886,0.3204345703125,1.434326171875,0.48828125
8.4099999,1.1659762859344482,9.658209800720215,-0.8068459630012512,0.2593994140625,0.8392333984375,0.0457763671875
8.4299999,1.1635819673538208,9.674968719482422,-0.8092401623725891,1.03759765625,1.6326904296875,-1.46484375
8.4499999,1.158793568611145,9.682151794433594,-0.7972691655158997,2.74658203125,2.3651123046875,-0.091552734375
8.469999900000001,1.158793568611145,9.708487510681152,-0.7661445140838623,1.251220703125,0.9918212890625,0.701904296875
8.4899999,1.1540051698684692,9.727641105651855,-0.7422025203704834,-1.129150390625,-0.640869140625,0.030517578125
8.5099999,1.1540051698684692,9.715670585632324,-0.7422025203704834,-0.1373291015625,-0.30517578125,0.1068115234375
8.5299999,1.1540051698684692,9.713275909423828,-0.7541735172271729,1.861572265625,1.739501953125,-0.244140625
8.549999900000001,1.1563993692398071,9.694122314453125,-0.7972691655158997,1.739501953125,1.03759765625,0.030517578125
8.569999900000001,1.161187767982483,9.691728591918945,-0.8164227604866028,0.8392333984375,0.7476806640625,-0.030517578125
8.5899999,1.161187767982483,9.684545516967773,-0.8307880163192749,0.701904296875,0.946044921875,0.0457763671875
8.6099999,1.158793568611145,9.682151794433594,-0.8403648138046265,0.2288818359375,0.335693359375,-0.274658203125
8.629999900000001,1.1540051698684692,9.68694019317627,-0.8331822156906128,0.79345703125,0.8544921875,-0.274658203125
8.649999900000001,1.1540051698684692,9.706093788146973,-0.8379706144332886,0.8697509765625,0.5645751953125,-0.18310546875
8.6699999,1.1563993692398071,9.718064308166504,-0.8212111592292786,1.1749267578125,0.7171630859375,0.579833984375
8.6899999,1.161187767982483,9.739612579345703,-0.8355764150619507,0.396728515625,0.2593994140625,0.30517578125
8.709999900000001,1.161187767982483,9.746794700622559,-0.8379706144332886,0.1373291015625,1.0223388671875,0.30517578125
8.729999900000001,1.161187767982483,9.742006301879883,-0.8403648138046265,0.8392333984375,1.6632080078125,0.885009765625
8.7499999,1.158793568611145,9.737217903137207,-0.8451532125473022,0.48828125,0.4730224609375,0.6256103515625
8.7699999,1.1563993692398071,9.703699111938477,-0.8307880163192749,1.0833740234375,0.7171630859375,0.946044921875
8.7899999,1.1563993692398071,9.68933391571045,-0.8164227604866028,1.3885498046875,1.0528564453125,-0.0457763671875
8.809999900000001,1.158793568611145,9.682151794433594,-0.8355764150619507,-0.42724609375,-0.8544921875,-0.9002685546875
8.8299999,1.161187767982483,9.667786598205566,-0.8547300100326538,0.0457763671875,0.396728515625,1.4801025390625
8.8499999,1.170764684677124,9.682151794433594,-0.8738836050033569,0.244140625,1.800537109375,0.762939453125
8.8699999,1.1755530834197998,9.674968719482422,-0.8978256583213806,0.42724609375,0.8544921875,0.6561279296875
8.889999900000001,1.1755530834197998,9.672574996948242,-0.8954314589500427,0.9765625,0.30517578125,1.1138916015625
8.9099999,1.173158884048462,9.694122314453125,-0.849941611289978,0.1373291015625,0.8544921875,-0.6866455078125
8.9299999,1.173158884048462,9.703699111938477,-0.8403648138046265,0.0762939453125,-0.3814697265625,0.79345703125
8.9499999,1.1779472827911377,9.746794700622559,-0.8236053586006165,-0.091552734375,0.4730224609375,0.823974609375
8.969999900000001,1.1827356815338135,9.744400978088379,-0.8379706144332886,0.457763671875,0.7476806640625,1.2664794921875
8.9899999,1.1851298809051514,9.727641105651855,-0.8475474119186401,-0.18310546875,0.732421875,1.03759765625
9.0099999,1.1875240802764893,9.677363395690918,-0.8571242094039917,0.67138671875,0.8544921875,0.3509521484375
9.0299999,1.1875240802764893,9.634267807006836,-0.8523358106613159,0.6866455078125,0.7476806640625,-0.06103515625
9.049999900000001,1.1851298809051514,9.600749015808105,-0.8690952062606812,-0.213623046875,0.0152587890625,-0.3509521484375
9.069999900000001,1.1827356815338135,9.586383819580078,-0.8858546018600464,-0.732421875,0.2288818359375,-0.0457763671875
9.0899999,1.1779472827911377,9.607931137084961,-0.9145850539207458,0.3509521484375,1.5716552734375,-0.640869140625
9.1099999,1.1755530834197998,9.634267807006836,-0.9457096457481384,0,1.7852783203125,-0.8392333984375
9.129999900000001,1.173158884048462,9.684545516967773,-0.9289502501487732,-0.1068115234375,2.50244140625,-0.396728515625
9.149999900000001,1.173158884048462,9.725247383117676,-0.912190854549408,-0.4425048828125,1.007080078125,0.06103515625
9.1699999,1.1755530834197998,9.749189376831055,-0.8930372595787048,-1.1138916015625,-0.30517578125,0.7781982421875
9.1899999,1.1779472827911377,9.75637149810791,-0.8762778043746948,0.3204345703125,2.01416015625,0.579833984375
9.209999900000001,1.1779472827911377,9.734824180603027,-0.8906430602073669,0.8697509765625,2.197265625,0.67138671875
9.229999900000001,1.173158884048462,9.710882186889648,-0.8786720037460327,0.3662109375,2.197265625,0.5950927734375
9.2499999,1.1755530834197998,9.694122314453125,-0.8738836050033569,-1.6021728515625,0.5645751953125,-0.274658203125
9.2699999,1.1779472827911377,9.677363395690918,-0.8738836050033569,-1.068115234375,0.3509521484375,0.1373291015625
9.2899999,1.1851298809051514,9.679757118225098,-0.8595184087753296,0.30517578125,2.62451171875,0.0762939453125
9.309999900000001,1.1899182796478271,9.66539192199707,-0.8643068075180054,1.0223388671875,1.861572265625,0.5950927734375
9.3299999,1.192312479019165,9.672574996948242,-0.8523358106613159,-0.1678466796875,0.2288818359375,-0.457763671875
9.3499999,1.192312479019165,9.674968719482422,-0.8475474119186401,-0.274658203125,0.6103515625,-0.6256103515625
9.3699999,1.192312479019165,9.68933391571045,-0.8379706144332886,0.946044921875,1.6021728515625,0.518798828125
9.389999900000001,1.1899182796478271,9.6989107131958,-0.8379706144332886,0.9918212890625,1.15966796875,0.7781982421875
9.4099999,1.1899182796478271,9.706093788146973,-0.8331822156906128,0.885009765625,0.3814697265625,0.30517578125
9.4299999,1.1875240802764893,9.706093788146973,-0.8451532125473022,0.0457763671875,-0.2288818359375,0.1220703125
9.4499999,1.1899182796478271,9.694122314453125,-0.8667010068893433,0.1068115234375,0.9002685546875,0.7171630859375
9.469999900000001,1.1899182796478271,9.6989107131958,-0.8930372595787048,-0.0762939453125,1.251220703125,0.30517578125
9.4899999,1.192312479019165,9.696516990661621,-0.9193734526634216,-0.2899169921875,0.5035400390625,0.091552734375
9.5099999,1.192312479019165,9.68933391571045,-0.9145850539207458,-0.0152587890625,1.2664794921875,0.5340576171875
9.5299999,1.192312479019165,9.694122314453125,-0.9002198576927185,0.18310546875,1.251220703125,0.335693359375
9.549999900000001,1.1899182796478271,9.682151794433594,-0.8858546018600464,0.0762939453125,0.42724609375,0.396728515625
9.569999900000001,1.1899182796478271,9.674968719482422,-0.8667010068893433,0.4119873046875,0.640869140625,0.1373291015625
9.5899999,1.192312479019165,9.672574996948242,-0.8738836050033569,0.091552734375,0.6866455078125,-0.579833984375
9.6099999,1.194706678390503,9.667786598205566,-0.8810662031173706,0.030517578125,0.7781982421875,0.2899169921875
9.629999900000001,1.1994950771331787,9.670180320739746,-0.8930372595787048,0.3204345703125,0.9613037109375,0.8392333984375
9.649999900000001,1.2018892765045166,9.660603523254395,-0.912190854549408,-0.213623046875,0.579833984375,0.2593994140625
9.6699999,1.2018892765045166,9.660603523254395,-0.9217676520347595,-0.244140625,1.3885498046875,-0.8087158203125
9.6899999,1.1971008777618408,9.651026725769043,-0.9050082564353943,0.2593994140625,2.197265625,-0.3509521484375
9.709999900000001,1.194706678390503,9.658209800720215,-0.8858546018600464,0.06103515625,0.6866455078125,-0.274658203125
9.729999900000001,1.192312479019165,9.674968719482422,-0.8571242094039917,-0.3204345703125,-0.42724609375,-0.5340576171875
9.7499999,1.192312479019165,9.696516990661621,-0.849941611289978,0.3204345703125,0.396728515625,-0.244140625
9.7699999,1.194706678390503,9.720458984375,-0.8619126081466675,0.213623046875,1.0528564453125,0.2593994140625
9.7899999,1.1971008777618408,9.718064308166504,-0.8738836050033569,0.4119873046875,1.15966796875,1.129150390625
9.809999900000001,1.1971008777618408,9.718064308166504,-0.8858546018600464,-0.4425048828125,0.30517578125,-0.0152587890625
9.8299999,1.194706678390503,9.694122314453125,-0.8810662031173706,-0.54931640625,0.152587890625,-0.30517578125
9.8499999,1.1899182796478271,9.672574996948242,-0.8906430602073669,0.091552734375,0.640869140625,0.2899169921875
9.8699999,1.1875240802764893,9.667786598205566,-0.9193734526634216,-0.6866455078125,0.3204345703125,-0.274658203125
9.889999900000001,1.1875240802764893,9.667786598205566,-0.9313444495201111,0.762939453125,1.739501953125,-0.274658203125
9.9099999,1.1875240802764893,9.66299819946289,-0.9361328482627869,0.5035400390625,1.922607421875,0.2593994140625
9.9299999,1.1899182796478271,9.667786598205566,-0.9361328482627869,-0.79345703125,0.2593994140625,-0.18310546875
9.9499999,1.192312479019165,9.672574996948242,-0.9050082564353943,-0.9307861328125,0.8087158203125,-1.0833740234375
9.969999900000001,1.192312479019165,9.670180320739746,-0.8595184087753296,0.823974609375,1.77001953125,0.274658203125
9.9899999,1.192312479019165,9.696516990661621,-0.8451532125473022,-0.030517578125,-0.8392333984375,-0.3662109375
10.0099999,1.192312479019165,9.710882186889648,-0.828393816947937,-0.640869140625,-0.6866455078125,0.1068115234375
10.0299999,1.192312479019165,9.739612579345703,-0.8355764150619507,0.2899169921875,1.4801025390625,0.213623046875
10.049999900000001,1.1899182796478271,9.737217903137207,-0.8643068075180054,0.9307861328125,0.8392333984375,0.9307861328125
10.069999900000001,1.1899182796478271,9.734824180603027,-0.871489405632019,0.3814697265625,0.152587890625,0.5035400390625
10.0899999,1.1875240802764893,9.6989107131958,-0.8954314589500427,-0.2593994140625,-0.7476806640625,0.396728515625
10.1099999,1.1899182796478271,9.682151794433594,-0.8858546018600464,0.396728515625,0.732421875,-0.0457763671875
10.129999900000001,1.194706678390503,9.653421401977539,-0.9217676520347595,-0.213623046875,-0.3509521484375,0.518798828125
10.149999900000001,1.1994950771331787,9.634267807006836,-0.9313444495201111,-0.1220703125,0.0762939453125,0.4730224609375
10.1699999,1.1994950771331787,9.643844604492188,-0.9624691009521484,0.18310546875,1.0223388671875,-1.2664794921875
10.1899999,1.194706678390503,9.639056205749512,-0.9672574996948242,0.885009765625,1.6021728515625,-0.2593994140625
10.209999900000001,1.192312479019165,9.66539192199707,-0.9600749015808105,0.18310546875,1.03759765625,0.18310546875
10.229999900000001,1.192312479019165,9.691728591918945,-0.9409212470054626,-0.4425048828125,0.30517578125,-0.244140625
10.2499999,1.194706678390503,9.708487510681152,-0.9097966551780701,0.762939453125,1.129150390625,0.6103515625
10.2699999,1.194706678390503,9.718064308166504,-0.8810662031173706,0.640869140625,1.2054443359375,0.6256103515625
10.2899999,1.1994950771331787,9.715670585632324,-0.8643068075180054,-0.4425048828125,-0.06103515625,0.30517578125
10.309999900000001,1.194706678390503,9.706093788146973,-0.8451532125473022,-0.640869140625,-0.335693359375,-0.213623046875
10.3299999,1.1899182796478271,9.694122314453125,-0.8331822156906128,0.7781982421875,0.732421875,0.213623046875
10.3499999,1.1851298809051514,9.68933391571045,-0.849941611289978,-0.4119873046875,-0.732421875,-0.0152587890625
10.3699999,1.1875240802764893,9.694122314453125,-0.8523358106613159,0.0762939453125,-0.274658203125,-0.0762939453125
10.389999900000001,1.1875240802764893,9.706093788146973,-0.8523358106613159,0.42724609375,0.091552734375,0.2288818359375
10.4099999,1.1899182796478271,9.6989107131958,-0.8571242094039917,0.3814697265625,-1.2359619140625,1.4190673828125
10.4299999,1.192312479019165,9.674968719482422,-0.8882488012313843,-0.4730224609375,-1.0986328125,-0.5035400390625
10.4499999,1.192312479019165,9.660603523254395,-0.9265560507774353,0.0762939453125,-0.5340576171875,-0.0152587890625
10.469999900000001,1.1899182796478271,9.66299819946289,-0.9720458984375,0.518798828125,-0.274658203125,0.1068115234375
10.4899999,1.192312479019165,9.674968719482422,-1.0007762908935547,-0.0152587890625,0.0152587890625,0.030517578125
10.5099999,1.192312479019165,9.696516990661621,-1.036689281463623,-1.40380859375,-0.3509521484375,-0.1983642578125
10.5299999,1.192312479019165,9.691728591918945,-1.036689281463623,0.3814697265625,1.373291015625,1.007080078125
10.549999900000001,1.1971008777618408,9.715670585632324,-1.0127472877502441,0.48828125,1.434326171875,0.3814697265625
10.569999900000001,1.1994950771331787,9.667786598205566,-0.9552865028381348,0.030517578125,0.1983642578125,1.52587890625
10.5899999,1.2018892765045166,9.636661529541016,-0.8858546018600464,0.0457763671875,-1.129150390625,0.3662109375
10.6099999,1.1994950771331787,9.615114212036133,-0.8259995579719543,-0.4425048828125,-0.396728515625,-2.6397705078125
10.629999900000001,1.194706678390503,9.59596061706543,-0.8188169598579407,0.9002685546875,-0.9002685546875,-0.54931640625
10.649999900000001,1.192312479019165,9.653421401977539,-0.8307880163192749,0.152587890625,-0.8087158203125,-0.9613037109375
10.6699999,1.1899182796478271,9.6989107131958,-0.8667010068893433,0.91552734375,-0.3509521484375,-0.0457763671875
10.6899999,1.1851298809051514,9.75397777557373,-0.9026140570640564,0.3662109375,-0.518798828125,0.5035400390625
10.709999900000001,1.1779472827911377,9.773131370544434,-0.9409212470054626,-0.1068115234375,-1.0833740234375,0.396728515625
10.729999900000001,1.173158884048462,9.737217903137207,-0.9576807022094727,0.6866455078125,-0.1983642578125,1.007080078125
10.7499999,1.1755530834197998,9.684545516967773,-0.9888052940368652,0.213623046875,-0.4119873046875,-0.3509521484375
10.7699999,1.173158884048462,9.59596061706543,-1.0414776802062988,-1.251220703125,-1.251220703125,-0.518798828125
10.7899999,1.158793568611145,9.53849983215332,-1.158793568611145,-1.2969970703125,0.06103515625,-1.6937255859375
10.809999900000001,1.1252747774124146,9.488221168518066,-1.4724340438842773,-5.06591796875,0.1220703125,-2.50244140625
10.8299999,1.0678139925003052,9.469067573547363,-2.145204782485962,-13.7939453125,0.8392333984375,-3.387451171875
10.8499999,0.9816226959228516,9.536105155944824,-3.07415509223938,-13.73291015625,16.41845703125,-5.2337646484375
10.8699999,0.8762778043746948,9.684545516967773,-4.189853191375732,-6.988525390625,38.4063720703125,-4.0435791015625
10.889999900000001,0.7326257228851318,9.90241813659668,-5.284003257751465,-8.056640625,52.093505859375,-0.335693359375
10.9099999,0.5554547905921936,10.089165687561035,-6.1985883712768555,-16.4947509765625,67.44384765625,3.9825439453125
10.9299999,0.38067805767059326,10.160991668701172,-6.746860504150391,-25.7110595703125,94.085693359375,5.1116943359375
10.9499999,0.22266076505184174,10.113107681274414,-6.567295074462891,-17.7154541015625,125.5035400390625,4.4097900390625
10.969999900000001,0.11013327538967133,9.95748519897461,-5.547365188598633,-4.608154296875,136.0931396484375,5.4473876953125
10.9899999,0.0694318488240242,9.77791976928711,-3.907337188720703,-21.97265625,115.4632568359375,6.317138671875
11.0099999,0.06703764945268631,9.610325813293457,-1.6400281190872192,-23.13232421875,118.6981201171875,5.8135986328125
11.0299999,0.11971008777618408,9.452308654785156,0.7829039692878723,3.0517578125,128.3416748046875,5.1727294921875
11.049999900000001,0.2106897532939911,9.430760383605957,3.2154128551483154,1.6021728515625,100.982666015625,0.2288818359375
11.069999900000001,0.35434186458587646,9.526528358459473,5.674258232116699,-5.8746337890625,70.648193359375,1.220703125
11.0899999,0.5530605912208557,9.81143856048584,7.924807548522949,-2.3651123046875,47.5921630859375,4.119873046875
11.1099999,0.790086567401886,10.182539939880371,9.751583099365234,2.2430419921875,13.61083984375,7.568359375
11.129999900000001,0.9911994934082031,10.541669845581055,11.063606262207031,8.97216796875,-28.13720703125,12.75634765625
11.149999900000001,1.0869675874710083,10.759542465209961,11.72201156616211,16.8914794921875,-68.572998046875,17.822265625
11.1699999,1.0103530883789062,10.773907661437988,11.57596492767334,20.3704833984375,-104.98046875,20.2789306640625
11.1899999,0.7541735172271729,10.625467300415039,10.666168212890625,20.0653076171875,-130.8135986328125,19.2413330078125
11.209999900000001,0.3423708379268646,10.268731117248535,9.126696586608887,23.6358642578125,-146.514892578125,23.4527587890625
11.229999900000001,-0.1604115068912506,9.797073364257812,7.060500621795654,17.4407958984375,-166.290283203125,26.1077880859375
11.2499999,-0.6607996821403503,9.21288776397705,4.532223701477051,5.950927734375,-187.0269775390625,21.2860107421875
11.2699999,-1.072602391242981,8.56645393371582,1.5705963373184204,3.23486328125,-188.7969970703125,14.1143798828125
11.2899999,-1.2832920551300049,7.94635534286499,-1.8579005002975464,11.871337890625,-174.9420166015625,6.3934326171875
11.309999900000001,-1.2306196689605713,7.587224960327148,-5.4875102043151855,6.04248046875,-147.6898193359375,-6.16455078125
11.3299999,-0.9528923034667969,7.46033239364624,-8.860940933227539,4.8675537109375,-101.9287109375,-9.2010498046875
11.3499999,-0.5578489899635315,7.515398979187012,-11.638214111328125,10.650634765625,-62.255859375,-4.8828125
11.3699999,-0.09576806426048279,7.754819393157959,-13.692439079284668,16.5863037109375,-36.0870361328125,-15.106201171875
11.389999900000001,0.2513911724090576,8.070854187011719,-15.167267799377441,-4.9591064453125,-10.4522705078125,-25.360107421875
11.4099999,0.4141969084739685,8.463502883911133,-15.928624153137207,-29.0374755859375,54.62646484375,-19.0582275390625
11.4299999,0.3256114423274994,8.769960403442383,-15.828067779541016,-14.6942138671875,129.730224609375,-6.378173828125
11.4499999,-0.06224924325942993,9.05487060546875,-15.040374755859375,-19.7906494140625,144.3634033203125,-13.1683349609375
11.469999900000001,-0.6991068720817566,9.100360870361328,-13.292608261108398,-17.2882080078125,168.64013671875,-20.1568603515625
11.4899999,-1.482010841369629,9.009381294250488,-11.046846389770508,-18.8751220703125,207.5653076171875,-16.11328125
11.5099999,-2.2673089504241943,8.947132110595703,-8.406042098999023,-33.7371826171875,222.7935791015625,-18.5699462890625
11.5299999,-2.9233202934265137,8.942343711853027,-5.056553840637207,-9.9639892578125,244.07958984375,-20.9503173828125
11.549999900000001,-3.272873640060425,9.205705642700195,-1.1300631761550903,12.176513671875,240.7684326171875,-27.0233154296875
11.569999900000001,-3.248931646347046,9.694122314453125,3.0406360626220703,-1.922607421875,191.9403076171875,-25.93994140625
11.5899999,-2.87064790725708,10.474632263183594,7.295132637023926,-2.2735595703125,167.633056640625,-21.3165283203125
11.6099999,-2.2433669567108154,11.44907283782959,11.379640579223633,28.839111328125,169.0673828125,-15.655517578125
11.629999900000001,-1.534683346748352,12.392388343811035,15.021221160888672,34.088134765625,104.3853759765625,-1.129150390625
11.649999900000001,-0.9026140570640564,13.189657211303711,17.891868591308594,-3.875732421875,-4.058837890625,14.129638671875
11.6699999,-0.49799394607543945,13.510479927062988,19.340360641479492,-17.7001953125,-89.17236328125,28.4423828125
11.6899999,-0.4141969084739685,13.256694793701172,19.055450439453125,1.708984375,-128.021240234375,39.1082763671875
11.709999900000001,-0.6607996821403503,12.552799224853516,16.972496032714844,19.6685791015625,-164.459228515625,36.895751953125
11.729999900000001,-1.1659762859344482,11.599906921386719,13.596671104431152,15.167236328125,-204.4525146484375,35.9039306640625
11.7499999,-1.764526605606079,10.63743782043457,9.50498104095459,4.94384765625,-222.5341796875,40.83251953125
11.7699999,-2.322375535964966,9.801861763000488,5.161899089813232,-4.6844482421875,-221.74072265625,42.96875
11.7899999,-2.691082715988159,9.040505409240723,0.9816226959228516,-5.5084228515625,-215.911865234375,39.276123046875
11.809999900000001,-2.7748796939849854,8.365341186523438,-2.829946517944336,-2.13623046875,-211.97509765625,30.9295654296875
11.8299999,-2.559401512145996,7.824251174926758,-6.172252178192139,-8.636474609375,-195.7550048828125,19.59228515625
11.8499999,-2.0925323963165283,7.328651428222656,-9.083600997924805,-3.9825439453125,-158.3251953125,17.8985595703125
11.8699999,-1.436521053314209,6.868964672088623,-11.745953559875488,-0.5340576171875,-130.8441162109375,13.092041015625
11.889999900000001,-0.7374141216278076,6.502651691436768,-14.336480140686035,-18.585205078125,-116.8365478515625,-5.4473876953125
11.9099999,-0.16998831927776337,6.275202751159668,-16.89348793029785,-35.491943359375,-62.4542236328125,-18.2037353515625
11.9299999,0.15322890877723694,6.414066314697266,-18.950105667114258,-22.064208984375,46.0052490234375,-22.9034423828125
11.9499999,0.1149216815829277,6.907271862030029,-19.821596145629883,3.7689208984375,141.8609619140625,-24.169921875
11.969999900000001,-1.137245774269104,8.38688850402832,-17.585411071777344,-27.4658203125,193.8934326171875,-22.308349609375
11.9899999,-2.2170307636260986,8.904036521911621,-14.709975242614746,-23.681640625,250.91552734375,-17.8985595703125
12.0099999,-3.4165258407592773,9.169792175292969,-11.231200218200684,-17.669677734375,275.177001953125,-20.263671875
12.0299999,-4.484339714050293,9.227252960205078,-6.964732646942139,1.0833740234375,282.04345703125,-26.1383056640625
12.049999900000001,-5.140350818634033,9.435548782348633,-1.968033790588379,27.28271484375,295.867919921875,-37.8875732421875
12.069999900000001,-5.284003257751465,9.998186111450195,3.5027170181274414,20.9808349609375,270.965576171875,-43.8232421875
12.0899999,-4.876988887786865,10.991780281066895,9.272743225097656,31.524658203125,232.3150634765625,-32.073974609375
12.1099999,-4.10366153717041,12.310985565185547,14.717158317565918,30.059814453125,166.7938232421875,-16.937255859375
12.129999900000001,-3.1459810733795166,13.572729110717773,19.227834701538086,8.36181640625,75.4852294921875,-0.396728515625
12.149999900000001,-2.22660756111145,14.425065040588379,22.213403701782227,-0.0457763671875,-15.8233642578125,18.85986328125
12.1699999,-1.556231141090393,14.633360862731934,23.171083450317383,7.843017578125,-93.5516357421875,34.515380859375
12.1899999,-1.2665326595306396,14.18564510345459,21.94046401977539,12.7716064453125,-157.867431640625,42.6788330078125
12.209999900000001,-1.414973258972168,13.316550254821777,18.918981552124023,14.0533447265625,-194.6868896484375,42.816162109375
12.229999900000001,-1.922544002532959,12.188880920410156,14.585476875305176,17.5628662109375,-218.1854248046875,50.0640869140625
12.2499999,-2.6024973392486572,11.073183059692383,9.600749015808105,0.67138671875,-240.0970458984375,54.99267578125
12.2699999,-3.2345664501190186,10.019734382629395,4.537012100219727,-29.8004150390625,-253.0364990234375,50.59814453125
12.289999900000002,-3.5889084339141846,8.992621421813965,-0.26096799969673157,-38.421630859375,-241.4703369140625,46.3714599609375
12.309999900000001,-3.5889084339141846,8.018181800842285,-4.54419469833374,-26.8707275390625,-218.1396484375,39.215087890625
12.3299999,-3.203441858291626,7.1251444816589355,-8.219294548034668,-3.997802734375,-194.0155029296875,26.641845703125
12.3499999,-2.5019407272338867,6.354211330413818,-11.353304862976074,11.9476318359375,-169.0826416015625,13.3209228515625
12.3699999,-1.6112977266311646,5.851428985595703,-14.173673629760742,-2.1209716796875,-144.927978515625,-0.762939453125
12.389999900000001,-0.7158663272857666,5.6670756340026855,-16.780960083007812,-25.0396728515625,-94.757080078125,-10.650634765625
12.4099999,0.011971008032560349,5.774814605712891,-19.038692474365234,-25.360107421875,-13.763427734375,-15.19775390625
12.4299999,0.38067805767059326,6.22731876373291,-20.563798904418945,-10.1776123046875,72.75390625,-25.6500244140625
12.4499999,0.2777273952960968,6.888118267059326,-20.85589027404785,-13.885498046875,142.730712890625,-30.792236328125
12.469999900000001,-0.2968810200691223,7.558494567871094,-19.773712158203125,-25.8026123046875,188.6749267578125,-23.6053466796875
12.4899999,-1.2880805730819702,8.233659744262695,-17.353174209594727,-33.0810546875,224.18212890625,-23.6968994140625
12.5099999,-2.537853717803955,8.652645111083984,-13.922283172607422,-24.0936279296875,258.453369140625,-25.177001953125
12.5299999,-3.861847400665283,8.901641845703125,-10.038887977600098,-7.6141357421875,270.172119140625,-28.8848876953125
12.549999900000001,-5.003881454467773,9.23443603515625,-5.5760955810546875,16.7694091796875,291.229248046875,-40.313720703125
12.569999900000001,-5.705382823944092,9.911994934082031,-0.3447650372982025,59.814453125,334.564208984375,-50.1556396484375
12.5899999,-5.796362400054932,11.046846389770508,5.298368453979492,51.788330078125,284.881591796875,-43.8690185546875
12.6099999,-5.329493045806885,12.39957046508789,10.781089782714844,-12.725830078125,160.7818603515625,-18.00537109375
12.629999900000001,-4.431667327880859,13.608642578125,15.547945976257324,-20.4010009765625,110.748291015625,3.326416015625
12.649999900000001,-3.3423056602478027,14.322114944458008,18.95728874206543,15.7318115234375,94.268798828125,11.41357421875
12.6699999,-2.3127987384796143,14.477737426757812,21.02348518371582,35.33935546875,23.468017578125,15.899658203125
12.6899999,-1.5322890281677246,14.202404022216797,21.69146728515625,21.54541015625,-81.6650390625,25.7110595703125
12.709999900000001,-1.1228805780410767,13.591882705688477,20.937294006347656,-2.227783203125,-149.10888671875,40.2679443359375
12.729999900000001,-1.1803414821624756,12.684480667114258,18.679561614990234,-13.5040283203125,-182.1136474609375,48.8739013671875
12.7499999,-1.7046716213226318,11.552022933959961,15.325284957885742,-14.0533447265625,-213.5467529296875,48.614501953125
12.7699999,-2.540247917175293,10.307038307189941,11.216835021972656,-11.5509033203125,-253.082275390625,43.6248779296875
12.789999900000002,-3.4189200401306152,9.289502143859863,6.732495307922363,-8.697509765625,-277.7252197265625,32.9437255859375
12.809999900000001,-4.067748546600342,8.530540466308594,2.075772762298584,-21.97265625,-264.22119140625,30.303955078125
12.8299999,-4.32871675491333,8.018181800842285,-2.4205379486083984,-41.6412353515625,-234.8175048828125,33.63037109375
12.8499999,-4.098873138427734,7.536946773529053,-6.593631267547607,-34.6527099609375,-223.6480712890625,25.238037109375
12.8699999,-3.488351821899414,6.98628044128418,-10.383652687072754,-13.9007568359375,-211.7919921875,7.293701171875
12.889999900000001,-2.6144683361053467,6.524199485778809,-13.836091995239258,-9.8724365234375,-167.7398681640625,-14.007568359375
12.9099999,-1.6136919260025024,6.270414352416992,-17.029956817626953,-17.425537109375,-97.9766845703125,-20.3704833984375
12.9299999,-0.6560112833976746,6.421248912811279,-19.668367385864258,-24.871826171875,-22.918701171875,-20.93505859375
12.9499999,0.019153613597154617,7.005434036254883,-21.353885650634766,-17.0135498046875,56.7474365234375,-28.6102294921875
12.969999900000001,0.24420857429504395,7.9176249504089355,-21.610065460205078,1.0986328125,135.894775390625,-32.318115234375
12.9899999,-0.08858546614646912,8.956708908081055,-20.41535758972168,-0.91552734375,185.882568359375,-24.0478515625
13.0099999,-0.9313444495201111,9.861717224121094,-17.956512451171875,-22.8424072265625,214.05029296875,-12.847900390625
13.0299999,-2.164358377456665,10.268731117248535,-14.798561096191406,-37.7197265625,242.1112060546875,-6.6375732421875
13.049999900000001,-3.598485231399536,10.113107681274414,-11.30302619934082,-21.8963623046875,279.0374755859375,-9.063720703125
13.069999900000001,-5.006275653839111,9.651026725769043,-6.967126846313477,42.3583984375,337.799072265625,-22.2625732421875
13.0899999,-6.023811340332031,9.375694274902344,-1.7118542194366455,86.0595703125,360.1837158203125,-41.4886474609375
13.1099999,-6.473921298980713,9.653421401977539,4.151545524597168,18.73779296875,253.875732421875,-48.64501953125
13.129999900000001,-6.268020153045654,10.589553833007812,10.429142951965332,-14.6484375,188.3087158203125,-35.3851318359375
13.149999900000001,-5.509057998657227,11.978191375732422,16.081851959228516,4.8370361328125,173.492431640625,-19.287109375
13.1699999,-4.49870491027832,13.374011039733887,20.585346221923828,14.617919921875,89.4012451171875,-1.03759765625
13.1899999,-3.5051112174987793,14.441824913024902,23.611618041992188,12.39013671875,-27.374267578125,18.6004638671875
13.209999900000001,-2.7892448902130127,14.822503089904785,24.566904067993164,1.3427734375,-117.5537109375,36.773681640625
13.229999900000001,-2.4803929328918457,14.381969451904297,23.21657371520996,-4.9591064453125,-174.072265625,50.0640869140625
13.2499999,-2.6360161304473877,13.366827964782715,19.912574768066406,-6.500244140625,-206.1767578125,46.4324951171875
13.2699999,-3.1651346683502197,11.923124313354492,15.344438552856445,0.030517578125,-233.795166015625,47.9736328125
13.289999900000002,-3.8379054069519043,10.527304649353027,10.196905136108398,1.5716552734375,-262.8021240234375,47.54638671875
13.309999900000001,-4.4508209228515625,9.44991397857666,4.972756862640381,-18.2647705078125,-280.1361083984375,38.7420654296875
13.3299999,-4.778826713562012,8.5903959274292,-0.10295066982507706,-41.3665771484375,-271.8353271484375,38.7725830078125
13.3499999,-4.659116744995117,7.888894557952881,-4.975151062011719,-31.67724609375,-253.9825439453125,38.2232666015625
13.3699999,-4.05817174911499,7.113173484802246,-9.457097053527832,-2.8076171875,-221.5118408203125,25.787353515625
13.389999900000001,-3.043030261993408,6.258443355560303,-13.438653945922852,10.5438232421875,-174.652099609375,6.011962890625
13.4099999,-1.7717092037200928,5.540182590484619,-16.905458450317383,-3.3416748046875,-126.068115234375,-13.3819580078125
13.4299999,-0.49799394607543945,5.193023681640625,-19.730615615844727,-16.4794921875,-64.6209716796875,-24.2462158203125
13.4499999,0.47644615173339844,5.456385612487793,-21.581335067749023,-8.575439453125,22.4151611328125,-31.2957763671875
13.469999900000001,0.9481038451194763,6.275202751159668,-22.00989532470703,7.9498291015625,113.46435546875,-35.2630615234375
13.4899999,-0.019153613597154617,8.808267593383789,-18.88546371459961,-25.177001953125,183.65478515625,-26.763916015625
13.5099999,-1.2832920551300049,9.816226959228516,-15.739481925964355,-25.3448486328125,232.9864501953125,-17.0745849609375
13.5299999,-2.7676970958709717,10.283096313476562,-11.949460983276367,-7.843017578125,272.3846435546875,-17.364501953125
13.549999900000001,-4.170699596405029,10.225635528564453,-7.682993412017822,-1.52587890625,276.6876220703125,-24.1546630859375
13.569999900000001,-5.257667064666748,10.02691650390625,-2.7533318996429443,-8.758544921875,271.636962890625,-33.294677734375
13.5899999,-5.770026206970215,10.02691650390625,2.999934673309326,34.027099609375,296.295166015625,-35.491943359375
13.6099999,-5.679046630859375,10.620678901672363,9.10993766784668,51.2237548828125,243.2708740234375,-35.2935791015625
13.629999900000001,-5.094861030578613,11.738770484924316,15.097835540771484,21.91162109375,128.5247802734375,-24.3988037109375
13.649999900000001,-4.206612586975098,13.096282958984375,20.16875457763672,11.199951171875,48.187255859375,-2.5482177734375
13.6699999,-3.31118106842041,14.233529090881348,23.33867835998535,4.302978515625,-22.1710205078125,18.00537109375
13.6899999,-2.669534921646118,14.652514457702637,24.037784576416016,-4.5318603515625,-108.551025390625,35.2630615234375
13.709999900000001,-2.389413356781006,14.319720268249512,22.460006713867188,-3.6163330078125,-167.8009033203125,41.4276123046875
13.729999900000001,-2.5115175247192383,13.328520774841309,18.974048614501953,9.21630859375,-195.4803466796875,42.5567626953125
13.7499999,-2.9305028915405273,12.016498565673828,14.137761116027832,11.3067626953125,-227.1270751953125,46.234130859375
13.7699999,-3.469198226928711,10.74996566772461,8.78432559967041,1.8463134765625,-249.1607666015625,44.677734375
13.789999900000002,-3.93367338180542,9.639056205749512,3.3901896476745605,-7.080078125,-249.664306640625,43.0908203125
13.809999900000001,-4.098873138427734,8.698134422302246,-1.7501614093780518,-15.31982421875,-239.105224609375,40.3289794921875
13.8299999,-3.821146011352539,7.836222171783447,-6.378153324127197,-7.110595703125,-213.3636474609375,34.210205078125
13.8499999,-3.1028854846954346,7.0126166343688965,-10.29746150970459,-1.312255859375,-167.327880859375,22.552490234375
13.8699999,-2.03507137298584,6.236895561218262,-13.445837020874023,-10.7421875,-126.77001953125,7.080078125
13.889999900000001,-0.7852981686592102,5.631162166595459,-15.904682159423828,-14.068603515625,-95.03173828125,-7.8887939453125
13.9099999,0.38307225704193115,5.406107425689697,-17.877504348754883,-14.70947265625,-55.6640625,-22.52197265625
13.9299999,1.2497732639312744,5.65031623840332,-19.227834701538086,-9.6588134765625,23.01025390625,-29.8309326171875
13.9499999,1.6304513216018677,6.387730121612549,-19.713857650756836,-5.859375,107.2998046875,-31.4178466796875
13.969999900000001,1.3982137441635132,7.4770917892456055,-19.309236526489258,-19.95849609375,146.4996337890625,-30.059814453125
13.9899999,0.5434837937355042,8.540117263793945,-17.908628463745117,-37.78076171875,176.666259765625,-22.8424072265625
14.0099999,-0.7972691655158997,9.318233489990234,-15.777789115905762,-35.614013671875,225.616455078125,-17.51708984375
14.0299999,-2.4444799423217773,9.710882186889648,-13.014880180358887,-28.0303955078125,267.15087890625,-20.0042724609375
14.049999900000001,-4.101267337799072,9.646238327026367,-9.255983352661133,-2.4261474609375,299.2706298828125,-18.951416015625
14.069999900000001,-5.477933406829834,9.478644371032715,-5.04218864440918,-25.5584716796875,274.261474609375,-25.3753662109375
14.0899999,-6.445190906524658,9.495404243469238,0.019153613597154617,-56.121826171875,250.30517578125,-30.3192138671875
14.1099999,-6.801927089691162,9.945513725280762,6.052541732788086,38.238525390625,318.084716796875,-28.350830078125
14.129999900000001,-6.629544734954834,11.171344757080078,12.536040306091309,72.08251953125,259.0789794921875,-31.2347412109375
14.149999900000001,-6.0405707359313965,12.765883445739746,18.938135147094727,11.9781494140625,90.6219482421875,-10.0250244140625
14.1699999,-5.214571475982666,14.171279907226562,23.989900588989258,-25.604248046875,-26.2451171875,27.130126953125
14.1899999,-4.4077253341674805,14.889540672302246,26.403255462646484,-26.55029296875,-87.5244140625,39.7796630859375
14.209999900000001,-3.825934410095215,14.360422134399414,25.500642776489258,-9.6282958984375,-161.163330078125,44.4183349609375
14.229999900000001,-3.552995204925537,12.962207794189453,22.215797424316406,15.228271484375,-201.1566162109375,43.39599609375
14.2499999,-3.5936968326568604,11.128249168395996,17.24543571472168,23.406982421875,-221.25244140625,38.116455078125
14.2699999,-3.818751811981201,9.44752025604248,11.561599731445312,16.78466796875,-252.4871826171875,31.67724609375
14.289999900000002,-4.082113742828369,8.31985092163086,6.00226354598999,12.847900390625,-266.754150390625,26.0162353515625
14.309999900000001,-4.225766181945801,7.6997528076171875,0.8930372595787048,14.190673828125,-263.6871337890625,29.3121337890625
14.3299999,-4.065354347229004,7.398083209991455,-3.689464807510376,14.7247314453125,-251.373291015625,33.99658203125
14.3499999,-3.5482068061828613,7.204153060913086,-7.694964408874512,2.471923828125,-226.8218994140625,23.681640625
14.3699999,-2.7030537128448486,6.912060260772705,-11.195286750793457,-5.1727294921875,-185.11962890625,11.474609375
14.389999900000001,-1.6328455209732056,6.584054470062256,-14.355633735656738,-2.716064453125,-146.1181640625,1.3275146484375
14.4099999,-0.5315127968788147,6.361393928527832,-17.353174209594727,-12.359619140625,-102.752685546875,-10.43701171875
14.4299999,0.35673606395721436,6.289567947387695,-20.087352752685547,-33.02001953125,-31.036376953125,-19.4854736328125
14.4499999,0.8092401623725891,6.332663536071777,-22.088905334472656,-24.5513916015625,72.845458984375,-22.5677490234375
14.469999900000001,0.6823474764823914,6.672640323638916,-22.637176513671875,1.220703125,167.6483154296875,-33.905029296875
14.4899999,-0.07900865375995636,7.311892032623291,-21.55499839782715,-10.1318359375,205.0018310546875,-47.05810546875
14.5099999,-1.3886369466781616,8.125920295715332,-18.880674362182617,-41.107177734375,228.21044921875,-34.8052978515625
14.5299999,-2.9975404739379883,9.023746490478516,-14.891934394836426,-39.1845703125,279.205322265625,-24.383544921875
14.549999900000001,-4.587290287017822,9.897629737854004,-9.68694019317627,22.1710205078125,327.3468017578125,-29.9072265625
14.569999900000001,-5.7987565994262695,10.718840599060059,-3.5721490383148193,56.1676025390625,318.359375,-41.7327880859375
14.5899999,-6.435614109039307,11.420342445373535,2.7676970958709717,-6.072998046875,228.08837890625,-28.900146484375
14.6099999,-6.469132900238037,12.263101577758789,9.136273384094238,-5.31005859375,203.125,-18.9056396484375
14.629999900000001,-5.992686748504639,13.105859756469727,14.791378021240234,41.1834716796875,206.0699462890625,-13.97705078125
14.649999900000001,-5.245696067810059,13.764266014099121,19.469648361206055,21.7742919921875,103.546142578125,5.2490234375
14.6699999,-4.4292731285095215,14.104242324829102,22.850261688232422,-11.3983154296875,-29.11376953125,27.2674560546875
14.6899999,-3.73016619682312,13.97016716003418,24.265233993530273,-21.1181640625,-108.734130859375,31.3262939453125
14.709999900000001,-3.3255462646484375,13.182474136352539,23.168689727783203,-11.1083984375,-165.5426025390625,37.078857421875
14.729999900000001,-3.2776620388031006,12.121843338012695,19.922151565551758,8.6822509765625,-205.322265625,36.2091064453125
14.7499999,-3.5410242080688477,11.025299072265625,15.227123260498047,14.862060546875,-228.485107421875,34.5001220703125
14.7699999,-3.9384617805480957,10.113107681274414,9.84256362915039,-1.28173828125,-249.8016357421875,36.9110107421875
14.789999900000002,-4.264073371887207,9.528923034667969,4.4532151222229,-21.6217041015625,-264.9383544921875,34.515380859375
14.809999900000001,-4.364629745483398,9.097966194152832,-0.6392518281936646,-27.3895263671875,-266.815185546875,32.318115234375
14.8299999,-4.094084739685059,8.640673637390137,-5.365406036376953,2.4566650390625,-248.2147216796875,33.4014892578125
14.8499999,-3.4141316413879395,8.125920295715332,-9.655815124511719,23.651123046875,-205.3985595703125,25.390625
14.8699999,-2.382230758666992,7.501033782958984,-13.493721008300781,3.265380859375,-157.2113037109375,12.9547119140625
14.889999900000001,-1.158793568611145,6.873753070831299,-16.77138328552246,-20.6451416015625,-104.0802001953125,6.6680908203125
14.9099999,0.021547814831137657,6.40927791595459,-19.294872283935547,-12.87841796875,-36.4990234375,-2.960205078125
14.9299999,0.9050082564353943,6.282385349273682,-20.745758056640625,1.8463134765625,42.1142578125,-17.9290771484375
14.9499999,1.3000515699386597,6.512228488922119,-20.91335105895996,-2.4566650390625,112.396240234375,-24.383544921875
14.969999900000001,1.1013327836990356,7.026981830596924,-19.776105880737305,-21.42333984375,156.2957763671875,-20.5535888671875
14.9899999,0.3208230137825012,7.6351094245910645,-17.56386375427246,-30.4107666015625,189.3463134765625,-20.263671875
15.0099999,-0.933738648891449,8.133103370666504,-14.405911445617676,-19.7296142578125,230.7891845703125,-24.2919921875
15.0299999,-3.7277719974517822,8.650250434875488,-6.210559368133545,-8.514404296875,249.176025390625,-36.2701416015625
15.049999900000001,-4.73573112487793,9.038111686706543,-1.4077905416488647,-14.83154296875,238.006591796875,-40.771484375
15.069999900000001,-5.200206279754639,9.799467086791992,4.010287761688232,40.2069091796875,275.87890625,-42.4652099609375
15.0899999,-5.128379821777344,10.967838287353516,9.47146224975586,40.6951904296875,210.174560546875,-34.210205078125
15.1099999,-4.651933670043945,12.358869552612305,14.604630470275879,-4.180908203125,84.7930908203125,-15.472412109375
15.129999900000001,-3.912125587463379,13.651738166809082,18.83518409729004,-6.927490234375,28.2135009765625,1.800537109375
15.149999900000001,-3.1699230670928955,14.429853439331055,21.246145248413086,3.5858154296875,-23.7884521484375,19.3634033203125
15.1699999,-2.6360161304473877,14.453795433044434,21.535844802856445,5.3863525390625,-105.7891845703125,33.1878662109375
15.1899999,-2.3942017555236816,13.800178527832031,20.029891967773438,7.3699951171875,-159.1644287109375,38.9862060546875
15.209999900000001,-2.4636335372924805,12.643778800964355,16.807296752929688,4.1046142578125,-189.8040771484375,37.7044677734375
15.229999900000001,-2.7461493015289307,11.317391395568848,12.430695533752441,4.5166015625,-219.2535400390625,38.726806640625
15.2499999,-3.0765492916107178,10.146626472473145,7.508216381072998,11.3677978515625,-232.8643798828125,37.017822265625
15.2699999,-3.28963303565979,9.265560150146484,2.4420857429504395,-0.7171630859375,-234.6343994140625,34.5306396484375
15.289999900000002,-3.222595453262329,8.580819129943848,-2.343923568725586,-17.88330078125,-216.1407470703125,35.247802734375
15.309999900000001,-2.7964274883270264,7.915230751037598,-6.789956092834473,-22.0947265625,-192.5506591796875,34.5458984375
15.3299999,-2.0398597717285156,7.225700855255127,-10.759542465209961,-18.310546875,-162.59765625,17.3492431640625
15.3499999,-1.0965443849563599,6.584054470062256,-14.109030723571777,-10.284423828125,-106.8267822265625,-4.82177734375
15.3699999,-0.1173158809542656,6.1985883712768555,-16.71870994567871,-6.4697265625,-39.12353515625,-16.7694091796875
15.389999900000001,0.6727706789970398,6.279991149902344,-18.420988082885742,-18.524169921875,15.4876708984375,-20.93505859375
15.4099999,1.1348515748977661,6.797138690948486,-18.940528869628906,-25.3753662109375,74.615478515625,-23.6358642578125
15.4299999,1.158793568611145,7.524975776672363,-18.183961868286133,-17.059326171875,135.2996826171875,-21.17919921875
15.4499999,0.7182605266571045,8.312667846679688,-16.134525299072266,-18.4173583984375,175.0030517578125,-22.216796875
15.469999900000001,-0.07661445438861847,8.9064302444458,-12.787431716918945,-18.646240234375,198.2269287109375,-21.820068359375
15.4899999,-1.0127472877502441,9.41400146484375,-8.595184326171875,-16.9677734375,203.61328125,-26.031494140625
15.5099999,-1.8938134908676147,9.890447616577148,-3.794809579849243,-8.4228515625,201.202392578125,-27.34375
15.5299999,-2.5043349266052246,10.496180534362793,1.4293384552001953,25.5889892578125,212.0208740234375,-23.6053466796875
15.549999900000001,-2.7724854946136475,11.262324333190918,6.550535678863525,28.25927734375,169.647216796875,-17.486572265625
15.569999900000001,-2.7078421115875244,11.954249382019043,10.860098838806152,-7.2174072265625,73.8372802734375,-4.2266845703125
15.5899999,-2.408566951751709,12.401965141296387,14.010868072509766,-20.3704833984375,24.2462158203125,7.171630859375
15.6099999,-1.9512743949890137,12.39957046508789,15.559916496276855,1.8157958984375,7.1868896484375,12.481689453125
15.629999900000001,-1.4724340438842773,11.925518989562988,15.42823600769043,6.988525390625,-47.1954345703125,15.3656005859375
15.649999900000001,-1.0342950820922852,11.140220642089844,14.121001243591309,12.3748779296875,-92.4072265625,15.3350830078125
15.6699999,-0.689530074596405,10.201693534851074,11.602301597595215,7.87353515625,-120.9259033203125,13.8092041015625
15.6899999,-0.45489832758903503,9.361329078674316,8.042123794555664,-10.406494140625,-139.6484375,6.8817138671875
15.709999900000001,-0.29209262132644653,8.738836288452148,3.804386615753174,-10.9100341796875,-135.284423828125,2.593994140625
15.729999900000001,-0.1364694982767105,8.461109161376953,-0.507570743560791,8.1939697265625,-104.644775390625,1.9989013671875
15.7499999,0.06703764945268631,8.47547435760498,-4.036623954772949,18.9361572265625,-60.6842041015625,1.6937255859375
15.7699999,0.33997663855552673,8.65743350982666,-6.299144744873047,8.087158203125,-43.7774658203125,2.0904541015625
15.789999900000002,0.6560112833976746,8.904036521911621,-7.168240070343018,-0.0152587890625,-46.2799072265625,-1.15966796875
15.809999900000001,0.9361328482627869,9.124302864074707,-6.909666061401367,5.4473876953125,-34.72900390625,-4.5318603515625
15.8299999,1.1204863786697388,9.241618156433105,-6.1315507888793945,5.9967041015625,-19.4854736328125,-3.60107421875
15.8499999,1.1683704853057861,9.342175483703613,-5.097255229949951,5.1727294921875,-5.4931640625,-7.01904296875
15.869999900000002,1.091755986213684,9.409213066101074,-4.041412353515625,2.044677734375,-0.1373291015625,-9.33837890625
15.889999900000001,0.9600749015808105,9.552865028381348,-2.9927520751953125,1.9683837890625,3.448486328125,-9.6893310546875
15.9099999,0.8212111592292786,9.758766174316406,-2.0374655723571777,0.2899169921875,6.317138671875,-7.32421875
15.9299999,0.7134721279144287,9.971850395202637,-1.2473790645599365,0.8392333984375,6.256103515625,-3.0670166015625
15.9499999,0.629675030708313,10.160991668701172,-0.6105214357376099,0.54931640625,6.04248046875,-3.3721923828125
15.969999900000001,0.5626373887062073,10.235212326049805,-0.17238251864910126,-0.2288818359375,5.2490234375,-2.6092529296875
15.9899999,0.5171475410461426,10.251971244812012,0.12928688526153564,0.5035400390625,4.2877197265625,-2.7618408203125
16.0099999,0.5027823448181152,10.223240852355957,0.31603461503982544,2.44140625,2.593994140625,-2.1209716796875
16.0299999,0.5099649429321289,10.192116737365723,0.40222588181495667,1.6632080078125,-1.52587890625,-0.4730224609375
16.0499999,0.5291185975074768,10.11789608001709,0.3878606855869293,1.4801025390625,-4.4708251953125,2.0751953125
16.0699999,0.5506663918495178,10.050858497619629,0.22026655077934265,-0.762939453125,-5.9661865234375,1.5716552734375
16.089999900000002,0.5746083855628967,9.93593692779541,-0.021547814831137657,-0.2899169921875,-3.7689208984375,0.9613037109375
16.109999900000002,0.5961562395095825,9.854534149169922,-0.272938996553421,2.44140625,-0.701904296875,0.48828125
16.1299999,0.6224924325942993,9.780313491821289,-0.4812345504760742,0.5035400390625,-3.3111572265625,0.9002685546875
16.1499999,0.646434485912323,9.718064308166504,-0.586579442024231,-0.67138671875,-4.3792724609375,1.4495849609375
16.1699999,0.6655880808830261,9.653421401977539,-0.6655880808830261,-1.3275146484375,-4.119873046875,0.4425048828125
16.1899999,0.6799532771110535,9.545681953430176,-0.7852981686592102,-2.410888671875,-3.5858154296875,-0.4119873046875
16.2099999,0.6943184733390808,9.452308654785156,-0.8643068075180054,-1.6937255859375,1.708984375,-2.685546875
16.2299999,0.7015010714530945,9.334992408752441,-0.9528923034667969,-1.40380859375,2.74658203125,-3.3111572265625
16.249999900000002,0.7015010714530945,9.227252960205078,-1.048660397529602,-5.462646484375,0.091552734375,-4.6844482421875
16.269999900000002,0.6991068720817566,9.129091262817383,-1.1875240802764893,-10.43701171875,1.983642578125,-8.0413818359375
16.2899999,0.667982280254364,9.026140213012695,-1.4628572463989258,-11.1541748046875,7.6904296875,-10.528564453125
16.3099999,0.6105214357376099,9.006986618041992,-1.8986018896102905,-12.1612548828125,11.5966796875,-13.641357421875
16.3299999,0.545877993106842,9.095572471618652,-2.631227731704712,-19.4854736328125,13.18359375,-16.7388916015625
16.3499999,0.47884035110473633,9.428366661071777,-3.600879430770874,-27.2979736328125,25.8026123046875,-18.0816650390625
16.3699999,0.40462008118629456,10.079588890075684,-4.4723687171936035,-22.9644775390625,58.77685546875,-16.204833984375
16.3899999,0.28730419278144836,10.958261489868164,-4.927267074584961,-6.683349609375,81.390380859375,-5.1727294921875
16.4099999,0.15322890877723694,12.057199478149414,-4.81473970413208,2.0599365234375,78.369140625,2.3651123046875
16.429999900000002,-0.002394201699644327,13.220781326293945,-4.0294413566589355,-9.3231201171875,79.9560546875,9.9334716796875
16.4499999,-0.12689268589019775,14.07311725616455,-3.0789434909820557,-24.7802734375,85.418701171875,33.599853515625
16.4699999,-0.21547815203666687,14.676456451416016,-1.9488801956176758,-24.322509765625,92.8497314453125,47.79052734375
16.4899999,-0.26096799969673157,14.769830703735352,-0.6392518281936646,12.8936767578125,103.363037109375,56.488037109375
16.5099999,-0.2849099934101105,14.65011978149414,0.7709329724311829,22.674560546875,89.66064453125,61.1114501953125
16.5299999,-0.2777273952960968,14.300566673278809,2.3487119674682617,4.4708251953125,74.6307373046875,74.52392578125
16.5499999,-0.15322890877723694,13.345280647277832,5.245696067810059,-3.0975341796875,44.6319580078125,95.0469970703125
16.5699999,-0.016759412363171577,12.562376022338867,6.234501361846924,14.373779296875,19.256591796875,105.3924560546875
16.589999900000002,0.15322890877723694,11.683704376220703,6.830657482147217,12.9241943359375,2.960205078125,109.7869873046875
16.609999900000002,0.3471592366695404,10.76193618774414,6.912060260772705,-6.53076171875,-16.05224609375,106.048583984375
16.6299999,0.5410895943641663,9.856928825378418,6.550535678863525,-15.07568359375,-35.2935791015625,105.9112548828125
16.6499999,0.7086837291717529,9.105149269104004,6.069301128387451,-6.04248046875,-44.0826416015625,109.7564697265625
16.6699999,0.8834604024887085,8.425195693969727,5.394136428833008,4.3792724609375,-60.48583984375,109.130859375
16.6899999,1.0869675874710083,7.704541206359863,4.69024133682251,-5.0201416015625,-79.0252685546875,104.8583984375
16.7099999,1.335964560508728,6.890512466430664,4.067748546600342,-13.5498046875,-81.7413330078125,94.8486328125
16.7299999,1.6208745241165161,5.8873419761657715,3.383007049560547,-22.3388671875,-93.994140625,85.5560302734375
16.749999900000002,1.9321208000183105,4.829104900360107,2.741360902786255,-32.5775146484375,-106.50634765625,68.4661865234375
16.769999900000002,2.2697031497955322,3.713406801223755,1.987187385559082,-31.79931640625,-113.616943359375,49.2095947265625
16.7899999,2.628833532333374,2.7030537128448486,1.1468225717544556,-18.524169921875,-107.60498046875,27.923583984375
16.8099999,2.9975404739379883,1.8579005002975464,0.31842881441116333,-14.251708984375,-96.74072265625,6.34765625
16.8299999,3.339911460876465,1.292868971824646,-0.33518823981285095,-31.8145751953125,-97.320556640625,-16.5557861328125
16.8499999,3.5960910320281982,1.0319008827209473,-0.7972691655158997,-49.896240234375,-108.5205078125,-36.4990234375
16.8699999,3.6990416049957275,1.091755986213684,-1.3718775510787964,-48.583984375,-121.3226318359375,-56.33544921875
16.8899999,3.6320040225982666,1.5442601442337036,-2.2170307636260986,-28.4271240234375,-110.2294921875,-77.4078369140625
16.9099999,3.4093432426452637,2.2864625453948975,-3.292027235031128,-21.942138671875,-81.3446044921875,-94.8333740234375
16.929999900000002,3.0861260890960693,3.2609026432037354,-4.402936935424805,-27.9083251953125,-65.8416748046875,-103.118896484375
16.9499999,2.7102363109588623,4.256890773773193,-5.451597213745117,-35.33935546875,-67.2454833984375,-113.739013671875
16.9699999,2.3056161403656006,5.394136428833008,-6.375759124755859,-31.951904296875,-57.525634765625,-129.058837890625
16.9899999,1.8555063009262085,6.665457725524902,-6.878541469573975,-17.6544189453125,-11.1846923828125,-138.00048828125
17.0099999,1.3766659498214722,8.185775756835938,-7.156269073486328,-16.387939453125,8.6517333984375,-128.7841796875
17.0299999,0.9169792532920837,9.971850395202637,-6.888118267059326,-21.8505859375,9.3994140625,-123.3978271484375
17.0499999,0.5267243981361389,11.535264015197754,-6.3949127197265625,-12.6495361328125,22.247314453125,-105.0262451171875
17.0699999,0.272938996553421,12.911930084228516,-5.983109951019287,-14.58740234375,35.9649658203125,-97.9461669921875
17.089999900000002,0.12449848651885986,13.5870943069458,-5.51624059677124,-23.895263671875,62.7288818359375,-83.80126953125
17.109999900000002,0.011971008032560349,13.816938400268555,-4.853046894073486,-20.782470703125,79.9713134765625,-73.5321044921875
17.1299999,-0.09816227108240128,13.819332122802734,-3.914519786834717,-11.3525390625,73.150634765625,-75.6072998046875
17.1499999,-0.2298433631658554,13.555970191955566,-2.9041666984558105,-26.458740234375,62.7288818359375,-60.089111328125
17.1699999,-0.33997663855552673,13.357251167297363,-2.073378562927246,-46.9970703125,67.5201416015625,-43.5791015625
17.1899999,-0.40462008118629456,13.251906394958496,-1.259350061416626,-20.294189453125,91.3848876953125,-37.5823974609375
17.2099999,-0.3998316824436188,13.026851654052734,-0.5578489899635315,4.364013671875,88.0584716796875,-22.003173828125
17.2299999,-0.3687070608139038,12.789825439453125,-0.035913024097681046,-18.49365234375,57.464599609375,-14.0838623046875
17.249999900000002,-0.33279404044151306,12.385205268859863,0.14844051003456116,-31.3568115234375,58.77685546875,-11.5814208984375
17.269999900000002,-0.3663128614425659,12.018892288208008,-0.18914192914962769,-24.2156982421875,82.275390625,-13.97705078125
17.2899999,-0.524330198764801,11.841721534729004,-0.5889736413955688,-9.307861328125,101.0894775390625,-10.68115234375
17.3099999,-0.7469909191131592,12.105083465576172,-0.5626373887062073,7.4005126953125,102.9510498046875,-0.762939453125
17.3299999,-1.0271124839782715,12.701239585876465,-0.28730419278144836,-10.040283203125,76.11083984375,15.6402587890625
17.3499999,-1.259350061416626,13.479355812072754,0.23702596127986908,-24.322509765625,74.5086669921875,32.958984375
17.3699999,-1.4269442558288574,14.111424446105957,0.7182605266571045,-3.5552978515625,93.8873291015625,46.722412109375
17.3899999,-1.5203180313110352,14.504074096679688,1.237802267074585,23.6358642578125,95.7794189453125,58.7158203125
17.409999900000003,-1.5538369417190552,14.681244850158691,1.8794482946395874,27.7252197265625,76.9195556640625,66.6656494140625
17.429999900000002,-1.5059528350830078,14.690821647644043,2.674323320388794,22.705078125,63.8275146484375,78.9642333984375
17.4499999,-1.3862427473068237,14.532804489135742,3.428496837615967,24.47509765625,61.2335205078125,97.8851318359375
17.4699999,-1.1994950771331787,14.18564510345459,4.072536945343018,22.552490234375,48.919677734375,110.198974609375
17.4899999,-0.9672574996948242,13.555970191955566,4.584896087646484,13.00048828125,29.6173095703125,116.6839599609375
17.5099999,-0.7206547260284424,12.770671844482422,4.970362663269043,0.0762939453125,11.0015869140625,119.8577880859375
17.5299999,-0.45010992884635925,11.803414344787598,4.9583916664123535,-7.354736328125,-6.65283203125,125.9918212890625
17.5499999,-0.14604631066322327,10.76193618774414,4.685452938079834,-7.4920654296875,-15.6707763671875,130.06591796875
17.5699999,0.19632454216480255,9.674968719482422,4.288015365600586,-6.6070556640625,-17.6239013671875,125.4425048828125
17.589999900000002,0.5961562395095825,8.520963668823242,3.9217023849487305,-10.589599609375,-31.982421875,119.20166015625
17.609999900000002,1.015141487121582,7.362170219421387,3.7181951999664307,-21.05712890625,-52.3681640625,113.2965087890625
17.6299999,1.4269442558288574,6.265625953674316,3.646369218826294,-24.59716796875,-65.3533935546875,101.531982421875
17.6499999,1.8100165128707886,5.236119270324707,3.5266590118408203,-21.820068359375,-76.9500732421875,87.738037109375
17.6699999,2.1595699787139893,4.321534156799316,3.3063924312591553,-20.7672119140625,-87.1124267578125,73.577880859375
17.6899999,2.477998733520508,3.5410242080688477,2.849100112915039,-25.1312255859375,-98.7396240234375,57.8460693359375
17.7099999,2.784456491470337,2.9065608978271484,2.2673089504241943,-25.2838134765625,-100.616455078125,40.0848388671875
17.7299999,3.0861260890960693,2.3774423599243164,1.5083470344543457,-16.2200927734375,-99.6856689453125,21.66748046875
17.749999900000002,3.35667085647583,1.9536685943603516,0.7326257228851318,-14.556884765625,-100.9979248046875,1.2359619140625
17.769999900000002,3.5410242080688477,1.7118542194366455,-0.08379705995321274,-33.782958984375,-104.3243408203125,-22.491455078125
17.7899999,3.622427225112915,1.6974890232086182,-0.8954314589500427,-59.0362548828125,-104.5684814453125,-43.243408203125
17.8099999,3.5745432376861572,1.7094600200653076,-1.7357962131500244,-62.896728515625,-96.6949462890625,-52.490234375
17.8299999,3.399766445159912,1.7573440074920654,-2.7246015071868896,-51.116943359375,-91.5679931640625,-73.7457275390625
17.8499999,3.112462282180786,1.9153614044189453,-3.801992416381836,-46.173095703125,-73.455810546875,-111.2823486328125
17.8699999,2.698265314102173,2.4133553504943848,-4.788403511047363,-37.1856689453125,-45.7305908203125,-138.5498046875
17.8899999,2.250549554824829,3.4596214294433594,-5.2265424728393555,-16.387939453125,-19.744873046875,-141.021728515625
17.909999900000003,1.7357962131500244,4.862623691558838,-5.6910176277160645,-42.6025390625,-47.1343994140625,-133.880615234375
17.929999900000002,1.2186486721038818,6.7492547035217285,-5.681440830230713,-46.20361328125,-31.5399169921875,-149.139404296875
17.9499999,0.7541735172271729,8.743624687194824,-5.937620162963867,-6.65283203125,4.119873046875,-154.84619140625
17.9699999,0.33758243918418884,10.812214851379395,-6.0405707359313965,20.5078125,29.6173095703125,-131.16455078125
17.9899999,0.10295066982507706,12.96460247039795,-5.959167957305908,-5.7220458984375,35.8123779296875,-111.2518310546875
18.0099999,0.05985504388809204,14.657302856445312,-5.485116004943848,-48.8128662109375,32.073974609375,-86.883544921875
18.0299999,0.19393034279346466,15.583858489990234,-4.527435302734375,-32.2723388671875,58.28857421875,-61.126708984375
18.0499999,0.3208230137825012,15.720328330993652,-3.691859006881714,-22.735595703125,52.9632568359375,-53.2989501953125
18.0699999,0.3687070608139038,15.397110939025879,-3.098097085952759,-33.2489013671875,50.0335693359375,-60.05859375
18.089999900000002,-0.019153613597154617,13.965378761291504,-2.5905263423919678,-28.472900390625,104.7515869140625,-21.8353271484375
18.109999900000002,-0.3064578175544739,13.237541198730469,-2.449268341064453,-41.6412353515625,92.803955078125,-20.6451416015625
18.1299999,-0.5650315880775452,12.461819648742676,-2.0470423698425293,-40.863037109375,91.2017822265625,-17.8680419921875
18.1499999,-0.7709329724311829,11.994950294494629,-1.2976573705673218,-10.7879638671875,110.565185546875,-15.31982421875
18.1699999,-0.9169792532920837,11.827356338500977,-0.3998316824436188,17.5323486328125,113.8916015625,-4.974365234375
18.1899999,-1.0103530883789062,12.033257484436035,0.4141969084739685,-1.1138916015625,83.404541015625,6.4849853515625
18.2099999,-1.070208191871643,12.339715957641602,1.0342950820922852,-26.5655517578125,81.3446044921875,16.1590576171875
18.2299999,-1.1444283723831177,12.677297592163086,1.3311761617660522,-12.1612548828125,100.7537841796875,22.064208984375
18.249999900000002,-1.235408067703247,13.002909660339355,1.4700398445129395,22.64404296875,106.99462890625,25.726318359375
18.269999900000002,-1.3646949529647827,13.397953033447266,1.7908629179000854,22.0794677734375,94.4061279296875,36.7584228515625
18.2899999,-1.482010841369629,13.91270637512207,2.3032219409942627,7.2784423828125,81.573486328125,50.4913330078125
18.3099999,-1.558625340461731,14.386757850646973,2.9759926795959473,11.3372802734375,78.9031982421875,68.206787109375
18.3299999,-1.5705963373184204,14.748282432556152,3.691859006881714,23.6358642578125,75.775146484375,83.43505859375
18.3499999,-1.5131354331970215,14.805743217468262,4.355052947998047,15.9912109375,53.2073974609375,96.5118408203125
18.3699999,-1.3862427473068237,14.463372230529785,4.934449672698975,0.67138671875,34.820556640625,110.687255859375
18.3899999,-1.192312479019165,13.773842811584473,5.279214859008789,0.5950927734375,24.6124267578125,116.8365478515625
18.409999900000003,-0.950498104095459,12.746729850769043,5.396530628204346,8.6517333984375,14.5721435546875,121.4752197265625
18.429999900000002,-0.667982280254364,11.525687217712402,5.420472621917725,11.871337890625,1.5869140625,124.69482421875
18.4499999,-0.35913026332855225,10.285490036010742,5.497087001800537,-1.434326171875,-14.862060546875,122.6959228515625
18.4699999,-0.0454898327589035,9.035717010498047,5.547365188598633,-12.908935546875,-38.055419921875,119.8577880859375
18.4899999,0.2825157940387726,7.891288757324219,5.473145008087158,-13.458251953125,-59.26513671875,113.3880615234375
18.5099999,0.6129156351089478,6.777985095977783,5.207388877868652,-8.0108642578125,-68.7255859375,105.89599609375
18.5299999,0.9385270476341248,5.796362400054932,4.728548526763916,-9.857177734375,-76.66015625,93.56689453125
18.5499999,1.259350061416626,4.8937482833862305,4.122815132141113,-21.17919921875,-88.5772705078125,78.765869140625
18.5699999,1.5705963373184204,4.20421838760376,3.622427225112915,-26.8096923828125,-97.47314453125,63.262939453125
18.589999900000002,1.8531121015548706,3.6583402156829834,2.983175277709961,-26.06201171875,-113.922119140625,48.33984375
18.609999900000002,2.1380221843719482,3.315969467163086,2.2840683460235596,-13.763427734375,-118.9422607421875,30.33447265625
18.6299999,2.4013843536376953,3.0837318897247314,1.4413094520568848,-8.4991455078125,-111.7095947265625,13.153076171875
18.6499999,2.6192567348480225,2.896984100341797,0.5386953949928284,-24.35302734375,-108.9935302734375,-1.7547607421875
18.6699999,2.7748796939849854,2.8993782997131348,-0.3208230137825012,-49.713134765625,-115.936279296875,-23.651123046875
18.6899999,2.82515811920166,2.913743495941162,-1.048660397529602,-50.6744384765625,-115.1275634765625,-38.909912109375
18.7099999,2.7964274883270264,3.093308687210083,-1.886630892753601,-23.8494873046875,-113.8916015625,-54.0618896484375
18.7299999,2.7293899059295654,3.5410242080688477,-2.7317841053009033,-12.8326416015625,-102.6458740234375,-76.5838623046875
18.749999900000002,2.6408045291900635,3.9911341667175293,-3.464409828186035,-34.60693359375,-81.787109375,-81.2225341796875
18.769999900000002,2.499546527862549,4.675876140594482,-4.101267337799072,-56.5338134765625,-81.0546875,-89.5233154296875
18.7899999,2.3343467712402344,5.327098846435547,-4.9152960777282715,-28.8543701171875,-90.8050537109375,-105.0872802734375
18.8099999,2.1284453868865967,6.035782337188721,-5.894524574279785,-4.5623779296875,-66.4825439453125,-113.525390625
18.8299999,1.8842366933822632,6.871358871459961,-6.8378400802612305,-26.519775390625,-10.0555419921875,-120.1324462890625
18.8499999,1.5969325304031372,7.924807548522949,-7.407660007476807,-33.8897705078125,11.688232421875,-117.6605224609375
18.8699999,1.3096283674240112,9.224859237670898,-7.201758861541748,-1.77001953125,9.246826171875,-115.1580810546875
18.8899999,1.0271124839782715,10.647014617919922,-6.251260757446289,14.09912109375,16.66259765625,-105.7586669921875
18.909999900000003,0.8068459630012512,11.772290229797363,-5.286397457122803,-12.847900390625,17.76123046875,-88.134765625
18.929999900000002,0.6751648783683777,12.658143997192383,-4.285621166229248,-42.17529296875,31.158447265625,-83.9385986328125
18.9499999,0.5626373887062073,13.014880180358887,-3.552995204925537,-20.9808349609375,44.00634765625,-78.67431640625
18.9699999,0.4189853072166443,13.146561622619629,-2.8778305053710938,-1.0986328125,48.1414794921875,-70.4803466796875
18.9899999,0.22744916379451752,13.074735641479492,-2.406172752380371,-19.6990966796875,45.6085205078125,-63.018798828125
19.0099999,0.004788403399288654,13.036428451538086,-2.0638017654418945,-46.0968017578125,49.4537353515625,-55.7098388671875
19.0299999,-0.24420857429504395,12.971784591674805,-1.900996208190918,-31.5399169921875,61.9049072265625,-46.44775390625
19.0499999,-0.4884171485900879,13.00051498413086,-1.9632453918457031,-22.735595703125,63.323974609375,-34.2559814453125
19.0699999,-0.7326257228851318,13.014880180358887,-2.099714994430542,-35.9344482421875,68.8934326171875,-23.37646484375
19.089999900000002,-0.9361328482627869,13.043610572814941,-2.296039342880249,-41.473388671875,82.45849609375,-14.6026611328125
19.109999900000002,-1.070208191871643,13.026851654052734,-1.9991583824157715,-18.61572265625,109.8175048828125,-8.1634521484375
19.1299999,-1.1204863786697388,12.868834495544434,-1.4101848602294922,-13.4429931640625,101.959228515625,3.7994384765625
19.1499999,-1.1085153818130493,12.641385078430176,-0.6631938815116882,-26.5350341796875,72.540283203125,7.598876953125
19.1699999,-1.0797849893569946,12.413935661315918,-0.021547814831137657,-23.1170654296875,80.718994140625,7.4310302734375
19.1899999,-1.0965443849563599,12.279860496520996,0.3734954595565796,-2.960205078125,103.851318359375,14.95361328125
19.2099999,-1.1540051698684692,12.440272331237793,0.7829039692878723,17.7001953125,106.109619140625,24.7039794921875
19.2299999,-1.216254472732544,12.830527305603027,1.3910311460494995,17.5628662109375,86.0595703125,36.6058349609375
19.249999900000002,-1.256955862045288,13.232752799987793,2.1092917919158936,-0.5950927734375,69.488525390625,53.0853271484375
19.269999900000002,-1.235408067703247,13.560758590698242,2.806004285812378,-1.861572265625,73.6083984375,62.43896484375
19.2899999,-1.1779472827911377,13.745112419128418,3.315969467163086,13.031005859375,71.2890625,68.0999755859375
19.3099999,-1.1228805780410767,13.84566879272461,3.8283286094665527,21.4080810546875,59.5703125,78.2623291015625
19.3299999,-1.070208191871643,13.836091995239258,4.378994941711426,13.641357421875,45.0286865234375,95.3216552734375
19.3499999,-0.993593692779541,13.646949768066406,4.754884719848633,-4.0130615234375,25.81787109375,107.696533203125
19.3699999,-0.8643068075180054,13.139378547668457,5.023035049438477,-9.979248046875,15.6402587890625,114.3798828125
19.3899999,-0.646434485912323,12.29662036895752,5.013458251953125,-11.1846923828125,3.4942626953125,117.0196533203125
19.409999900000003,-0.35673606395721436,11.238382339477539,4.900930881500244,-8.1024169921875,-10.0555419921875,117.0654296875
19.429999900000002,0.009576806798577309,10.105925559997559,4.668693542480469,-2.777099609375,-22.5677490234375,115.05126953125
19.4499999,0.395043283700943,9.057265281677246,4.467580318450928,-5.828857421875,-32.135009765625,110.748291015625
19.4699999,0.7733271718025208,8.166622161865234,4.288015365600586,-10.1470947265625,-44.86083984375,106.2774658203125
19.4899999,1.1228805780410767,7.433996200561523,4.170699596405029,-7.7667236328125,-59.6923828125,102.447509765625
19.5099999,1.4197616577148438,6.782773494720459,3.955221176147461,-8.85009765625,-74.9664306640625,97.47314453125
19.5299999,1.6735470294952393,6.160281181335449,3.648763418197632,-13.97705078125,-80.8563232421875,87.3260498046875
19.5499999,1.8914192914962769,5.477933406829834,3.1890766620635986,-17.8680419921875,-83.2672119140625,73.9593505859375
19.5699999,2.0925323963165283,4.666299343109131,2.63362193107605,-19.805908203125,-89.813232421875,62.3931884765625
19.589999900000002,2.2864625453948975,3.773261785507202,2.078166961669922,-16.387939453125,-97.3052978515625,43.9910888671875
19.609999900000002,2.695871114730835,1.8770540952682495,1.0271124839782715,-23.7274169921875,-105.2093505859375,0.4425048828125
19.6299999,2.9065608978271484,1.1635819673538208,0.6416460275650024,-39.4287109375,-107.9559326171875,-24.993896484375
19.6499999,3.069366693496704,0.7230489253997803,0.2944868206977844,-49.9725341796875,-117.645263671875,-47.05810546875
19.6699999,3.0861260890960693,0.49320554733276367,-0.21308395266532898,-39.794921875,-127.38037109375,-62.6220703125
19.6899999,2.9089550971984863,0.7757213711738586,-1.1563993692398071,-24.169921875,-125.396728515625,-92.5445556640625
19.7099999,2.564189910888672,1.5275006294250488,-2.4444799423217773,-23.8189697265625,-100.4638671875,-119.8272705078125
19.7299999,2.0685901641845703,2.691082715988159,-3.804386615753174,-17.1051025390625,-72.6318359375,-120.2392578125
19.749999900000002,1.4700398445129395,4.292803764343262,-5.061342239379883,-2.227783203125,-70.159912109375,-125.0457763671875
19.769999900000002,0.8930372595787048,6.282385349273682,-6.095637321472168,-8.5601806640625,-68.878173828125,-143.6309814453125
19.7899999,0.4165911078453064,8.164227485656738,-7.003039836883545,-27.7557373046875,-44.281005859375,-131.866455078125
19.8099999,0.0933738648891449,9.943120002746582,-7.568071365356445,-28.2440185546875,2.655029296875,-112.7777099609375
19.8299999,-0.06703764945268631,11.504138946533203,-7.663839817047119,-5.2337646484375,21.42333984375,-116.14990234375
19.8499999,-0.1173158809542656,12.641385078430176,-7.252037048339844,13.2293701171875,16.54052734375,-111.8316650390625
19.8699999,-0.1364694982767105,13.498509407043457,-6.473921298980713,-15.9759521484375,23.040771484375,-92.9107666015625
19.8899999,-0.15322890877723694,13.924676895141602,-5.9088897705078125,-50.0946044921875,39.1998291015625,-73.1353759765625
19.909999900000003,-0.16759411990642548,14.104242324829102,-5.104437828063965,-33.99658203125,70.2667236328125,-68.115234375
19.929999900000002,-0.19153612852096558,13.943830490112305,-4.127603530883789,-3.7384033203125,83.8470458984375,-63.9190673828125
19.9499999,-0.2849099934101105,13.646949768066406,-3.2345664501190186,-21.0723876953125,49.407958984375,-49.224853515625
19.9699999,-0.4429273009300232,13.572729110717773,-2.58813214302063,-45.867919921875,46.56982421875,-44.5404052734375
19.9899999,-0.6344634294509888,13.57512378692627,-2.497152328491211,-29.327392578125,79.986572265625,-30.4107666015625
20.0099999,-0.8092401623725891,13.639766693115234,-2.580949544906616,-9.674072265625,111.114501953125,-10.528564453125
20.0299999,-0.9193734526634216,13.524845123291016,-2.715024709701538,-33.0047607421875,97.16796875,3.23486328125
20.0499999,-0.950498104095459,13.24472427368164,-2.367865562438965,-41.5496826171875,98.08349609375,2.7313232421875
20.0699999,-0.9744400978088379,12.847286224365234,-1.7381904125213623,-22.2930908203125,117.8131103515625,3.570556640625
20.089999900000002,-1.036689281463623,12.746729850769043,-0.7230489253997803,11.1083984375,124.053955078125,7.9193115234375
20.109999900000002,-1.137245774269104,13.050793647766113,0.36152446269989014,23.2086181640625,101.3336181640625,20.6146240234375
20.1299999,-1.259350061416626,13.634978294372559,1.4317326545715332,-10.8184814453125,83.3282470703125,41.8853759765625
20.1499999,-1.3551181554794312,14.231135368347168,2.2170307636260986,-35.308837890625,91.9189453125,57.12890625
20.1699999,-1.4101848602294922,14.597447395324707,2.808398485183716,-8.9263916015625,95.0775146484375,67.81005859375
20.1899999,-1.4101848602294922,14.72673511505127,3.428496837615967,18.4478759765625,81.9244384765625,76.4923095703125
20.2099999,-1.3646949529647827,14.607024192810059,4.177882194519043,9.9029541015625,57.7850341796875,90.27099609375
