# Time (seconds),Accel_X,Accel_Y,Accel_Z,Gyro_X,Gyro_Y,Gyro_Z
0.0099999,2.516305923461914,8.317456245422363,-3.268085241317749,-23.956298828125,-18.096923828125,-22.39990234375
0.029999900000000003,2.4205379486083984,8.78432559967041,-3.5673606395721436,-21.2554931640625,-16.204833984375,-22.369384765625
0.0499999,2.3127987384796143,9.10993766784668,-4.0078935623168945,-19.500732421875,-20.3857421875,-20.9197998046875
0.0699999,2.2385785579681396,9.17697525024414,-4.460397720336914,-15.869140625,-13.7176513671875,-17.486572265625
0.08999990000000001,2.209848165512085,9.059659004211426,-4.879383087158203,-17.6544189453125,1.77001953125,-23.86474609375
0.10999990000000001,2.22660756111145,8.755595207214355,-5.293580055236816,-26.214599609375,4.2266845703125,-30.8837890625
0.1299999,2.315192937850952,8.418013572692871,-5.5545477867126465,-24.0325927734375,7.3699951171875,-32.40966796875
0.14999990000000002,2.4636335372924805,8.180987358093262,-5.6910176277160645,-13.18359375,16.265869140625,-34.5458984375
0.1699999,2.6455929279327393,8.066065788269043,-5.633556365966797,-7.99560546875,24.566650390625,-34.3780517578125
0.1899999,2.801215887069702,8.063671112060547,-5.370194435119629,-20.6451416015625,25.6805419921875,-35.1104736328125
0.20999990000000002,2.8634653091430664,8.085219383239746,-5.099649429321289,-33.477783203125,9.033203125,-38.818359375
0.2299999,2.808398485183716,8.26239013671875,-4.886565685272217,-19.989013671875,2.2430419921875,-51.81884765625
0.2499999,2.6455929279327393,8.588001251220703,-4.865017890930176,0.2288818359375,17.333984375,-55.572509765625
0.2699999,2.449268341064453,9.069235801696777,-4.824316501617432,-2.349853515625,37.7044677734375,-38.1317138671875
0.28999990000000003,2.2697031497955322,9.636661529541016,-4.503493309020996,-15.0604248046875,45.22705078125,-22.5372314453125
0.3099999,2.0877439975738525,10.105925559997559,-4.141968727111816,-23.4375,22.552490234375,-20.843505859375
0.3299999,1.900996208190918,10.520122528076172,-3.6990416049957275,-9.002685546875,20.4315185546875,-27.3284912109375
0.34999990000000003,1.678335428237915,10.898406028747559,-3.31118106842041,7.415771484375,45.9136962890625,-22.705078125
0.3699999,1.434126853942871,11.166556358337402,-2.829946517944336,7.293701171875,54.1229248046875,-0.7781982421875
0.3899999,1.2066776752471924,11.274295806884766,-2.0685901641845703,-4.058837890625,37.90283203125,7.7056884765625
0.40999990000000003,0.9983820915222168,11.274295806884766,-1.2306196689605713,-16.6473388671875,14.404296875,-5.92041015625
0.4299999,0.8092401623725891,11.168951034545898,-0.6584054827690125,-16.17431640625,3.60107421875,-6.683349609375
0.4499999,0.6607996821403503,11.05402946472168,-0.4213795065879822,-12.6953125,14.068603515625,11.5203857421875
0.4699999,0.5530605912208557,10.884040832519531,-0.395043283700943,-18.463134765625,21.3165283203125,21.148681640625
0.4899999,0.4908113479614258,10.642226219177246,-0.37828385829925537,-25.115966796875,5.4473876953125,10.6964111328125
0.5099999,0.47165772318840027,10.400412559509277,-0.395043283700943,-15.1824951171875,-18.035888671875,2.349853515625
0.5299999,0.44771572947502136,10.1753568649292,-0.3208230137825012,-0.579833984375,-13.2293701171875,17.730712890625
0.5499999,0.3758896589279175,9.938331604003906,-0.304063618183136,-3.326416015625,-8.087158203125,32.9132080078125
0.5699999,0.22026655077934265,9.694122314453125,-0.26336219906806946,-21.8048095703125,-25.604248046875,20.1568603515625
0.5899998999999999,0.004788403399288654,9.440337181091309,-0.13407529890537262,-26.4739990234375,-40.10009765625,5.7220458984375
0.6099998999999999,-0.23942017555236816,9.404424667358398,0.026336219161748886,-8.209228515625,-40.863037109375,8.8958740234375
0.6299999,-0.47644615173339844,9.552865028381348,0.07661445438861847,2.7313232421875,-49.98779296875,28.2745361328125
0.6499999,-0.6991068720817566,9.653421401977539,-0.035913024097681046,-2.7618408203125,-66.009521484375,42.78564453125
0.6699999,-0.8954314589500427,9.502586364746094,-0.18914192914962769,-6.622314453125,-68.328857421875,37.4603271484375
0.6899999,-1.0893617868423462,9.169792175292969,-0.31124621629714966,1.220703125,-65.5517578125,20.3704833984375
0.7099999,-1.2880805730819702,8.80587387084961,-0.43335050344467163,18.8446044921875,-83.160400390625,21.026611328125
0.7299998999999999,-1.5849615335464478,8.192957878112793,-0.5530605912208557,19.8974609375,-94.390869140625,38.6810302734375
0.7499998999999999,-1.678335428237915,8.02536392211914,-0.5147533416748047,37.872314453125,-97.991943359375,24.139404296875
0.7699999,-1.7908629179000854,7.876923561096191,-1.0462661981582642,14.984130859375,-159.759521484375,18.7225341796875
0.7899999,-1.9129672050476074,7.931990146636963,-2.097320795059204,-18.3868408203125,-167.90771484375,21.91162109375
0.8099999,-1.9919757843017578,8.147468566894531,-3.667917013168335,-18.8751220703125,-106.5216064453125,17.63916015625
0.8299999,-1.9776105880737305,8.336610794067383,-4.99669885635376,22.2930908203125,-73.3184814453125,21.2554931640625
0.8499998999999999,-1.8626888990402222,8.609549522399902,-5.9519853591918945,38.848876953125,-113.9373779296875,19.8211669921875
0.8699998999999999,-1.6927006244659424,8.564059257507324,-6.6846113204956055,-4.7760009765625,-156.280517578125,27.9083251953125
0.8899999,-1.5490485429763794,8.487444877624512,-7.280767440795898,-16.8304443359375,-95.64208984375,21.1334228515625
0.9099999,-1.3910311460494995,8.214506149291992,-7.819462776184082,-17.578125,-39.6270751953125,2.777099609375
0.9299999,-1.2497732639312744,7.948749542236328,-7.386112213134766,3.7841796875,-39.36767578125,3.7384033203125
0.9499999,-1.2042834758758545,7.814674377441406,-6.392518520355225,12.542724609375,-88.9739990234375,4.7760009765625
0.9699998999999999,-1.2042834758758545,7.833827972412109,-5.418078422546387,-33.3404541015625,-119.5068359375,-5.5694580078125
0.9899998999999999,-1.235408067703247,8.29590892791748,-4.8937482833862305,-49.163818359375,-75.01220703125,-27.4810791015625
1.0099999,-1.2497732639312744,8.987833023071289,-5.231330871582031,-15.533447265625,-55.2520751953125,-15.9149169921875
1.0299999,-1.194706678390503,9.615114212036133,-5.746084213256836,18.5699462890625,-61.2945556640625,22.6898193359375
1.0499999,-1.137245774269104,10.247182846069336,-5.805939197540283,22.5830078125,-35.3851318359375,17.181396484375
1.0699999,-1.1252747774124146,10.508151054382324,-5.542576789855957,7.476806640625,-30.3955078125,-0.9307861328125
1.0899999,-1.0845733880996704,10.299856185913086,-4.874594688415527,20.44677734375,-46.4019775390625,18.218994140625
1.1099999,-0.9672574996948242,9.849745750427246,-4.091690540313721,45.7611083984375,-52.42919921875,23.37646484375
1.1299999,-0.7422025203704834,8.968679428100586,-3.950432777404785,46.0205078125,-68.2220458984375,4.638671875
1.1499999,-0.395043283700943,7.884106159210205,-4.888959884643555,24.627685546875,-75.01220703125,-19.71435546875
1.1699998999999999,0.05027823522686958,6.873753070831299,-6.766014099121094,19.10400390625,-39.031982421875,-33.599853515625
1.1899998999999999,0.5889736413955688,6.038176536560059,-9.20091724395752,18.98193359375,3.35693359375,-36.1480712890625
1.2099999,1.1109095811843872,5.48272180557251,-11.456254959106445,20.1263427734375,23.0712890625,-52.0782470703125
1.2299999,1.4772224426269531,5.008669853210449,-13.165715217590332,9.0484619140625,26.4739990234375,-77.33154296875
1.2499999,1.5753847360610962,4.829104900360107,-14.030021667480469,-4.364013671875,62.3626708984375,-103.2867431640625
1.2699999,1.3694833517074585,5.07570743560791,-14.06114673614502,-19.6075439453125,118.5455322265625,-116.1041259765625
1.2899999,0.9600749015808105,5.657498836517334,-13.084312438964844,-36.3006591796875,152.4505615234375,-97.16796875
1.3099999,0.4812345504760742,6.50025749206543,-11.097125053405762,-43.02978515625,162.78076171875,-84.1827392578125
1.3299999,0.002394201699644327,7.47230339050293,-8.93037223815918,-62.31689453125,139.2364501953125,-95.1385498046875
1.3499999,-0.40222588181495667,8.49941635131836,-6.947973251342773,-81.024169921875,140.6402587890625,-97.564697265625
1.3699999,-0.7110779285430908,9.658209800720215,-5.303156852722168,-61.5997314453125,195.4498291015625,-71.563720703125
1.3899999,-0.8212111592292786,10.587160110473633,-3.885789394378662,-34.6832275390625,212.615966796875,-30.9295654296875
1.4099999,-0.7110779285430908,11.255142211914062,-2.315192937850952,-20.7977294921875,175.2777099609375,-24.0020751953125
1.4299998999999999,-0.4668693244457245,11.705251693725586,-1.0247182846069336,-41.7327880859375,132.0648193359375,-46.6156005859375
1.4499999,-0.18914192914962769,12.014103889465332,-0.2537853717803955,-85.44921875,126.8310546875,-34.698486328125
1.4699999,0.05985504388809204,12.33013916015625,0.272938996553421,-47.91259765625,180.0689697265625,9.7503662109375
1.4899999,0.33758243918418884,12.524068832397461,0.7350199222564697,-0.67138671875,172.9278564453125,27.557373046875
1.5099999,0.6727706789970398,12.24155330657959,1.702277421951294,32.6080322265625,116.912841796875,21.5911865234375
1.5299999,1.0103530883789062,11.295844078063965,2.7030537128448486,-3.8604736328125,60.791015625,12.8173828125
1.5499999,1.2258312702178955,10.168174743652344,3.1914708614349365,-59.08203125,35.1409912109375,-17.547607421875
1.5699999,1.235408067703247,9.600749015808105,3.0789434909820557,-51.544189453125,49.2706298828125,-59.5855712890625
1.5899999,1.0199298858642578,9.658209800720215,2.628833532333374,15.7012939453125,63.0340576171875,-26.885986328125
1.6099999,0.689530074596405,10.182539939880371,2.451662540435791,16.4337158203125,44.5556640625,33.02001953125
1.6299999,0.2753331959247589,10.393229484558105,2.5761611461639404,-34.3475341796875,7.0648193359375,39.337158203125
1.6499999,-0.16759411990642548,10.216058731079102,2.4013843536376953,-76.84326171875,-37.2314453125,-24.1241455078125
1.6699999,-0.5913678407669067,9.96945571899414,1.9057846069335938,-59.8602294921875,-23.8494873046875,-60.9588623046875
1.6899998999999999,-0.9648633003234863,9.93593692779541,1.2737152576446533,14.5111083984375,36.1785888671875,-3.4332275390625
1.7099999,-1.2737152576446533,10.213664054870605,0.9576807022094727,22.1710205078125,31.341552734375,35.8734130859375
1.7299999,-1.534683346748352,10.491392135620117,1.216254472732544,2.227783203125,-23.529052734375,6.439208984375
1.7499999,-1.7477672100067139,10.488997459411621,1.4987702369689941,5.1727294921875,-66.2841796875,-17.974853515625
1.7699999,-1.9057846069335938,10.381258964538574,1.278503656387329,32.04345703125,-57.891845703125,2.2430419921875
1.7899999,-2.0231003761291504,10.38844108581543,0.667982280254364,45.7305908203125,-21.9879150390625,20.599365234375
1.8099999,-2.1116859912872314,10.24000072479248,0.004788403399288654,36.651611328125,-20.1416015625,30.303955078125
1.8299999,-2.2361843585968018,9.823410034179688,-0.4357447028160095,18.524169921875,-59.0057373046875,27.984619140625
1.8499999,-2.4229321479797363,9.181763648986816,-0.6200982332229614,20.4620361328125,-74.0814208984375,15.0909423828125
1.8699999,-2.6671407222747803,8.710105895996094,-0.8355764150619507,25.0396728515625,-59.9365234375,-0.335693359375
1.8899999,-2.8850131034851074,8.528146743774414,-1.0438719987869263,14.7857666015625,-55.6182861328125,5.4779052734375
1.9099999,-3.0358476638793945,8.710105895996094,-1.1204863786697388,0.0152587890625,-70.1904296875,24.10888671875
1.9299998999999999,-3.1316158771514893,9.059659004211426,-1.2521674633026123,-3.3416748046875,-96.0235595703125,28.564453125
1.9499999,-3.162740468978882,9.17936897277832,-1.6328455209732056,9.1094970703125,-103.94287109375,29.7088623046875
1.9699999,-3.1866824626922607,9.141061782836914,-2.2026655673980713,13.519287109375,-83.3892822265625,23.3917236328125
1.9899999,-3.222595453262329,8.796297073364258,-2.7006595134735107,10.4522705078125,-72.540283203125,25.20751953125
2.0099999,-3.2800562381744385,8.38688850402832,-3.050212860107422,9.3231201171875,-98.3123779296875,23.37646484375
2.0299999,-3.399766445159912,8.22887134552002,-3.181894063949585,-1.251220703125,-117.340087890625,5.126953125
2.0499999,-3.584120035171509,8.288725852966309,-3.404554843902588,-17.669677734375,-111.6790771484375,10.040283203125
2.0699999,-3.8570590019226074,8.53532886505127,-3.6798880100250244,-21.881103515625,-97.5189208984375,32.5469970703125
2.0899999,-4.163516521453857,8.856152534484863,-3.665522813796997,-24.078369140625,-93.56689453125,33.7066650390625
2.1099999,-4.534617900848389,9.095572471618652,-3.3854012489318848,4.2724609375,-121.8719482421875,22.064208984375
2.1299999,-4.987122058868408,9.327810287475586,-3.0310592651367188,28.2745361328125,-147.186279296875,24.59716796875
2.1499999,-5.4659624099731445,9.806650161743164,-3.2178070545196533,24.6429443359375,-159.5916748046875,32.958984375
2.1699999,-5.8442463874816895,10.412383079528809,-4.089296340942383,5.92041015625,-146.392822265625,48.1109619140625
2.1899999,-6.054935932159424,10.805032730102539,-5.161899089813232,3.570556640625,-110.443115234375,76.5838623046875
2.2099999,-6.076483726501465,10.74996566772461,-5.987898349761963,5.2032470703125,-100.7232666015625,84.7930908203125
2.2299999,-5.75326681137085,9.17697525024414,-5.736507415771484,-6.5460205078125,-108.9630126953125,57.2509765625
2.2499999,-5.485116004943848,8.370129585266113,-5.070919036865234,-23.406982421875,-112.701416015625,38.6199951171875
2.2699999,-5.128379821777344,8.094796180725098,-4.151545524597168,-23.6968994140625,-117.767333984375,30.1971435546875
2.2899999,-4.714183330535889,8.188169479370117,-3.6367924213409424,-13.2598876953125,-138.0157470703125,41.0919189453125
2.3099999,-4.23773717880249,8.44434928894043,-3.3901896476745605,9.307861328125,-136.6424560546875,55.9234619140625
2.3299999,-3.7421371936798096,8.736441612243652,-3.4811692237854004,28.9154052734375,-109.771728515625,41.8548583984375
2.3499999,-3.2154128551483154,8.755595207214355,-4.173093795776367,16.6778564453125,-123.2147216796875,33.2794189453125
2.3699999,-2.6839001178741455,8.683769226074219,-5.056553840637207,10.284423828125,-124.93896484375,33.966064453125
2.3899999,-2.1811177730560303,8.453926086425781,-5.872976779937744,21.91162109375,-83.4503173828125,31.3720703125
2.4099999,-1.764526605606079,8.169015884399414,-6.311115741729736,28.8848876953125,-52.764892578125,20.904541015625
2.4299999,-1.455674648284912,7.8098859786987305,-6.1530985832214355,21.1944580078125,-62.1185302734375,10.6201171875
2.4499999,-1.2473790645599365,7.443572998046875,-5.193023681640625,23.0560302734375,-62.042236328125,12.8326416015625
2.4699999,-1.1180921792984009,6.988674640655518,-4.1156325340271,8.6669921875,-64.8345947265625,4.5318603515625
2.4899999,-1.0055646896362305,6.835445880889893,-3.4332852363586426,-14.58740234375,-83.1756591796875,-30.3497314453125
2.5099999,-0.8762778043746948,6.84981107711792,-3.512293815612793,-15.7470703125,-79.9713134765625,-44.8760986328125
2.5299999,-0.7158663272857666,7.022193431854248,-4.299986362457275,11.8408203125,-52.8564453125,-21.270751953125
2.5499999,-0.5602431893348694,7.445967197418213,-5.363011837005615,50.567626953125,-19.9737548828125,-27.3895263671875
2.5699999,-0.4213795065879822,7.582436561584473,-6.536170482635498,44.5404052734375,-21.148681640625,-41.3818359375
2.5899999,-0.2992752194404602,7.340622425079346,-7.594407558441162,9.429931640625,-19.561767578125,-45.1202392578125
2.6099999,-0.22026655077934265,7.017405033111572,-8.822632789611816,-27.8472900390625,0.0762939453125,-75.3936767578125
2.6299999,-0.22505496442317963,6.718130111694336,-10.335768699645996,-39.4134521484375,30.33447265625,-99.578857421875
2.6499999,-0.3280056416988373,6.730101108551025,-11.8225679397583,-30.4412841796875,72.8607177734375,-100.616455078125
2.6699999,-0.5482721924781799,7.141903877258301,-12.777854919433594,-1.0223388671875,120.574951171875,-88.3636474609375
2.6899999,-0.8451532125473022,7.6997528076171875,-12.993332862854004,26.580810546875,137.9241943359375,-78.79638671875
2.7099999,-1.1228805780410767,8.185775756835938,-12.282255172729492,29.9530029296875,147.9949951171875,-76.3092041015625
2.7299999,-1.3407529592514038,8.549694061279297,-10.879252433776855,12.603759765625,169.219970703125,-80.56640625
2.7499999,-1.45806884765625,8.798690795898438,-9.10993766784668,-3.2806396484375,181.45751953125,-72.265625
2.7699999,-1.4221558570861816,9.222464561462402,-7.091625213623047,16.4337158203125,187.8509521484375,-62.0269775390625
2.7899999,-1.2042834758758545,9.737217903137207,-4.857835292816162,67.108154296875,189.02587890625,-42.449951171875
2.8099999,-0.7565677165985107,10.074800491333008,-2.7748796939849854,82.4127197265625,150.3143310546875,-15.6402587890625
2.8299999,-0.14604631066322327,9.892841339111328,-1.3072341680526733,29.96826171875,91.8426513671875,-10.711669921875
2.8499999,0.47165772318840027,9.478644371032715,-0.8595184087753296,-59.5245361328125,68.4051513671875,-54.168701171875
2.8699999,0.9528923034667969,9.040505409240723,-1.2713210582733154,-104.1412353515625,93.475341796875,-78.91845703125
2.8899999,1.1899182796478271,9.07641887664795,-2.2218191623687744,-79.620361328125,109.3597412109375,-52.5360107421875
2.9099999,1.2234370708465576,9.679757118225098,-3.1004912853240967,-56.7779541015625,89.7979736328125,-26.2451171875
2.9299999,1.139639973640442,10.366893768310547,-3.24414324760437,-24.71923828125,92.34619140625,-9.3841552734375
2.9499999,0.9002198576927185,11.125855445861816,-3.579331636428833,-36.041259765625,63.568115234375,-17.39501953125
2.9699999,0.569819986820221,11.777078628540039,-4.0294413566589355,-80.9326171875,44.4183349609375,-23.0255126953125
2.9899999,0.16998831927776337,12.342109680175781,-4.106055736541748,-24.139404296875,139.09912109375,24.90234375
3.0099999,-0.13168109953403473,12.389993667602539,-3.885789394378662,12.4359130859375,152.77099609375,65.093994140625
3.0299999,-0.3016694188117981,11.772290229797363,-3.0142998695373535,19.805908203125,71.6400146484375,50.445556640625
3.0499999,-0.4381389021873474,11.044452667236328,-2.5737667083740234,-25.57373046875,11.444091796875,-9.7198486328125
3.0699999,-0.5913678407669067,10.32858657836914,-2.650381326675415,-102.294921875,59.38720703125,-7.0037841796875
3.0899999,-0.8188169598579407,10.055646896362305,-2.9305028915405273,-93.9788818359375,165.557861328125,50.23193359375
3.1099999,-1.0558429956436157,10.14902114868164,-2.7006595134735107,-86.85302734375,139.373779296875,41.107177734375
3.1299999,-1.1683704853057861,10.110713958740234,-1.9752163887023926,-82.5958251953125,29.266357421875,13.214111328125
3.1499999,-1.1563993692398071,9.950302124023438,-0.828393816947937,-49.102783203125,19.7296142578125,15.380859375
3.1699999,-1.1013327836990356,9.512163162231445,0.05027823522686958,-18.73779296875,73.883056640625,34.48486328125
3.1899999,-1.070208191871643,8.889671325683594,0.16998831927776337,-71.9757080078125,28.3050537109375,20.3704833984375
3.2099999,-1.048660397529602,8.341399192810059,-0.038307227194309235,-125.030517578125,-12.14599609375,-24.0936279296875
3.2299999,-1.0103530883789062,7.8745293617248535,-0.19871874153614044,-84.320068359375,41.8243408203125,-19.5465087890625
3.2499999,-0.9911994934082031,7.891288757324219,-0.5722141861915588,-27.8778076171875,51.4984130859375,-4.3182373046875
3.2699999,-1.0342950820922852,8.451532363891602,-0.9097966551780701,-28.1982421875,0.3814697265625,-11.1541748046875
3.2899999,-1.1779472827911377,9.002198219299316,-0.828393816947937,-46.5545654296875,7.049560546875,4.0740966796875
3.3099999,-1.4293384552001953,9.454702377319336,-0.47884035110473633,-53.77197265625,39.520263671875,15.56396484375
3.3299999000000002,-1.7190368175506592,9.847352027893066,0.05985504388809204,-54.046630859375,15.31982421875,-4.2266845703125
3.3499999,-1.946485996246338,10.034099578857422,0.933738648891449,-40.6036376953125,-21.5606689453125,-4.150390625
3.3699999,-2.1715409755706787,10.034099578857422,1.7286136150360107,-29.6783447265625,-33.3251953125,20.4925537109375
3.3899999,-2.403778553009033,9.976638793945312,2.011129379272461,-32.4859619140625,-42.4957275390625,14.2059326171875
3.4099999,-2.647987127304077,9.72285270690918,2.1547815799713135,-18.9208984375,-34.3475341796875,-2.8076171875
3.4299999,-2.894589900970459,9.366117477416992,2.31758713722229,-4.4097900390625,-39.4134521484375,-3.3721923828125
3.4499999,-3.1196448802948,9.121908187866211,2.5306711196899414,-5.1422119140625,-80.169677734375,-2.25830078125
3.4699999,-3.3494882583618164,9.299078941345215,2.6360161304473877,-9.765625,-114.6087646484375,-14.4500732421875
3.4899999,-3.6128504276275635,9.622296333312988,2.4851813316345215,8.4228515625,-116.2567138671875,1.8768310546875
3.5099999,-3.9240965843200684,9.86650562286377,2.118868589401245,41.5496826171875,-117.5994873046875,33.6151123046875
3.5299999,-4.271255970001221,9.821015357971191,1.625662922859192,60.302734375,-147.9034423828125,34.637451171875
3.5499999,-4.659116744995117,9.512163162231445,1.0558429956436157,37.322998046875,-175.7354736328125,7.5225830078125
3.5699999,-5.015852451324463,8.995016098022461,0.4620809257030487,5.4473876953125,-171.6461181640625,4.69970703125
3.5899999,-5.336675643920898,8.678980827331543,-0.22266076505184174,-7.14111328125,-164.7491455078125,10.0555419921875
3.6099999,-5.590460777282715,8.78193187713623,-0.9720458984375,-10.8642578125,-182.6019287109375,-5.7220458984375
3.6299999,-5.738901615142822,9.301473617553711,-1.460463047027588,3.0364990234375,-186.1419677734375,-11.4288330078125
3.6499999,-5.837063789367676,10.034099578857422,-1.9488801956176758,21.8505859375,-185.1043701171875,15.9759521484375
3.6699999,-5.851428985595703,10.697293281555176,-2.499546527862549,15.838623046875,-191.89453125,39.703369140625
3.6899999,-5.762843608856201,11.08994197845459,-2.935291290283203,8.3465576171875,-180.4351806640625,30.426025390625
3.7099999,-5.568912982940674,11.058817863464355,-3.3039982318878174,12.7105712890625,-171.7376708984375,20.2484130859375
3.7299999,-5.286397457122803,10.723628997802734,-3.8355112075805664,8.026123046875,-186.1572265625,28.106689453125
3.7499999,-4.352658748626709,9.47146224975586,-4.960785865783691,2.6092529296875,-134.5977783203125,27.5115966796875
3.7699999,-3.778050184249878,8.736441612243652,-5.5114521980285645,-11.871337890625,-120.941162109375,3.4027099609375
3.7899999,-3.1938650608062744,8.200140953063965,-5.710171222686768,-19.5770263671875,-113.5101318359375,-11.1083984375
3.8099999,-2.674323320388794,8.1139497756958,-5.770026206970215,-27.5115966796875,-105.194091796875,-11.8255615234375
3.8299999000000002,-2.2385785579681396,8.415618896484375,-5.74129581451416,-21.7742919921875,-86.48681640625,-8.1329345703125
3.8499999,-1.9105730056762695,8.729259490966797,-5.758055210113525,0.1983642578125,-64.6514892578125,-5.9356689453125
3.8699999,-1.6543933153152466,8.87051773071289,-5.7772088050842285,5.2032470703125,-47.6531982421875,-17.333984375
3.8899999,-1.45806884765625,8.815450668334961,-5.808333396911621,-2.7618408203125,-29.4647216796875,-37.3077392578125
3.9099999,-1.2952631711959839,8.769960403442383,-5.918466567993164,-16.41845703125,-11.53564453125,-51.2847900390625
3.9299999,-1.1276689767837524,8.78193187713623,-6.033388137817383,-21.8658447265625,20.0958251953125,-46.142578125
3.9499999,-0.8954314589500427,8.669404029846191,-5.882553577423096,-15.80810546875,57.861328125,-35.3851318359375
3.9699999,-0.6871358752250671,8.540117263793945,-5.659893035888672,1.8157958984375,67.3980712890625,-52.18505859375
3.9899999,-0.5171475410461426,8.293514251708984,-5.389348030090332,1.6326904296875,70.4345703125,-66.5130615234375
4.0099999,-0.4596867263317108,8.197746276855469,-5.118803024291992,-7.0953369140625,102.386474609375,-63.6444091796875
4.029999900000001,-0.5315127968788147,8.429984092712402,-5.2672438621521,-47.2564697265625,110.65673828125,-68.5272216796875
4.0499999,-0.7206547260284424,9.004592895507812,-5.609614372253418,-77.2552490234375,110.9466552734375,-75.8819580078125
4.069999900000001,-0.9289502501487732,9.765948295593262,-6.174646377563477,-77.2705078125,127.960205078125,-68.7255859375
4.0899999000000005,-1.1037269830703735,10.709263801574707,-6.730101108551025,-62.2406005859375,156.585693359375,-58.1512451171875
4.1099999,-1.2449848651885986,11.597513198852539,-7.218518257141113,-46.1578369140625,168.6248779296875,-43.7774658203125
4.1299999000000005,-1.3263877630233765,12.229581832885742,-7.249642848968506,-32.379150390625,182.861328125,-15.4266357421875
4.1499999,-1.3479355573654175,12.428300857543945,-6.390124320983887,-21.2554931640625,219.0399169921875,10.2386474609375
4.1699999000000005,-1.3263877630233765,12.018892288208008,-4.766855716705322,-30.7769775390625,215.3778076171875,25.4974365234375
4.1899999,-1.237802267074585,11.283872604370117,-2.853888511657715,-75.62255859375,163.909912109375,17.8680419921875
4.209999900000001,-1.0749965906143188,10.556035041809082,-0.7757213711738586,-94.6502685546875,162.078857421875,14.4195556640625
4.2299999,-0.8164227604866028,10.036493301391602,1.1180921792984009,-53.2684326171875,195.1141357421875,40.46630859375
4.249999900000001,-0.47405192255973816,9.636661529541016,2.6360161304473877,-10.9100341796875,167.5567626953125,69.7784423828125
4.2699999,-0.08379705995321274,9.265560150146484,3.7038300037384033,8.148193359375,110.0006103515625,63.4307861328125
4.289999900000001,0.26575639843940735,9.026140213012695,3.907337188720703,-36.041259765625,92.9718017578125,25.0701904296875
4.3099999,0.5195417404174805,8.741230010986328,3.4979286193847656,-89.080810546875,125.2593994140625,27.7862548828125
4.329999900000001,0.689530074596405,8.765172004699707,2.894589900970459,-102.0965576171875,144.195556640625,34.6832275390625
4.3499999,0.7972691655158997,9.100360870361328,2.492363929748535,-81.0394287109375,99.79248046875,13.5650634765625
4.369999900000001,0.811634361743927,9.864110946655273,2.0638017654418945,-43.2586669921875,57.0220947265625,2.50244140625
4.3899999,0.727837324142456,10.912771224975586,1.659181833267212,-41.351318359375,82.0159912109375,29.266357421875
4.409999900000001,0.5267243981361389,11.674127578735352,1.3527239561080933,-24.6124267578125,140.777587890625,83.9080810546875
4.4299999,0.33997663855552673,11.942277908325195,1.37906014919281,-28.228759765625,114.715576171875,71.136474609375
4.449999900000001,0.12928688526153564,11.595118522644043,1.7501614093780518,-15.7318115234375,58.258056640625,29.937744140625
4.4699999,-0.09576806426048279,10.927136421203613,1.8124107122421265,-38.63525390625,44.952392578125,31.158447265625
4.489999900000001,-0.38067805767059326,9.938331604003906,2.032677173614502,-56.0760498046875,123.1536865234375,77.08740234375
4.5099999,-0.6799532771110535,8.89445972442627,2.3750481605529785,-58.6395263671875,152.7099609375,64.2547607421875
4.529999900000001,-0.9289502501487732,7.702147006988525,3.28963303565979,-43.914794921875,72.93701171875,2.1820068359375
4.5499999,-1.1779472827911377,7.139509677886963,4.256890773773193,-43.5791015625,10.2081298828125,-38.02490234375
4.569999900000001,-1.41257905960083,7.247248649597168,5.044582843780518,-72.174072265625,38.6810302734375,-12.176513671875
4.5899999000000005,-1.7477672100067139,7.982268333435059,5.65031623840332,-55.267333984375,87.738037109375,28.411865234375
4.609999900000001,-2.094926595687866,9.002198219299316,6.399701118469238,-19.8516845703125,50.3082275390625,2.685546875
4.6299999000000005,-2.456450939178467,9.904812812805176,7.110779285430908,21.1944580078125,-39.581298828125,-13.8092041015625
4.6499999,-2.765302896499634,10.608707427978516,7.513004779815674,21.1639404296875,-60.6536865234375,12.8021240234375
4.6699999000000005,-3.0095114707946777,10.953473091125488,7.544129371643066,38.6962890625,-10.31494140625,46.9970703125
4.6899999,-3.184288263320923,10.943896293640137,7.292738437652588,55.8624267578125,-27.9083251953125,29.60205078125
4.709999900000001,-3.2585084438323975,10.426748275756836,7.0988078117370605,65.765380859375,-98.7091064453125,11.4288330078125
4.7299999,-3.2417490482330322,9.818621635437012,6.586448669433594,65.5975341796875,-139.2059326171875,16.4031982421875
4.749999900000001,-3.1914708614349365,9.435548782348633,5.494692802429199,45.0592041015625,-126.4801025390625,17.364501953125
4.7699999,-3.0837318897247314,9.210494041442871,4.106055736541748,24.566650390625,-96.923828125,21.5606689453125
4.789999900000001,-2.964021682739258,8.983044624328613,2.8179752826690674,7.0648193359375,-111.236572265625,25.543212890625
4.8099999,-2.8850131034851074,8.621520042419434,1.8746598958969116,4.1656494140625,-144.59228515625,20.721435546875
4.829999900000001,-2.9065608978271484,8.31985092163086,1.213860273361206,10.1165771484375,-143.3563232421875,1.6326904296875
4.8499999,-3.0621838569641113,8.058882713317871,0.8020575642585754,11.749267578125,-117.1112060546875,1.617431640625
4.869999900000001,-3.3423056602478027,7.934384346008301,0.7398083209991455,7.6446533203125,-115.5853271484375,15.31982421875
4.8899999,-3.7421371936798096,7.94635534286499,1.1228805780410767,1.89208984375,-146.209716796875,8.148193359375
4.909999900000001,-4.197035789489746,7.979874134063721,1.8579005002975464,3.3111572265625,-169.0826416015625,-7.32421875
4.9299999,-4.6950297355651855,8.063671112060547,2.4684219360351562,1.4190673828125,-186.1572265625,-14.6026611328125
4.949999900000001,-5.200206279754639,8.31985092163086,2.583343744277954,9.307861328125,-203.7353515625,-13.427734375
4.9699999,-5.614402770996094,8.556877136230469,2.1140801906585693,17.9901123046875,-211.4410400390625,-7.965087890625
4.989999900000001,-5.904101371765137,8.664615631103516,1.3263877630233765,15.289306640625,-202.4688720703125,-8.8043212890625
5.0099999,-6.0621185302734375,8.710105895996094,0.4812345504760742,5.645751953125,-198.5015869140625,-28.472900390625
5.029999900000001,-6.069301128387451,8.647856712341309,-0.4884171485900879,-15.19775390625,-225.40283203125,-39.9932861328125
5.0499999,-5.9519853591918945,8.633491516113281,-1.357512354850769,-10.589599609375,-220.76416015625,-40.069580078125
5.069999900000001,-5.743690013885498,8.832210540771484,-1.9345149993896484,-6.103515625,-186.2945556640625,-50.5218505859375
5.0899999000000005,-5.473145008087158,9.133879661560059,-2.671929121017456,-8.9111328125,-195.49560546875,-55.7861328125
5.109999900000001,-5.1810526847839355,9.495404243469238,-3.201047658920288,-12.847900390625,-206.23779296875,-43.487548828125
5.1299999000000005,-4.879383087158203,9.744400978088379,-3.8283286094665527,-15.533447265625,-174.4842529296875,-39.794921875
5.1499999,-4.572925090789795,10.019734382629395,-4.350264549255371,-20.32470703125,-134.3231201171875,-53.77197265625
5.1699999000000005,-4.240131378173828,10.409989356994629,-4.548983097076416,-15.960693359375,-118.8201904296875,-67.138671875
5.1899999,-3.9193081855773926,10.623072624206543,-4.733336925506592,-24.1851806640625,-145.8740234375,-40.46630859375
5.209999900000001,-3.643975019454956,10.591948509216309,-4.977545261383057,-38.8031005859375,-137.1307373046875,-31.18896484375
5.2299999,-3.399766445159912,10.24000072479248,-5.236119270324707,-62.31689453125,-61.859130859375,-67.169189453125
5.249999900000001,-3.136404275894165,9.854534149169922,-5.094861030578613,-93.32275390625,-8.0718994140625,-96.0845947265625
5.2699999,-2.4875755310058594,9.512163162231445,-3.6798880100250244,-143.7835693359375,-70.12939453125,-47.36328125
5.289999900000001,-2.2218191623687744,9.674968719482422,-3.2130186557769775,-132.6751708984375,-20.477294921875,-63.6138916015625
5.3099999,-2.1164743900299072,9.988609313964844,-3.2297780513763428,-94.0704345703125,67.0013427734375,-67.2454833984375
5.329999900000001,-2.190694570541382,10.864887237548828,-3.552995204925537,-105.987548828125,76.1566162109375,-61.5997314453125
5.3499999,-2.3582887649536133,12.22000503540039,-3.5458126068115234,-131.1187744140625,72.784423828125,-30.2886962890625
5.369999900000001,-2.583343744277954,13.7666597366333,-3.2393548488616943,-103.240966796875,117.73681640625,21.3470458984375
5.3899999,-2.8131868839263916,14.911087989807129,-2.7988216876983643,-65.521240234375,154.6173095703125,58.4259033203125
5.409999900000001,-3.0119056701660156,15.591041564941406,-2.1523873805999756,-46.966552734375,168.304443359375,66.6046142578125
5.4299999,-3.19865345954895,15.567099571228027,-1.3766659498214722,-35.9649658203125,176.9866943359375,90.8203125
5.449999900000001,-3.3231520652770996,14.731523513793945,-0.6536170840263367,-15.8538818359375,188.5986328125,137.359619140625
5.4699999,-3.3638534545898438,13.175292015075684,-0.12449848651885986,8.0718994140625,202.301025390625,143.37158203125
5.489999900000001,-3.287238836288452,11.0300874710083,0.30885201692581177,14.4500732421875,215.63720703125,110.1837158203125
5.5099999,-3.047818660736084,8.844181060791016,0.8930372595787048,6.134033203125,226.959228515625,86.8682861328125
5.529999900000001,-2.6168625354766846,7.086836814880371,1.601720929145813,-12.4359130859375,208.3282470703125,87.6922607421875
5.5499999,-2.013523578643799,6.0190229415893555,2.293645143508911,-20.9503173828125,178.924560546875,85.38818359375
5.569999900000001,-1.3215993642807007,5.688623428344727,2.736572504043579,-17.02880859375,173.1109619140625,61.82861328125
5.5899999000000005,-0.6368576288223267,5.9304375648498535,3.0334534645080566,-11.53564453125,190.826416015625,50.0335693359375
5.609999900000001,-0.035913024097681046,6.564900875091553,3.2968156337738037,-19.4854736328125,190.4144287109375,65.1397705078125
5.6299999000000005,0.4357447028160095,7.3238630294799805,3.732560396194458,-26.1688232421875,159.1796875,73.9898681640625
5.6499999,0.7661445140838623,8.099584579467773,4.273650169372559,-25.299072265625,131.5460205078125,53.314208984375
5.6699999000000005,0.9289502501487732,8.87051773071289,4.584896087646484,-41.6412353515625,121.368408203125,38.8641357421875
5.6899999,0.9289502501487732,9.75397777557373,4.912901878356934,-62.896728515625,130.3863525390625,52.1240234375
5.709999900000001,0.8164227604866028,10.436325073242188,5.298368453979492,-26.6265869140625,133.85009765625,88.80615234375
5.7299999,0.6368576288223267,10.946290016174316,5.770026206970215,23.5443115234375,97.0916748046875,81.54296875
5.749999900000001,0.4405331015586853,11.1474027633667,6.382941722869873,11.077880859375,74.4171142578125,50.7049560546875
5.7699999,0.28969839215278625,10.745177268981934,7.003039836883545,-45.7916259765625,83.740234375,68.3135986328125
5.789999900000001,0.16998831927776337,10.338163375854492,7.393294811248779,-71.929931640625,62.3931884765625,62.286376953125
5.8099999,0.11013327538967133,10.02691650390625,7.297526836395264,-30.6549072265625,23.4832763671875,29.84619140625
5.829999900000001,0.05267243832349777,9.93354320526123,6.840234279632568,22.979736328125,32.867431640625,47.5006103515625
5.8499999,-0.035913024097681046,9.782708168029785,6.344634532928467,12.6495361328125,82.794189453125,97.930908203125
5.869999900000001,-0.16759411990642548,9.251194953918457,6.033388137817383,-49.6063232421875,70.86181640625,98.8311767578125
5.8899999,-0.3256114423274994,8.336610794067383,6.258443355560303,-58.89892578125,23.1170654296875,30.94482421875
5.909999900000001,-0.5147533416748047,7.4770917892456055,6.337451934814453,-20.4315185546875,-7.9193115234375,-12.176513671875
5.9299999,-0.7613561153411865,7.134721279144287,6.404489517211914,-2.838134765625,25.1922607421875,19.2718505859375
5.949999900000001,-1.0821791887283325,7.110779285430908,6.540958881378174,-27.4200439453125,68.78662109375,65.826416015625
5.9699999,-1.4437036514282227,7.151480674743652,6.914454460144043,-51.3153076171875,23.37646484375,39.154052734375
5.989999900000001,-1.7860745191574097,7.094019412994385,7.407660007476807,-31.982421875,-38.360595703125,-19.6685791015625
6.0099999,-2.097320795059204,7.103596210479736,7.783549785614014,-13.519287109375,-32.0281982421875,-21.575927734375
6.029999900000001,-2.341529369354248,7.228095054626465,8.056488990783691,-4.45556640625,8.0413818359375,19.195556640625
6.0499999,-2.58813214302063,7.4316020011901855,8.367734909057617,6.9732666015625,-19.4549560546875,14.617919921875
6.069999900000001,-2.82515811920166,7.467514991760254,8.683769226074219,34.5916748046875,-94.8638916015625,-25.0091552734375
6.0899999000000005,-3.021482467651367,7.42681360244751,8.674192428588867,57.2662353515625,-127.1820068359375,-37.3687744140625
6.109999900000001,-3.1866824626922607,7.4770917892456055,8.087613105773926,73.1353759765625,-104.8736572265625,-17.2882080078125
6.1299999000000005,-3.3423056602478027,7.659051418304443,7.06528902053833,72.5860595703125,-103.9276123046875,-11.4898681640625
6.149999900000001,-3.514688014984131,7.8745293617248535,6.069301128387451,62.6068115234375,-132.7056884765625,-27.679443359375
6.1699999000000005,-3.7397429943084717,8.2312650680542,5.149928092956543,50.3692626953125,-158.9813232421875,-41.107177734375
6.1899999,-3.9887399673461914,8.746018409729004,4.206612586975098,42.1295166015625,-164.2608642578125,-30.7159423828125
6.209999900000001,-4.247313976287842,9.097966194152832,3.4596214294433594,65.032958984375,-141.3116455078125,3.082275390625
6.2299999,-4.541800498962402,9.093177795410156,3.00711727142334,91.49169921875,-141.3726806640625,9.21630859375
6.249999900000001,-4.8602294921875,8.899248123168945,2.698265314102173,51.9561767578125,-188.9801025390625,-32.989501953125
6.2699999,-5.171475887298584,8.60236644744873,2.473210334777832,12.3138427734375,-206.5582275390625,-44.0673828125
6.289999900000001,-5.408501625061035,8.374917984008789,2.1523873805999756,29.3731689453125,-178.89404296875,-11.71875
6.3099999,-5.585672378540039,8.269572257995605,1.723825216293335,54.8095703125,-174.560546875,-10.68115234375
6.329999900000001,-5.6910176277160645,8.312667846679688,1.1803414821624756,33.5693359375,-208.3892822265625,-47.42431640625
6.3499999,-5.793968200683594,8.62391471862793,0.4572925269603729,-6.195068359375,-224.395751953125,-61.9659423828125
6.369999900000001,-5.801150798797607,9.361329078674316,-0.5386953949928284,-20.5230712890625,-196.868896484375,-35.7666015625
6.3899999,-5.683835029602051,9.988609313964844,-1.403002142906189,-11.627197265625,-159.3017578125,-3.8604736328125
6.409999900000001,-5.420472621917725,10.271124839782715,-1.9488801956176758,7.0037841796875,-165.2679443359375,-15.0909423828125
6.4299999,-5.094861030578613,10.199298858642578,-2.205059766769409,9.735107421875,-195.526123046875,-50.537109375
6.449999900000001,-4.750096321105957,10.012551307678223,-2.4420857429504395,-2.3193359375,-183.8226318359375,-44.73876953125
6.4699999,-4.378994941711426,9.782708168029785,-2.7557260990142822,-12.542724609375,-139.70947265625,-8.636474609375
6.489999900000001,-3.974374771118164,9.586383819580078,-3.1507694721221924,-11.8255615234375,-117.7215576171875,-17.0440673828125
6.5099999,-3.5482068061828613,9.481039047241211,-3.332728862762451,-20.2484130859375,-120.78857421875,-57.2509765625
6.529999900000001,-3.1435868740081787,9.713275909423828,-3.3039982318878174,-34.759521484375,-106.292724609375,-63.0035400390625
6.5499999,-2.7964274883270264,10.27591323852539,-3.3734302520751953,-50.8575439453125,-90.5609130859375,-21.0723876953125
6.569999900000001,-2.4660277366638184,10.994174003601074,-3.471592426300049,-47.119140625,-67.535400390625,1.6021728515625
6.5899999000000005,-2.126051187515259,11.329362869262695,-3.5003228187561035,-37.0941162109375,-36.468505859375,-6.0882568359375
6.609999900000001,-1.7405846118927002,11.173739433288574,-3.2609026432037354,-53.375244140625,-16.9830322265625,-14.6636962890625
6.6299999000000005,-1.3096283674240112,10.623072624206543,-2.738966703414917,-71.8994140625,-8.5906982421875,-8.85009765625
6.649999900000001,-0.8619126081466675,10.20887565612793,-2.3032219409942627,-81.634521484375,-11.2762451171875,-17.547607421875
6.6699999000000005,-0.4381389021873474,9.9000244140625,-2.0039467811584473,-65.5059814453125,18.06640625,-18.341064453125
6.6899999,-0.0694318488240242,9.770736694335938,-1.6735470294952393,-38.5284423828125,67.291259765625,-10.0860595703125
6.709999900000001,0.1843535304069519,10.017339706420898,-1.599326729774475,-40.9698486328125,64.63623046875,-22.94921875
6.7299999,0.3208230137825012,10.32858657836914,-1.5634137392044067,-51.2237548828125,54.62646484375,-17.6239013671875
6.749999900000001,0.363918662071228,10.790667533874512,-1.5969325304031372,-41.44287109375,95.9014892578125,0.823974609375
6.7699999,0.304063618183136,11.650185585021973,-1.580173134803772,-50.9796142578125,133.6517333984375,14.3280029296875
6.789999900000001,0.3208230137825012,11.966219902038574,-1.094150185585022,-48.6907958984375,127.6702880859375,20.81298828125
6.8099999,0.37828385829925537,12.12902545928955,-0.3878606855869293,-18.035888671875,135.1776123046875,37.17041015625
6.829999900000001,0.47405192255973816,12.011710166931152,0.26575639843940735,7.0648193359375,144.1497802734375,49.835205078125
6.8499999,0.5817909836769104,11.571176528930664,0.8164227604866028,10.55908203125,147.9339599609375,51.605224609375
6.869999900000001,0.7015010714530945,10.855310440063477,1.4245500564575195,5.7220458984375,154.693603515625,46.7376708984375
6.8899999,0.8690952062606812,9.981427192687988,2.2218191623687744,5.279541015625,154.9530029296875,46.661376953125
6.909999900000001,1.091755986213684,9.133879661560059,3.071760892868042,7.0037841796875,128.72314453125,44.9981689453125
6.9299999,1.3335703611373901,8.470685958862305,3.488351821899414,4.974365234375,90.2862548828125,37.41455078125
6.949999900000001,1.522712230682373,8.274360656738281,3.294421434402466,-11.5203857421875,92.1783447265625,28.9306640625
6.9699999,1.6184803247451782,8.29830265045166,2.8107926845550537,-9.82666015625,140.777587890625,53.4210205078125
6.989999900000001,1.6136919260025024,8.406042098999023,2.425326347351074,-10.2081298828125,151.336669921875,76.7974853515625
7.0099999,1.5442601442337036,8.339004516601562,2.3367409706115723,-29.510498046875,101.5167236328125,58.349609375
7.029999900000001,1.4197616577148438,8.374917984008789,2.516305923461914,-44.952392578125,85.14404296875,21.453857421875
7.0499999,1.2737152576446533,8.611943244934082,2.983175277709961,-47.8668212890625,131.683349609375,25.2685546875
7.069999900000001,1.1300631761550903,9.141061782836914,3.998316764831543,-31.951904296875,164.3829345703125,65.948486328125
7.0899999000000005,1.0342950820922852,9.718064308166504,5.647922039031982,-7.965087890625,110.7940673828125,73.3642578125
7.109999900000001,1.0031704902648926,10.101137161254883,7.117961883544922,8.4991455078125,13.458251953125,44.4793701171875
7.1299999000000005,0.9720458984375,10.457873344421387,7.694964408874512,-13.3819580078125,-3.7078857421875,27.16064453125
7.149999900000001,0.8810662031173706,10.56800651550293,7.371747016906738,-27.34375,67.108154296875,68.817138671875
7.1699999000000005,0.7254431247711182,10.398017883300781,6.785167694091797,-24.7802734375,96.038818359375,99.5635986328125
7.1899999,0.545877993106842,9.871294021606445,6.5050458908081055,-18.1732177734375,27.89306640625,61.1724853515625
7.209999900000001,0.395043283700943,9.042900085449219,6.36378812789917,-9.33837890625,-33.355712890625,26.4434814453125
7.2299999,0.28730419278144836,8.279149055480957,5.992686748504639,-4.8065185546875,-7.01904296875,36.712646484375
7.249999900000001,0.20111294090747833,7.817068576812744,5.384559631347656,-13.9007568359375,41.7327880859375,48.3856201171875
7.2699999,0.1149216815829277,7.654263019561768,4.795586109161377,-39.1387939453125,20.93505859375,30.6549072265625
7.289999900000001,0.011971008032560349,7.7763671875,4.4077253341674805,-44.49462890625,-20.5841064453125,13.1378173828125
7.3099999,-0.1173158809542656,8.130708694458008,4.144362926483154,-16.4031982421875,-9.765625,25.0396728515625
7.329999900000001,-0.2585737705230713,8.47786808013916,3.847482204437256,6.5460205078125,26.3824462890625,49.3927001953125
7.3499999,-0.3878606855869293,8.655038833618164,3.643975019454956,-7.38525390625,25.146484375,39.0625
7.369999900000001,-0.4644751250743866,8.365341186523438,3.8307228088378906,-21.6522216796875,3.11279296875,15.1214599609375
7.3899999,-0.5051765441894531,8.001421928405762,4.285621166229248,2.471923828125,-5.767822265625,-3.35693359375
7.409999900000001,-0.5554547905921936,7.888894557952881,4.288015365600586,5.06591796875,-24.6124267578125,-9.796142578125
7.4299999,-0.6224924325942993,8.022970199584961,4.292803764343262,-4.3182373046875,3.7994384765625,9.613037109375
7.449999900000001,-0.6991068720817566,8.188169479370117,4.2544965744018555,-10.4522705078125,33.0657958984375,22.4456787109375
7.4699999,-0.7422025203704834,8.255207061767578,4.2544965744018555,-26.3824462890625,-6.2103271484375,-4.0130615234375
7.489999900000001,-0.730231523513794,8.183381080627441,4.273650169372559,-15.7318115234375,-34.66796875,-28.900146484375
7.5099999,-0.6823474764823914,8.29590892791748,3.93367338180542,-2.197265625,-21.6217041015625,-26.6265869140625
7.529999900000001,-0.6200982332229614,8.686163902282715,3.3949780464172363,-16.05224609375,14.190673828125,-9.27734375
7.5499999,-0.5506663918495178,9.093177795410156,2.9712042808532715,-24.47509765625,21.1029052734375,6.103515625
7.569999900000001,-0.4572925269603729,9.457097053527832,2.846705913543701,-13.8397216796875,-5.9051513671875,-4.7760009765625
7.5899999000000005,-0.3423708379268646,9.516951560974121,2.9735984802246094,6.2713623046875,-12.87841796875,-7.6141357421875
7.609999900000001,-0.19632454216480255,9.454702377319336,3.134010076522827,7.3089599609375,5.31005859375,-2.2735595703125
7.6299999000000005,-0.035913024097681046,9.301473617553711,3.2417490482330322,-9.9945068359375,12.7716064453125,0.48828125
7.649999900000001,0.11013327538967133,9.131484985351562,3.507505416870117,-20.0653076171875,5.8746337890625,-2.62451171875
7.6699999000000005,0.24181437492370605,8.954314231872559,3.8977603912353516,-10.7574462890625,-1.922607421875,-5.157470703125
7.6899999,0.3447650372982025,8.87051773071289,4.170699596405029,-3.7689208984375,-10.7421875,-6.5765380859375
7.709999900000001,0.4357447028160095,8.913613319396973,4.307168960571289,0.8697509765625,-5.2337646484375,-5.79833984375
7.7299999,0.524330198764801,8.971074104309082,4.271255970001221,6.2103271484375,4.974365234375,0.0762939453125
7.749999900000001,0.6224924325942993,9.016563415527344,4.127603530883789,2.105712890625,-0.48828125,0.030517578125
7.7699999,0.7254431247711182,9.062053680419922,4.034229755401611,-4.8370361328125,-3.8909912109375,-6.9427490234375
7.789999900000001,0.8188169598579407,9.047688484191895,3.950432777404785,-7.598876953125,0.3204345703125,-3.7689208984375
7.8099999,0.8930372595787048,9.074024200439453,3.8762125968933105,-8.5296630859375,3.0975341796875,0.579833984375
7.829999900000001,0.9433154463768005,9.129091262817383,3.912125587463379,-5.584716796875,7.2174072265625,-1.4801025390625
7.8499999,0.9744400978088379,9.148244857788086,4.0749311447143555,-3.5247802734375,6.77490234375,-0.1983642578125
7.869999900000001,0.9888052940368652,9.157821655273438,4.299986362457275,-5.7373046875,-0.2593994140625,1.373291015625
7.8899999,0.993593692779541,9.153033256530762,4.541800498962402,-4.7454833984375,-2.0904541015625,2.0904541015625
7.909999900000001,1.0007762908935547,9.10993766784668,4.671087741851807,-1.03759765625,-0.885009765625,3.0059814453125
7.9299999,1.0055646896362305,9.05247688293457,4.671087741851807,0.48828125,-0.640869140625,3.6163330078125
7.949999900000001,1.0127472877502441,8.954314231872559,4.599261283874512,-1.434326171875,-0.18310546875,4.8980712890625
7.9699999,1.015141487121582,8.860940933227539,4.458003520965576,-1.7547607421875,-0.9307861328125,4.9285888671875
7.989999900000001,1.0103530883789062,8.777143478393555,4.367023944854736,1.220703125,1.800537109375,3.997802734375
8.0099999,0.9959878921508789,8.676587104797363,4.321534156799316,2.655029296875,3.5400390625,6.256103515625
8.0299999,0.9744400978088379,8.604761123657227,4.355052947998047,-0.1678466796875,0.5950927734375,4.8828125
8.049999900000001,0.9576807022094727,8.525752067565918,4.479551315307617,0.67138671875,0.06103515625,3.448486328125
8.069999900000001,0.9528923034667969,8.463502883911133,4.55616569519043,-1.220703125,-4.119873046875,2.960205078125
8.0899999,0.9600749015808105,8.44434928894043,4.592078685760498,-1.495361328125,-4.7149658203125,1.6326904296875
8.1099999,0.9816226959228516,8.465897560119629,4.546588897705078,-1.03759765625,-0.9918212890625,1.495361328125
8.129999900000001,1.0103530883789062,8.53532886505127,4.4292731285095215,-2.99072265625,-1.007080078125,1.9378662109375
8.149999900000001,1.048660397529602,8.645462036132812,4.326322555541992,-2.38037109375,0.5340576171875,2.5787353515625
8.1699999,1.0893617868423462,8.729259490966797,4.2760443687438965,-1.861572265625,2.1209716796875,5.2642822265625
8.1899999,1.1228805780410767,8.772355079650879,4.2544965744018555,-0.30517578125,0.2899169921875,5.7830810546875
8.2099999,1.1468225717544556,8.779537200927734,4.285621166229248,0.885009765625,0.335693359375,3.35693359375
8.229999900000001,1.1635819673538208,8.71489429473877,4.345476150512695,0,2.74658203125,3.8604736328125
8.2499999,1.173158884048462,8.65743350982666,4.434061527252197,-0.6103515625,2.25830078125,3.47900390625
8.2699999,1.173158884048462,8.614337921142578,4.51067590713501,-2.777099609375,-1.983642578125,1.129150390625
8.2899999,1.170764684677124,8.540117263793945,4.51067590713501,-0.0152587890625,-0.18310546875,1.068115234375
8.309999900000001,1.1755530834197998,8.528146743774414,4.417302131652832,0.6103515625,2.38037109375,0.1373291015625
8.3299999,1.1755530834197998,8.513781547546387,4.3191399574279785,-2.50244140625,1.6937255859375,2.1820068359375
8.3499999,1.173158884048462,8.520963668823242,4.259284973144531,-3.997802734375,2.0751953125,0.823974609375
8.3699999,1.1635819673538208,8.506598472595215,4.264073371887207,-3.5400390625,3.326416015625,-0.152587890625
8.389999900000001,1.1492167711257935,8.489839553833008,4.314351558685303,-2.0599365234375,3.0364990234375,-0.4119873046875
8.4099999,1.139639973640442,8.516175270080566,4.3622355461120605,-1.708984375,-0.030517578125,-2.2735595703125
8.4299999,1.137245774269104,8.542511940002441,4.4292731285095215,-0.9765625,1.77001953125,-0.7171630859375
8.4499999,1.137245774269104,8.559270858764648,4.491522312164307,-0.8087158203125,3.936767578125,1.129150390625
8.469999900000001,1.1420341730117798,8.592789649963379,4.513070106506348,-5.5999755859375,-0.6866455078125,-2.288818359375
8.4899999,1.1444283723831177,8.592789649963379,4.5609540939331055,-7.2021484375,-0.54931640625,-2.4261474609375
8.5099999,1.137245774269104,8.559270858764648,4.616020679473877,-3.1280517578125,2.6702880859375,1.0223388671875
8.5299999,1.1276689767837524,8.561665534973145,4.642356872558594,-1.312255859375,0.1068115234375,-2.25830078125
8.549999900000001,1.1109095811843872,8.571242332458496,4.6040496826171875,-4.33349609375,-4.364013671875,-4.638671875
8.569999900000001,1.1061211824417114,8.583212852478027,4.572925090789795,-1.52587890625,1.5716552734375,-0.0152587890625
8.5899999,1.1037269830703735,8.621520042419434,4.51067590713501,0.3662109375,4.8828125,1.373291015625
8.6099999,1.1109095811843872,8.633491516113281,4.4723687171936035,-3.7689208984375,-0.091552734375,-0.7781982421875
8.629999900000001,1.1204863786697388,8.621520042419434,4.484339714050293,-3.4332275390625,-1.312255859375,-0.9613037109375
8.649999900000001,1.1276689767837524,8.616731643676758,4.46518611907959,-1.6326904296875,-0.42724609375,-0.3204345703125
8.6699999,1.1300631761550903,8.62630844116211,4.436455726623535,-0.7781982421875,2.471923828125,0.091552734375
8.6899999,1.1300631761550903,8.643068313598633,4.41969633102417,-1.190185546875,4.3182373046875,1.007080078125
8.709999900000001,1.1348515748977661,8.652645111083984,4.4508209228515625,-1.15966796875,2.4566650390625,1.5869140625
8.729999900000001,1.137245774269104,8.635885238647461,4.505887508392334,-0.5645751953125,-0.7171630859375,1.8768310546875
8.7499999,1.137245774269104,8.597578048706055,4.563348293304443,0.0152587890625,-0.0762939453125,0.6866455078125
8.7699999,1.1300631761550903,8.561665534973145,4.575319290161133,0.5035400390625,1.1444091796875,-0.579833984375
8.7899999,1.1180921792984009,8.561665534973145,4.572925090789795,0.2899169921875,1.9073486328125,-1.15966796875
8.809999900000001,1.1061211824417114,8.564059257507324,4.577713489532471,0.3509521484375,1.8768310546875,1.6632080078125
8.8299999,1.1013327836990356,8.544905662536621,4.572925090789795,1.495361328125,-0.1068115234375,3.082275390625
8.8499999,1.1061211824417114,8.47786808013916,4.592078685760498,4.0283203125,0.9307861328125,0.732421875
8.8699999,1.113303780555725,8.38688850402832,4.577713489532471,3.96728515625,1.922607421875,-2.349853515625
8.889999900000001,1.1252747774124146,8.367734909057617,4.570530891418457,0.7781982421875,2.25830078125,-4.425048828125
8.9099999,1.137245774269104,8.394071578979492,4.577713489532471,-0.1373291015625,2.99072265625,-0.335693359375
8.9299999,1.1468225717544556,8.492233276367188,4.594472885131836,0.5340576171875,0.3662109375,1.1749267578125
8.9499999,1.1540051698684692,8.576030731201172,4.594472885131836,-0.9002685546875,-2.3040771484375,-0.335693359375
8.969999900000001,1.1516109704971313,8.616731643676758,4.541800498962402,-2.349853515625,-1.739501953125,-0.1373291015625
8.9899999,1.1444283723831177,8.647856712341309,4.508281707763672,0.701904296875,3.8604736328125,-1.0223388671875
9.0099999,1.1300631761550903,8.669404029846191,4.503493309020996,2.0599365234375,4.1046142578125,-0.823974609375
9.0299999,1.113303780555725,8.681375503540039,4.551377296447754,0.3662109375,-1.5869140625,1.1749267578125
9.049999900000001,1.1085153818130493,8.674192428588867,4.606443881988525,0.6866455078125,-4.21142578125,1.739501953125
9.069999900000001,1.113303780555725,8.652645111083984,4.577713489532471,0.79345703125,-2.716064453125,0
9.0899999,1.1252747774124146,8.628703117370605,4.477157115936279,0.2899169921875,1.3885498046875,-0.54931640625
9.1099999,1.139639973640442,8.59997272491455,4.393360137939453,1.190185546875,4.974365234375,1.9683837890625
9.129999900000001,1.1492167711257935,8.59997272491455,4.350264549255371,0.67138671875,2.5177001953125,1.7242431640625
9.149999900000001,1.1516109704971313,8.571242332458496,4.352658748626709,-0.6103515625,-0.213623046875,1.8157958984375
9.1699999,1.1468225717544556,8.51138687133789,4.398148536682129,1.5869140625,3.8299560546875,2.7618408203125
9.1899999,1.1324573755264282,8.425195693969727,4.4508209228515625,3.7078857421875,6.7138671875,0.8697509765625
9.209999900000001,1.1180921792984009,8.35336971282959,4.532223701477051,1.89208984375,4.6539306640625,-2.0751953125
9.229999900000001,1.1037269830703735,8.35336971282959,4.6255974769592285,-0.732421875,1.6326904296875,-3.6773681640625
9.2499999,1.1013327836990356,8.415618896484375,4.683058738708496,-0.1373291015625,0.823974609375,-0.7171630859375
9.2699999,1.1085153818130493,8.51138687133789,4.697423934936523,1.89208984375,2.105712890625,1.678466796875
9.2899999,1.1252747774124146,8.597578048706055,4.656722068786621,2.6702880859375,1.434326171875,0.457763671875
9.309999900000001,1.1348515748977661,8.62391471862793,4.577713489532471,0.1068115234375,-1.190185546875,-0.885009765625
9.3299999,1.137245774269104,8.609549522399902,4.517858505249023,-0.518798828125,0.7171630859375,-0.8544921875
9.3499999,1.1252747774124146,8.62391471862793,4.479551315307617,0.4425048828125,1.1138916015625,-2.7923583984375
9.3699999,1.1037269830703735,8.628703117370605,4.412513732910156,-0.244140625,-3.1890869140625,-2.0904541015625
9.389999900000001,1.0821791887283325,8.676587104797363,4.400542736053467,0.8392333984375,-1.373291015625,-0.9002685546875
9.4099999,1.0630255937576294,8.741230010986328,4.376600742340088,0.5035400390625,1.89208984375,-1.4190673828125
9.4299999,1.0534487962722778,8.78193187713623,4.3406877517700195,-2.899169921875,-1.9073486328125,0.5035400390625
9.4499999,1.05105459690094,8.825027465820312,4.357447147369385,0.3204345703125,0.457763671875,1.007080078125
9.469999900000001,1.0582371950149536,8.798690795898438,4.355052947998047,0.6103515625,0.9613037109375,2.044677734375
9.4899999,1.070208191871643,8.731653213500977,4.381389141082764,-0.1068115234375,1.190185546875,1.4190673828125
9.5099999,1.0821791887283325,8.65982723236084,4.412513732910156,0.7171630859375,1.0528564453125,-1.0986328125
9.5299999,1.091755986213684,8.597578048706055,4.4292731285095215,0.152587890625,-0.2593994140625,-0.8392333984375
9.549999900000001,1.0989385843276978,8.56645393371582,4.4532151222229,-0.244140625,1.708984375,1.739501953125
9.569999900000001,1.1037269830703735,8.542511940002441,4.477157115936279,0.762939453125,3.6163330078125,2.5177001953125
9.5899999,1.1085153818130493,8.528146743774414,4.4939165115356445,-0.9307861328125,1.0223388671875,-0.213623046875
9.6099999,1.113303780555725,8.47786808013916,4.534617900848389,-0.67138671875,0.0457763671875,-0.701904296875
9.629999900000001,1.1180921792984009,8.456320762634277,4.551377296447754,-0.152587890625,0.67138671875,-0.9002685546875
9.649999900000001,1.1204863786697388,8.456320762634277,4.532223701477051,-1.434326171875,0.2288818359375,-1.739501953125
9.6699999,1.1228805780410767,8.501810073852539,4.513070106506348,-1.0223388671875,2.1514892578125,-1.3275146484375
9.6899999,1.1228805780410767,8.554482460021973,4.501099109649658,-0.8392333984375,2.7618408203125,0.79345703125
9.709999900000001,1.1228805780410767,8.621520042419434,4.520252704620361,-1.28173828125,0.579833984375,0.2899169921875
9.729999900000001,1.1204863786697388,8.664615631103516,4.5394062995910645,-1.5716552734375,-1.64794921875,-0.9307861328125
9.7499999,1.1180921792984009,8.69095230102539,4.546588897705078,0.06103515625,-0.91552734375,-0.42724609375
9.7699999,1.115697979927063,8.702922821044922,4.527435302734375,1.0833740234375,1.0833740234375,0.732421875
9.7899999,1.1180921792984009,8.710105895996094,4.486733913421631,-0.1983642578125,0.396728515625,0.335693359375
9.809999900000001,1.1180921792984009,8.678980827331543,4.402936935424805,0.1678466796875,1.739501953125,1.40380859375
9.8299999,1.113303780555725,8.640673637390137,4.398148536682129,1.3580322265625,2.74658203125,0.701904296875
9.8499999,1.1061211824417114,8.607154846191406,4.402936935424805,-0.3662109375,-0.3814697265625,-0.6561279296875
9.8699999,1.0989385843276978,8.578424453735352,4.438849925994873,-0.732421875,-0.3662109375,-0.5950927734375
9.889999900000001,1.0893617868423462,8.561665534973145,4.458003520965576,0.48828125,1.0986328125,0.6256103515625
9.9099999,1.0797849893569946,8.561665534973145,4.4532151222229,-0.457763671875,0.6866455078125,0.1220703125
9.9299999,1.0773907899856567,8.561665534973145,4.460397720336914,-0.701904296875,1.983642578125,-0.2899169921875
9.9499999,1.0797849893569946,8.56645393371582,4.46518611907959,-0.3204345703125,1.77001953125,-0.0152587890625
9.969999900000001,1.0821791887283325,8.583212852478027,4.4723687171936035,-1.15966796875,-0.152587890625,-0.4119873046875
9.9899999,1.0845733880996704,8.604761123657227,4.496310710906982,-0.640869140625,0.67138671875,0.2288818359375
10.0099999,1.0797849893569946,8.631096839904785,4.4939165115356445,-0.4119873046875,0.457763671875,0.335693359375
10.0299999,1.0797849893569946,8.647856712341309,4.486733913421631,-0.3509521484375,0.2899169921875,1.0223388671875
10.049999900000001,1.0821791887283325,8.640673637390137,4.479551315307617,0.1373291015625,1.9073486328125,1.556396484375
10.069999900000001,1.091755986213684,8.62630844116211,4.4532151222229,-1.068115234375,0.9765625,0.1220703125
10.0899999,1.1037269830703735,8.62391471862793,4.424484729766846,-1.739501953125,1.190185546875,-1.0833740234375
10.1099999,1.1180921792984009,8.607154846191406,4.398148536682129,-1.953125,3.1585693359375,1.4801025390625
10.129999900000001,1.1252747774124146,8.621520042419434,4.378994941711426,-1.800537109375,4.669189453125,1.52587890625
10.149999900000001,1.1300631761550903,8.60236644744873,4.41969633102417,-1.28173828125,5.0506591796875,1.434326171875
10.1699999,1.1276689767837524,8.564059257507324,4.467580318450928,-1.312255859375,2.349853515625,0.7171630859375
10.1899999,1.1252747774124146,8.537723541259766,4.532223701477051,-0.8087158203125,0.7171630859375,-1.2054443359375
10.209999900000001,1.1252747774124146,8.470685958862305,4.606443881988525,1.556396484375,3.1585693359375,0.762939453125
10.229999900000001,1.1204863786697388,8.449137687683105,4.632780075073242,0,0.701904296875,-0.8392333984375
10.2499999,1.1180921792984009,8.437167167663574,4.663905143737793,-0.7476806640625,-0.732421875,-2.62451171875
10.2699999,1.113303780555725,8.44434928894043,4.668693542480469,-0.79345703125,-0.152587890625,-0.9765625
10.2899999,1.1085153818130493,8.480262756347656,4.642356872558594,-0.1983642578125,0.0457763671875,-0.3662109375
10.309999900000001,1.1061211824417114,8.525752067565918,4.606443881988525,-0.0762939453125,0.4730224609375,-1.1444091796875
10.3299999,1.1037269830703735,8.571242332458496,4.577713489532471,-0.3509521484375,0.9002685546875,-1.52587890625
10.3499999,1.0989385843276978,8.607154846191406,4.541800498962402,-1.6632080078125,-0.9002685546875,-0.4425048828125
10.3699999,1.094150185585022,8.643068313598633,4.503493309020996,-0.9307861328125,0.030517578125,-0.1068115234375
10.389999900000001,1.0893617868423462,8.681375503540039,4.477157115936279,-0.1068115234375,2.105712890625,-0.7781982421875
10.4099999,1.0869675874710083,8.681375503540039,4.455609321594238,-0.640869140625,1.983642578125,1.1138916015625
10.4299999,1.0869675874710083,8.669404029846191,4.431667327880859,-2.471923828125,-0.6256103515625,1.3275146484375
10.4499999,1.0845733880996704,8.662221908569336,4.417302131652832,-2.7618408203125,0.579833984375,-1.4495849609375
10.469999900000001,1.0845733880996704,8.655038833618164,4.405331134796143,-1.190185546875,3.7078857421875,-0.6256103515625
10.4899999,1.0821791887283325,8.664615631103516,4.398148536682129,-0.48828125,2.777099609375,1.2359619140625
10.5099999,1.0869675874710083,8.678980827331543,4.443638324737549,0.2593994140625,1.8768310546875,1.129150390625
10.5299999,1.0869675874710083,8.671798706054688,4.467580318450928,-1.4801025390625,-0.1068115234375,-0.091552734375
10.549999900000001,1.0869675874710083,8.635885238647461,4.477157115936279,-2.532958984375,0.6866455078125,0.7171630859375
10.569999900000001,1.0821791887283325,8.585607528686523,4.4939165115356445,-0.4425048828125,5.157470703125,0.9613037109375
10.5899999,1.0749965906143188,8.542511940002441,4.49870491027832,-1.28173828125,3.1585693359375,-0.335693359375
10.6099999,1.0654197931289673,8.523358345031738,4.532223701477051,-2.3651123046875,0.5645751953125,-0.8544921875
10.629999900000001,1.0558429956436157,8.485051155090332,4.6040496826171875,0.2288818359375,2.532958984375,1.7547607421875
10.649999900000001,1.048660397529602,8.458714485168457,4.651933670043945,0.91552734375,1.5106201171875,0.7171630859375
10.6699999,1.048660397529602,8.451532363891602,4.687847137451172,-1.8768310546875,-1.03759765625,-3.082275390625
10.6899999,1.0582371950149536,8.437167167663574,4.733336925506592,0.18310546875,1.0223388671875,-0.885009765625
10.709999900000001,1.070208191871643,8.463502883911133,4.697423934936523,-0.885009765625,-1.52587890625,0.5035400390625
10.729999900000001,1.0845733880996704,8.53532886505127,4.642356872558594,-2.0751953125,-1.15966796875,-1.46484375
10.7499999,1.094150185585022,8.549694061279297,4.58968448638916,-0.4425048828125,3.265380859375,1.0223388671875
10.7699999,1.0989385843276978,8.5903959274292,4.546588897705078,-1.6326904296875,1.9683837890625,0.1373291015625
10.7899999,1.0965443849563599,8.592789649963379,4.537012100219727,-2.105712890625,-0.7476806640625,-0.5645751953125
10.809999900000001,1.091755986213684,8.580819129943848,4.568136692047119,-0.335693359375,0.7476806640625,0.9765625
10.8299999,1.0821791887283325,8.5903959274292,4.5609540939331055,-0.79345703125,0.54931640625,-0.885009765625
10.8499999,1.0678139925003052,8.583212852478027,4.5609540939331055,-0.579833984375,1.2359619140625,0.4119873046875
10.8699999,1.0606313943862915,8.559270858764648,4.551377296447754,-0.274658203125,1.9378662109375,2.0904541015625
10.889999900000001,1.0534487962722778,8.542511940002441,4.568136692047119,0.1373291015625,1.6937255859375,-0.030517578125
10.9099999,1.05105459690094,8.49941635131836,4.580107688903809,-0.762939453125,-0.1373291015625,-0.6866455078125
10.9299999,1.0462661981582642,8.47786808013916,4.587290287017822,-1.251220703125,-0.30517578125,-0.18310546875
10.9499999,1.0462661981582642,8.480262756347656,4.580107688903809,-0.5950927734375,1.8463134765625,-0.8697509765625
10.969999900000001,1.05105459690094,8.501810073852539,4.592078685760498,0.8697509765625,3.448486328125,-0.91552734375
10.9899999,1.0654197931289673,8.525752067565918,4.596867084503174,-0.3814697265625,0.732421875,-0.2593994140625
11.0099999,1.0869675874710083,8.559270858764648,4.6040496826171875,-1.4495849609375,-1.0833740234375,-0.42724609375
11.0299999,1.1013327836990356,8.60236644744873,4.60165548324585,-0.8087158203125,1.739501953125,-0.7781982421875
11.049999900000001,1.1037269830703735,8.619126319885254,4.580107688903809,-0.2288818359375,2.7923583984375,1.678466796875
11.069999900000001,1.091755986213684,8.628703117370605,4.570530891418457,0.2288818359375,1.678466796875,2.105712890625
11.0899999,1.0749965906143188,8.607154846191406,4.577713489532471,-0.457763671875,0.5950927734375,0.6256103515625
11.1099999,1.0558429956436157,8.56884765625,4.592078685760498,0.2593994140625,1.5411376953125,0.335693359375
11.129999900000001,1.0438719987869263,8.525752067565918,4.580107688903809,-0.1983642578125,1.2054443359375,0.732421875
11.149999900000001,1.0342950820922852,8.516175270080566,4.580107688903809,-0.457763671875,1.9073486328125,-0.06103515625
11.1699999,1.0319008827209473,8.489839553833008,4.592078685760498,-0.30517578125,2.3193359375,1.15966796875
11.1899999,1.039083480834961,8.480262756347656,4.616020679473877,-0.5950927734375,0.4119873046875,0.7171630859375
11.209999900000001,1.05105459690094,8.482656478881836,4.637568473815918,-0.213623046875,-0.5340576171875,-1.5411376953125
11.229999900000001,1.0678139925003052,8.470685958862305,4.639962673187256,0.091552734375,0.244140625,0.213623046875
11.2499999,1.0845733880996704,8.47547435760498,4.616020679473877,-0.0152587890625,1.251220703125,0.6256103515625
11.2699999,1.1013327836990356,8.49941635131836,4.594472885131836,-1.46484375,1.5716552734375,-1.4495849609375
11.2899999,1.115697979927063,8.516175270080566,4.596867084503174,-0.9918212890625,1.007080078125,-0.8392333984375
11.309999900000001,1.1300631761550903,8.53532886505127,4.606443881988525,-0.6256103515625,-0.0152587890625,0.732421875
11.3299999,1.1563993692398071,8.549694061279297,4.697423934936523,0.152587890625,0.8544921875,-0.2593994140625
11.3499999,1.173158884048462,8.51138687133789,4.774038314819336,0.6103515625,-1.2969970703125,0.244140625
11.3699999,1.194706678390503,8.47786808013916,4.8722004890441895,1.89208984375,-3.0670166015625,-2.3040771484375
11.389999900000001,1.2186486721038818,8.425195693969727,4.987122058868408,3.7689208984375,-3.387451171875,-2.655029296875
11.4099999,1.2425906658172607,8.372523307800293,5.145139217376709,6.9732666015625,-3.570556640625,-1.89208984375
11.4299999,1.259350061416626,8.305485725402832,5.315127849578857,10.6964111328125,-8.4991455078125,-3.6773681640625
11.4499999,1.2617442607879639,8.226476669311523,5.475539207458496,11.8865966796875,-15.289306640625,-6.866455078125
11.469999900000001,1.237802267074585,8.169015884399414,5.580883979797363,13.36669921875,-18.61572265625,-10.5133056640625
11.4899999,1.1851298809051514,8.1139497756958,5.602431774139404,16.8609619140625,-21.1334228515625,-9.8419189453125
11.5099999,1.1037269830703735,8.094796180725098,5.559336185455322,15.1214599609375,-24.7344970703125,-11.5509033203125
11.5299999,0.9840168952941895,7.999027729034424,5.477933406829834,14.2974853515625,-29.8309326171875,-12.6495361328125
11.549999900000001,0.8236053586006165,7.807491779327393,5.489904403686523,22.0947265625,-29.8004150390625,-15.31982421875
11.569999900000001,0.6129156351089478,7.50582218170166,5.669469833374023,31.4178466796875,-32.2418212890625,-23.4832763671875
11.5899999,0.31842881441116333,7.252037048339844,5.96874475479126,31.463623046875,-50.628662109375,-38.0706787109375
11.6099999,-0.05746084079146385,7.273584842681885,6.196194171905518,11.749267578125,-76.0650634765625,-55.816650390625
11.629999900000001,-0.5051765441894531,7.527369976043701,6.196194171905518,3.5858154296875,-85.26611328125,-53.4820556640625
11.649999900000001,-1.0055646896362305,7.915230751037598,6.038176536560059,24.90234375,-76.385498046875,-44.9981689453125
11.6699999,-1.5322890281677246,8.152256965637207,5.839457988739014,40.618896484375,-81.2225341796875,-49.3011474609375
11.6899999,-2.078166961669922,8.200140953063965,5.889736175537109,36.895751953125,-98.8922119140625,-66.5740966796875
11.709999900000001,-2.6168625354766846,8.154650688171387,5.9519853591918945,21.4385986328125,-126.068115234375,-79.437255859375
11.729999900000001,-3.0885202884674072,8.180987358093262,5.9088897705078125,21.0723876953125,-138.4735107421875,-77.7587890625
11.7499999,-3.471592426300049,8.164227485656738,5.70777702331543,39.398193359375,-129.7607421875,-66.9708251953125
11.7699999,-3.754108190536499,8.243236541748047,5.284003257751465,33.7677001953125,-138.427734375,-78.948974609375
11.7899999,-3.9240965843200684,8.346187591552734,4.570530891418457,11.0931396484375,-162.6739501953125,-99.853515625
11.809999900000001,-4.003105163574219,8.588001251220703,3.665522813796997,13.12255859375,-157.9132080078125,-97.0916748046875
11.8299999,-3.950432777404785,9.069235801696777,2.717418909072876,28.961181640625,-125.030517578125,-88.7298583984375
11.8499999,-3.7900211811065674,9.545681953430176,1.680729627609253,22.369384765625,-126.0833740234375,-80.3375244140625
11.8699999,-3.5482068061828613,9.976638793945312,0.8236053586006165,6.04248046875,-137.664794921875,-83.587646484375
11.889999900000001,-3.270479440689087,10.316615104675293,0.12689268589019775,6.8511962890625,-115.234375,-84.5489501953125
11.9099999,-3.0142998695373535,10.515334129333496,-0.6416460275650024,1.0986328125,-96.3897705078125,-75.469970703125
11.9299999,-2.786850690841675,10.685321807861328,-1.1755530834197998,-10.406494140625,-76.0498046875,-68.29833984375
11.9499999,-2.607285737991333,10.584765434265137,-1.3958195447921753,-17.730712890625,-56.365966796875,-62.98828125
11.969999900000001,-2.497152328491211,10.529699325561523,-1.4532804489135742,-29.3121337890625,-60.516357421875,-72.8912353515625
11.9899999,-2.4660277366638184,10.706870079040527,-1.4844050407409668,-31.5704345703125,-62.7288818359375,-85.4949951171875
12.0099999,-2.5258827209472656,11.05402946472168,-1.9177556037902832,-23.162841796875,-55.0994873046875,-55.0079345703125
12.0299999,-2.628833532333374,11.578359603881836,-2.940079689025879,-33.0657958984375,-27.5421142578125,-25.08544921875
12.049999900000001,-2.75812029838562,11.947066307067871,-3.9624037742614746,-56.1065673828125,34.5458984375,-20.32470703125
12.069999900000001,-2.8658595085144043,12.064382553100586,-4.199429988861084,-22.4609375,109.954833984375,-13.5955810546875
12.0899999,-2.980781078338623,12.00452709197998,-3.4189200401306152,-10.80322265625,98.7548828125,0.1983642578125
12.1099999,-3.0573954582214355,11.75553035736084,-2.0183119773864746,-37.109375,49.4232177734375,20.3399658203125
12.129999900000001,-3.064578056335449,11.382035255432129,-0.9911994934082031,-68.267822265625,47.7142333984375,26.5960693359375
12.149999900000001,-3.066972494125366,11.058817863464355,-0.8858546018600464,-50.8575439453125,116.8212890625,11.8408203125
12.1699999,-3.0095114707946777,10.673351287841797,-1.237802267074585,-6.0577392578125,205.780029296875,41.900634765625
12.1899999,-2.8874073028564453,10.407594680786133,-1.278503656387329,-9.4757080078125,230.7281494140625,74.8443603515625
12.209999900000001,-2.6360161304473877,9.99339771270752,-0.7110779285430908,-51.177978515625,193.084716796875,87.677001953125
12.229999900000001,-2.161964178085327,9.586383819580078,0.36152446269989014,-70.1751708984375,185.6842041015625,77.45361328125
12.2499999,-1.460463047027588,9.011775016784668,1.522712230682373,-49.3621826171875,214.7979736328125,81.1920166015625
12.2699999,-0.6344634294509888,8.671798706054688,2.669534921646118,-29.7088623046875,228.4088134765625,87.1734619140625
12.289999900000002,0.181959331035614,8.959102630615234,3.993528366088867,-46.7071533203125,213.043212890625,67.5506591796875
12.309999900000001,0.912190854549408,9.457097053527832,5.571307182312012,-78.5675048828125,188.323974609375,91.8121337890625
12.3299999,1.4891934394836426,9.952696800231934,7.38132381439209,-63.8275146484375,186.2640380859375,142.9595947265625
12.3499999,1.9033904075622559,10.007762908935547,9.105149269104004,-41.07666015625,160.6292724609375,137.2222900390625
12.3699999,2.1523873805999756,9.485827445983887,10.376470565795898,-22.6898193359375,111.2060546875,97.0001220703125
12.389999900000001,2.1595699787139893,8.769960403442383,11.077971458435059,-16.1895751953125,94.1162109375,74.188232421875
12.4099999,1.9776105880737305,8.094796180725098,11.432312965393066,-11.04736328125,106.292724609375,89.324951171875
12.4299999,1.6328455209732056,7.6351094245910645,11.429919242858887,-27.313232421875,70.80078125,88.5467529296875
12.4499999,1.1971008777618408,7.264008045196533,11.202469825744629,-30.6549072265625,12.4359130859375,65.4296875
12.469999900000001,0.7038952708244324,7.163451671600342,10.5344877243042,-31.402587890625,-2.86865234375,42.4346923828125
12.4899999,0.2298433631658554,7.249642848968506,9.560047149658203,-44.4793701171875,24.9481201171875,54.9468994140625
12.5099999,-0.17477671802043915,7.364564418792725,8.83699893951416,-39.0167236328125,47.7142333984375,81.4666748046875
12.5299999,-0.5027823448181152,7.338228225708008,8.31985092163086,-41.717529296875,-1.4495849609375,68.3441162109375
12.549999900000001,-0.6991068720817566,6.919242858886719,7.829039573669434,-43.5638427734375,-53.802490234375,41.8853759765625
12.569999900000001,-0.8523358106613159,6.44279670715332,7.273584842681885,-35.7818603515625,-13.275146484375,29.5867919921875
12.5899999,-1.01753568649292,5.92325496673584,6.799532890319824,-30.6549072265625,44.9981689453125,38.177490234375
12.6099999,-1.2186486721038818,5.518634796142578,6.615179061889648,-33.1573486328125,14.312744140625,34.24072265625
12.629999900000001,-1.5059528350830078,5.1810526847839355,6.7061591148376465,-28.8543701171875,-49.1943359375,4.119873046875
12.649999900000001,-1.8555063009262085,5.011064052581787,6.789956092834473,-8.9569091796875,-36.3922119140625,-16.1590576171875
12.6699999,-2.2673089504241943,5.109226226806641,6.854599475860596,-1.89208984375,18.096923828125,-19.805908203125
12.6899999,-2.7293899059295654,5.456385612487793,7.184999465942383,4.0435791015625,12.5274658203125,-22.94921875
12.709999900000001,-3.201047658920288,6.1052141189575195,7.745242595672607,14.1448974609375,-64.300537109375,-45.8831787109375
12.729999900000001,-3.6296098232269287,7.036558628082275,7.994239330291748,7.537841796875,-121.5972900390625,-67.81005859375
12.7499999,-3.955221176147461,8.149862289428711,7.568071365356445,11.3067626953125,-92.22412109375,-49.6368408203125
12.7699999,-4.113238334655762,9.078812599182129,6.660669326782227,30.426025390625,-52.764892578125,-9.8419189453125
12.789999900000002,-4.156333923339844,9.586383819580078,5.7125654220581055,36.56005859375,-80.718994140625,-8.9263916015625
12.809999900000001,-4.132391929626465,9.634267807006836,5.0685248374938965,23.773193359375,-126.7242431640625,-38.5589599609375
12.8299999,-4.307168960571289,8.995016098022461,4.165910720825195,46.9818115234375,-96.2677001953125,-17.76123046875
12.8499999,-4.546588897705078,8.604761123657227,4.0964789390563965,58.7158203125,-90.7745361328125,-13.9617919921875
12.8699999,-4.876988887786865,8.159439086914062,4.436455726623535,44.86083984375,-122.0855712890625,-35.552978515625
12.889999900000001,-5.264849662780762,7.817068576812744,5.161899089813232,26.9775390625,-148.7884521484375,-53.985595703125
12.9099999,-5.669469833374023,7.544129371643066,5.904101371765137,39.7491455078125,-158.8897705078125,-46.875
12.9299999,-6.069301128387451,7.3885064125061035,6.119579315185547,57.6934814453125,-187.591552734375,-44.6624755859375
12.9499999,-6.421248912811279,7.343016624450684,5.7125654220581055,59.844970703125,-207.6873779296875,-68.4967041015625
12.969999900000001,-6.615179061889648,7.395689010620117,4.838681697845459,52.9632568359375,-196.014404296875,-83.404541015625
12.9899999,-6.675034523010254,7.570465564727783,3.957615375518799,58.4564208984375,-178.466796875,-72.174072265625
13.0099999,-6.646304130554199,7.781155586242676,3.0597896575927734,51.4373779296875,-207.7484130859375,-66.40625
13.0299999,-6.538564682006836,8.125920295715332,2.2433669567108154,26.7181396484375,-236.8621826171875,-94.970703125
13.049999900000001,-6.387730121612549,8.640673637390137,1.2665326595306396,17.51708984375,-220.062255859375,-120.8648681640625
13.069999900000001,-6.112396717071533,9.411606788635254,0.0454898327589035,23.590087890625,-185.1806640625,-101.5167236328125
13.0899999,-5.652710437774658,10.14902114868164,-1.0342950820922852,17.5323486328125,-166.6259765625,-66.070556640625
13.1099999,-5.0900726318359375,10.51054573059082,-1.6687586307525635,17.974853515625,-158.1573486328125,-64.4989013671875
13.129999900000001,-4.541800498962402,10.553641319274902,-2.013523578643799,12.5274658203125,-160.125732421875,-105.3314208984375
13.149999900000001,-4.10366153717041,10.436325073242188,-2.2577321529388428,3.2958984375,-157.135009765625,-121.7803955078125
13.1699999,-3.794809579849243,10.548852920532227,-2.4660277366638184,9.5977783203125,-124.0997314453125,-94.3603515625
13.1899999,-3.5889084339141846,10.828974723815918,-2.6815059185028076,-4.8065185546875,-100.4180908203125,-64.8956298828125
13.209999900000001,-3.3877954483032227,10.92953109741211,-2.698265314102173,-34.881591796875,-88.1805419921875,-59.3414306640625
13.229999900000001,-3.1962592601776123,10.876858711242676,-2.518700122833252,-37.1551513671875,-70.7550048828125,-68.4051513671875
13.2499999,-3.0358476638793945,10.752359390258789,-2.2361843585968018,-24.35302734375,-53.924560546875,-63.9190673828125
13.2699999,-2.9089550971984863,10.697293281555176,-1.8291701078414917,-27.496337890625,-37.9791259765625,-35.2935791015625
13.289999900000002,-2.868253707885742,10.805032730102539,-1.314416766166687,-33.99658203125,-27.5726318359375,-19.4854736328125
13.309999900000001,-2.9472622871398926,10.955866813659668,-1.0821791887283325,-42.78564453125,-40.4510498046875,-18.7835693359375
13.3299999,-3.0813376903533936,11.161767959594727,-1.1252747774124146,-33.7982177734375,-31.5093994140625,-17.9290771484375
13.3499999,-3.2632968425750732,11.51611042022705,-1.6855180263519287,-27.008056640625,2.62451171875,-14.3280029296875
13.3699999,-3.4189200401306152,11.911153793334961,-2.513911724090576,-30.8990478515625,35.8734130859375,8.697509765625
13.389999900000001,-3.514688014984131,12.368446350097656,-3.1483752727508545,-21.697998046875,77.880859375,26.519775390625
13.4099999,-3.512293815612793,12.521675109863281,-3.31118106842041,-17.364501953125,101.7303466796875,48.5382080078125
13.4299999,-3.3925838470458984,12.22000503540039,-2.9712042808532715,-8.392333984375,117.279052734375,66.2384033203125
13.4499999,-3.155557870864868,11.39400577545166,-2.494758129119873,-11.3525390625,127.044677734375,63.1103515625
13.469999900000001,-2.849100112915039,10.285490036010742,-1.946485996246338,-6.6986083984375,157.71484375,48.6602783203125
13.4899999,-2.4612393379211426,9.279925346374512,-1.4389152526855469,-1.983642578125,197.4029541015625,42.4652099609375
13.5099999,-2.0015525817871094,8.932766914367676,-0.9409212470054626,-32.501220703125,205.718994140625,48.2177734375
13.5299999,-1.45806884765625,9.026140213012695,-0.28969839215278625,-56.365966796875,210.3118896484375,83.526611328125
13.549999900000001,-0.8236053586006165,9.078812599182129,0.4165911078453064,-58.65478515625,222.1221923828125,119.81201171875
13.569999900000001,-0.15801730751991272,8.916007041931152,1.2761094570159912,-41.046142578125,240.2191162109375,93.9788818359375
13.5899999,0.5027823448181152,8.779537200927734,2.434903144836426,-27.130126953125,248.9013671875,38.238525390625
13.6099999,1.113303780555725,9.038111686706543,3.6607344150543213,-36.7279052734375,219.3603515625,40.069580078125
13.629999900000001,1.6208745241165161,9.861717224121094,4.6471452713012695,-53.89404296875,183.6395263671875,94.3603515625
13.649999900000001,1.9608511924743652,10.96544361114502,5.2911858558654785,-70.159912109375,188.385009765625,122.7569580078125
13.6699999,2.1571757793426514,11.398794174194336,5.985504150390625,-40.740966796875,224.9755859375,138.8702392578125
13.6899999,2.2816741466522217,10.989385604858398,7.141903877258301,-8.1939697265625,217.376708984375,140.899658203125
13.709999900000001,2.4157495498657227,10.096348762512207,8.367734909057617,-29.1900634765625,113.433837890625,99.2584228515625
13.729999900000001,2.5330653190612793,9.14585018157959,9.215282440185547,-80.2764892578125,40.069580078125,71.7620849609375
13.7499999,2.612074136734009,8.288725852966309,9.770736694335938,-27.64892578125,109.2681884765625,106.109619140625
13.7699999,2.542642116546631,7.608773231506348,9.744400978088379,-2.655029296875,113.7847900390625,109.0087890625
13.789999900000002,2.2888567447662354,6.7492547035217285,9.29189682006836,-23.2391357421875,15.8538818359375,78.338623046875
13.809999900000001,1.8914192914962769,6.145915985107422,8.571242332458496,-37.078857421875,-6.439208984375,32.3638916015625
13.8299999,1.3910311460494995,6.124367713928223,7.778761386871338,-39.6575927734375,74.3255615234375,20.294189453125
13.8499999,0.849941611289978,6.66785192489624,7.19936466217041,-32.806396484375,95.5352783203125,63.262939453125
13.8699999,0.31364041566848755,7.618350028991699,6.847416877746582,-33.2489013671875,10.162353515625,86.0595703125
13.889999900000001,-0.20350714027881622,8.56645393371582,6.402095317840576,-30.8074951171875,-32.562255859375,70.5108642578125
13.9099999,-0.706289529800415,9.222464561462402,5.592854976654053,-35.33935546875,44.86083984375,72.5555419921875
13.9299999,-1.2066776752471924,9.141061782836914,4.862623691558838,-34.60693359375,130.615234375,118.0267333984375
13.9499999,-1.623268723487854,8.29590892791748,4.963180065155029,-42.3431396484375,102.72216796875,115.3564453125
13.969999900000001,-1.9536685943603516,6.828263282775879,6.2847795486450195,-27.557373046875,42.1142578125,41.6717529296875
13.9899999,-2.190694570541382,5.2672438621521,8.35097599029541,-12.7716064453125,18.798828125,-18.0816650390625
14.0099999,-2.406172752380371,4.1180267333984375,10.445901870727539,20.4315185546875,5.9967041015625,-18.768310546875
14.0299999,-2.698265314102173,3.9193081855773926,12.069170951843262,56.060791015625,-47.576904296875,-34.3170166015625
14.049999900000001,-3.1052796840667725,4.58968448638916,12.988544464111328,72.357177734375,-113.5711669921875,-73.30322265625
14.069999900000001,-3.6343982219696045,5.6910176277160645,12.854469299316406,98.8616943359375,-154.4036865234375,-68.0389404296875
14.0899999,-4.244919776916504,6.873753070831299,11.597513198852539,123.2452392578125,-181.1370849609375,-35.980224609375
14.1099999,-4.888959884643555,8.176198959350586,9.435548782348633,98.7396240234375,-197.4029541015625,-54.0771484375
14.129999900000001,-5.480327606201172,9.227252960205078,6.823474884033203,47.36328125,-206.8328857421875,-72.265625
14.149999900000001,-5.937620162963867,9.720458984375,4.443638324737549,35.2783203125,-188.873291015625,-28.9459228515625
14.1699999,-6.2416839599609375,9.674968719482422,2.7916390895843506,40.008544921875,-173.431396484375,-12.7105712890625
14.1899999,-6.387730121612549,9.370905876159668,1.944091796875,25.1617431640625,-195.3582763671875,-67.840576171875
14.209999900000001,-6.430825710296631,8.80587387084961,1.525106430053711,12.7410888671875,-226.3031005859375,-87.9974365234375
14.229999900000001,-6.387730121612549,8.276755332946777,1.1420341730117798,20.5230712890625,-214.9810791015625,-50.5218505859375
14.2499999,-6.358999729156494,8.339004516601562,0.7374141216278076,36.4990234375,-164.24560546875,-58.441162109375
14.2699999,-6.315904140472412,8.937555313110352,0.19393034279346466,8.4228515625,-171.6461181640625,-95.4437255859375
14.289999900000002,-6.289567947387695,9.986215591430664,-0.45489832758903503,-12.6190185546875,-201.995849609375,-70.4498291015625
14.309999900000001,-6.196194171905518,11.42752456665039,-1.2880805730819702,-12.7716064453125,-189.910888671875,-22.7813720703125
14.3299999,-5.901707172393799,12.629413604736328,-2.205059766769409,-19.775390625,-132.32421875,3.35693359375
14.3499999,-4.548983097076416,12.045228958129883,-2.9664158821105957,-37.139892578125,-99.6246337890625,14.2822265625
14.3699999,-3.624821424484253,10.536881446838379,-2.315192937850952,-47.30224609375,-93.231201171875,-2.532958984375
14.389999900000001,-2.719813108444214,8.93037223815918,-1.2880805730819702,-56.0760498046875,-89.6148681640625,-20.965576171875
14.4099999,-1.9393033981323242,8.015787124633789,-0.2968810200691223,-51.025390625,-81.6192626953125,-43.853759765625
14.4299999,-1.3192051649093628,7.836222171783447,0.1628057211637497,-63.720703125,-83.6944580078125,-37.8570556640625
14.4499999,-0.8379706144332886,8.29830265045166,0.5937620401382446,-53.985595703125,-47.6531982421875,-14.434814453125
14.469999900000001,-0.45489832758903503,8.858546257019043,0.7230489253997803,-62.774658203125,-34.393310546875,-11.749267578125
14.4899999,-0.12210428714752197,9.124302864074707,0.9169792532920837,-77.81982421875,-48.52294921875,-25.238037109375
14.5099999,0.16998831927776337,9.093177795410156,0.9816226959228516,-76.9500732421875,-41.7022705078125,-36.7584228515625
14.5299999,0.3998316824436188,8.729259490966797,0.7589619159698486,-85.9832763671875,-19.561767578125,-32.9132080078125
14.549999900000001,0.5722141861915588,8.753201484680176,0.5003881454467773,-82.061767578125,13.8397216796875,-56.8084716796875
14.569999900000001,0.6344634294509888,9.272743225097656,-0.11013327538967133,-76.202392578125,6.805419921875,-80.3680419921875
14.5899999,0.5506663918495178,10.177751541137695,-0.9074024558067322,-60.11962890625,2.99072265625,-48.9654541015625
14.6099999,0.31124621629714966,11.54005241394043,-1.7405846118927002,-49.74365234375,60.6231689453125,-22.0947265625
14.629999900000001,-0.038307227194309235,12.576741218566895,-2.051830768585205,-47.2564697265625,129.913330078125,-6.9732666015625
14.649999900000001,-0.43335050344467163,12.7946138381958,-1.778891921043396,-44.2352294921875,123.046875,7.5531005859375
14.6699999,-0.8212111592292786,12.787431716918945,-1.1444283723831177,-44.4488525390625,85.052490234375,-21.2860107421875
14.6899999,-1.2306196689605713,12.926295280456543,-0.4141969084739685,-25.115966796875,122.7874755859375,-40.1611328125
14.709999900000001,-1.6855180263519287,13.323732376098633,-0.1604115068912506,-4.669189453125,181.4117431640625,26.0162353515625
14.729999900000001,-2.1332337856292725,13.615824699401855,-0.06224924325942993,-0.9918212890625,197.2808837890625,101.9439697265625
14.7499999,-2.473210334777832,13.527239799499512,0.18914192914962769,16.937255859375,200.8209228515625,91.4764404296875
14.7699999,-2.6192567348480225,12.890381813049316,0.6536170840263367,35.6597900390625,216.461181640625,53.7261962890625
14.789999900000002,-2.516305923461914,11.975796699523926,1.4772224426269531,50.0030517578125,243.621826171875,72.3114013671875
14.809999900000001,-2.1739351749420166,11.113883972167969,2.3989901542663574,53.3905029296875,228.8665771484375,105.89599609375
14.8299999,-1.6352397203445435,10.144232749938965,3.2369606494903564,51.8341064453125,192.047119140625,99.365234375
14.8499999,-0.9624691009521484,9.093177795410156,3.620033025741577,49.4842529296875,184.4329833984375,65.2923583984375
14.8699999,-0.2944868206977844,8.279149055480957,3.488351821899414,46.8902587890625,205.7647705078125,49.9725341796875
14.889999900000001,0.26336219906806946,7.8529815673828125,3.339911460876465,32.8369140625,226.2725830078125,70.1446533203125
14.9099999,0.6823474764823914,7.671022415161133,3.5889084339141846,28.839111328125,217.8497314453125,91.766357421875
14.9299999,0.9385270476341248,7.663839817047119,4.153939723968506,34.515380859375,175.140380859375,60.4705810546875
14.9499999,1.0295066833496094,8.054094314575195,4.819528102874756,9.33837890625,153.62548828125,14.6331787109375
14.969999900000001,0.9648633003234863,8.631096839904785,5.52821159362793,-17.39501953125,183.837890625,44.769287109375
14.9899999,0.8068459630012512,9.265560150146484,6.325480937957764,-17.3492431640625,188.1103515625,95.611572265625
15.0099999,0.5913678407669067,9.75397777557373,7.287950038909912,22.3541259765625,141.4642333984375,70.343017578125
15.0299999,0.3232172429561615,10.038887977600098,8.200140953063965,15.9759521484375,92.987060546875,22.1405029296875
15.049999900000001,0.10295066982507706,9.931148529052734,9.064447402954102,-42.6177978515625,97.015380859375,47.088623046875
15.069999900000001,-0.12928688526153564,9.75397777557373,9.871294021606445,-47.8515625,97.5341796875,76.2939453125
15.0899999,-0.4165911078453064,9.624691009521484,10.560823440551758,21.331787109375,41.4276123046875,42.9229736328125
15.1099999,-0.7781155705451965,9.725247383117676,10.647014617919922,17.5018310546875,-26.2298583984375,10.528564453125
15.129999900000001,-1.194706678390503,9.876082420349121,10.773907661437988,-32.6080322265625,19.866943359375,53.7109375
15.149999900000001,-1.6280571222305298,10.201693534851074,10.656591415405273,-45.47119140625,51.69677734375,91.1407470703125
15.1699999,-1.965639591217041,10.204087257385254,10.345345497131348,-50.2166748046875,-44.9981689453125,59.08203125
15.1899999,-2.1499931812286377,9.641449928283691,9.849745750427246,-23.9105224609375,-97.7020263671875,41.7327880859375
15.209999900000001,-2.2673089504241943,8.686163902282715,8.712499618530273,-13.0157470703125,-51.1932373046875,50.933837890625
15.229999900000001,-2.425326347351074,7.532158374786377,7.457938194274902,-42.083740234375,3.0975341796875,45.6390380859375
15.2499999,-2.6791117191314697,6.550535678863525,6.75883150100708,-74.9359130859375,-19.287109375,-0.1678466796875
15.2699999,-3.0813376903533936,5.91128396987915,6.9240312576293945,-60.5316162109375,-85.693359375,-34.9578857421875
15.289999900000002,-3.6128504276275635,5.6670756340026855,7.568071365356445,-0.335693359375,-106.3995361328125,-21.2554931640625
15.309999900000001,-4.220977783203125,6.033388137817383,8.02536392211914,35.614013671875,-103.8360595703125,-25.543212890625
15.3299999,-4.841075897216797,6.72531270980835,7.948749542236328,42.4652099609375,-124.2218017578125,-45.3338623046875
15.3499999,-5.39174222946167,7.445967197418213,7.402871608734131,56.793212890625,-158.8134765625,-34.4696044921875
15.3699999,-5.817910194396973,8.020575523376465,6.540958881378174,95.916748046875,-171.9970703125,-8.4075927734375
15.389999900000001,-6.186617374420166,8.24084186553955,5.363011837005615,103.302001953125,-185.5316162109375,-11.16943359375
15.4099999,-6.519411087036133,8.097189903259277,4.01268196105957,77.69775390625,-203.4759521484375,-31.8603515625
15.4299999,-6.861782073974609,7.94635534286499,2.9065608978271484,47.1343994140625,-198.822021484375,-50.0030517578125
15.4499999,-7.194576263427734,8.006210327148438,2.03507137298584,25.726318359375,-203.06396484375,-43.5638427734375
15.469999900000001,-7.424419403076172,8.341399192810059,1.5155296325683594,17.9901123046875,-222.9156494140625,-32.4249267578125
15.4899999,-7.51779317855835,8.686163902282715,1.1994950771331787,35.9954833984375,-234.19189453125,-25.6500244140625
15.5099999,-7.503427982330322,8.923190116882324,0.7398083209991455,36.773681640625,-239.4866943359375,-29.9072265625
15.5299999,-7.3669586181640625,9.074024200439453,0.090979665517807,-8.11767578125,-231.475830078125,-39.8712158203125
15.549999900000001,-7.184999465942383,9.277531623840332,-0.5363011956214905,-25.787353515625,-204.9560546875,-37.994384765625
15.569999900000001,-6.97430944442749,9.643844604492188,-0.9696516990661621,-14.3585205078125,-197.4334716796875,-32.3944091796875
15.5899999,-6.715735912322998,9.804255485534668,-1.1516109704971313,-13.7176513671875,-209.197998046875,-22.1405029296875
15.6099999,-6.452373504638672,9.945513725280762,-1.2545616626739502,-12.51220703125,-213.19580078125,-37.78076171875
15.629999900000001,-6.165069580078125,10.134655952453613,-1.601720929145813,-4.241943359375,-204.3304443359375,-62.042236328125
15.649999900000001,-5.822698593139648,10.374075889587402,-2.212242364883423,-3.4332275390625,-182.1136474609375,-41.50390625
15.6699999,-5.4013190269470215,10.663774490356445,-2.7078421115875244,0.5035400390625,-150.299072265625,-13.031005859375
15.6899999,-4.95120906829834,10.551246643066406,-3.002328872680664,9.735107421875,-143.4478759765625,-11.9781494140625
15.709999900000001,-4.503493309020996,10.496180534362793,-3.2106244564056396,4.9285888671875,-160.6903076171875,-52.6580810546875
15.729999900000001,-4.098873138427734,9.411606788635254,-3.8498764038085938,-9.9945068359375,-167.3431396484375,-2.1514892578125
15.7499999,-3.713406801223755,8.592789649963379,-4.534617900848389,-20.050048828125,-100.9063720703125,-14.5263671875
15.7699999,-3.332728862762451,7.960720539093018,-5.549759387969971,-16.448974609375,-58.7921142578125,-97.900390625
15.789999900000002,-2.978386878967285,7.285555839538574,-6.18182897567749,-16.082763671875,-46.3714599609375,-68.42041015625
15.809999900000001,-2.691082715988159,8.044517517089844,-6.2632317543029785,-52.91748046875,-6.103515625,-96.2371826171875
15.8299999,-2.473210334777832,9.387664794921875,-6.3063273429870605,-102.447509765625,8.72802734375,-93.658447265625
15.8499999,-2.3247697353363037,11.106701850891113,-6.01423454284668,-39.093017578125,63.018798828125,-22.64404296875
15.869999900000002,-2.0398597717285156,12.600683212280273,-4.9152960777282715,-7.2174072265625,138.0157470703125,-2.13623046875
15.889999900000001,-1.867477297782898,11.875240325927734,-3.3662476539611816,-32.928466796875,164.55078125,-21.8505859375
15.9099999,-1.6328455209732056,10.376470565795898,-1.2018892765045166,-53.4210205078125,138.702392578125,8.1634521484375
15.9299999,-1.3239935636520386,8.820239067077637,1.3239935636520386,-56.884765625,98.175048828125,-1.2664794921875
15.9499999,-0.9888052940368652,7.467514991760254,3.5266590118408203,-54.1534423828125,64.51416015625,-42.0379638671875
15.969999900000001,-0.6488286852836609,6.624756336212158,4.881777286529541,-72.174072265625,31.768798828125,-55.6182861328125
15.9899999,-0.2561795711517334,6.785167694091797,4.841075897216797,-101.8218994140625,4.150390625,-52.1240234375
16.0099999,0.12689268589019775,7.565677165985107,3.31118106842041,-122.4822998046875,8.6669921875,-41.2139892578125
16.0299999,0.4644751250743866,8.592789649963379,1.2473790645599365,-50.018310546875,102.569580078125,-22.9339599609375
16.0499999,0.706289529800415,9.799467086791992,-0.8547300100326538,1.0528564453125,167.4041748046875,-38.14697265625
16.0699999,0.6847416758537292,11.061211585998535,-2.3942017555236816,-41.07666015625,138.36669921875,-36.163330078125
16.089999900000002,0.49320554733276367,12.452242851257324,-2.6408045291900635,-41.0308837890625,165.3594970703125,10.3302001953125
16.109999900000002,0.2298433631658554,13.512874603271484,-1.9823989868164062,-21.4385986328125,199.3865966796875,62.6983642578125
16.1299999,0.021547814831137657,13.694833755493164,-0.811634361743927,-18.9361572265625,165.4052734375,79.254150390625
16.1499999,-0.07422025501728058,13.314155578613281,0.5386953949928284,-29.5867919921875,126.861572265625,38.2843017578125
16.1699999,-0.08858546614646912,12.792220115661621,1.7525556087493896,-31.951904296875,142.8985595703125,18.9666748046875
16.1899999,-0.038307227194309235,12.435483932495117,2.8562827110290527,-6.2255859375,173.2025146484375,72.6470947265625
16.2099999,0.011971008032560349,12.33253288269043,3.7612907886505127,1.434326171875,144.561767578125,108.0322265625
16.2299999,0.026336219161748886,12.076353073120117,4.259284973144531,-11.810302734375,85.4339599609375,87.9058837890625
16.249999900000002,-0.038307227194309235,11.70046329498291,4.321534156799316,3.387451171875,100.7537841796875,63.4765625
16.269999900000002,-0.19393034279346466,11.44907283782959,4.07014274597168,4.39453125,145.6298828125,76.6754150390625
16.2899999,-0.4381389021873474,11.013327598571777,3.84269380569458,-27.1759033203125,127.6397705078125,129.4097900390625
16.3099999,-0.6775590777397156,10.285490036010742,4.015076160430908,-29.6630859375,82.366943359375,134.1094970703125
16.3299999,-0.8834604024887085,9.32302188873291,4.2760443687438965,-0.732421875,71.5179443359375,73.6236572265625
16.3499999,-1.072602391242981,8.463502883911133,4.551377296447754,-1.983642578125,94.4061279296875,46.0662841796875
16.3699999,-1.2258312702178955,7.795520782470703,4.932055473327637,-19.744873046875,107.025146484375,87.34130859375
16.3899999,-1.3694833517074585,7.417236804962158,5.3127336502075195,-26.91650390625,58.5174560546875,89.569091796875
16.4099999,-1.5131354331970215,7.0557122230529785,5.382165431976318,2.166748046875,18.218994140625,36.2548828125
16.429999900000002,-1.702277421951294,7.139509677886963,5.142745018005371,15.44189453125,48.126220703125,-5.6304931640625
16.4499999,-1.946485996246338,7.465120792388916,4.6950297355651855,-20.843505859375,86.9293212890625,32.53173828125
16.4699999,-2.205059766769409,7.9415669441223145,4.350264549255371,-54.1229248046875,50.4302978515625,70.4193115234375
16.4899999,-2.4468741416931152,8.358158111572266,4.256890773773193,-11.322021484375,6.2103271484375,23.162841796875
16.5099999,-2.6815059185028076,8.638279914855957,3.885789394378662,30.33447265625,1.373291015625,-22.552490234375
16.5299999,-2.846705913543701,8.999804496765137,3.5003228187561035,12.786865234375,46.173095703125,8.72802734375
16.5499999,-2.937685489654541,9.354146003723145,3.272873640060425,-14.373779296875,66.6351318359375,61.004638671875
16.5699999,-2.920926094055176,9.454702377319336,3.3423056602478027,-30.731201171875,4.669189453125,41.1224365234375
16.589999900000002,-2.7748796939849854,9.062053680419922,3.5027170181274414,-10.1165771484375,-35.3546142578125,-7.14111328125
16.609999900000002,-2.585737943649292,8.621520042419434,3.445256233215332,20.751953125,-7.720947265625,-19.561767578125
16.6299999,-2.4181437492370605,8.508993148803711,3.1316158771514893,21.270751953125,19.744873046875,-1.9378662109375
16.6499999,-2.3127987384796143,8.700529098510742,2.779668092727661,-12.9241943359375,-6.9732666015625,8.1024169921875
16.6699999,-2.255337953567505,9.148244857788086,2.5019407272338867,-30.3497314453125,-36.1328125,-11.383056640625
16.6899999,-2.1978771686553955,9.627084732055664,2.315192937850952,-10.5743408203125,-22.6287841796875,-19.3328857421875
16.7099999,-2.126051187515259,10.022128105163574,1.98958158493042,15.93017578125,-5.7525634765625,2.8839111328125
16.7299999,-1.9991583824157715,10.436325073242188,1.6280571222305298,11.8560791015625,-19.927978515625,8.148193359375
16.749999900000002,-1.8148049116134644,10.65898609161377,1.3718775510787964,4.8065185546875,-24.9786376953125,0.457763671875
16.769999900000002,-1.580173134803772,10.565611839294434,1.0821791887283325,3.753662109375,-20.1568603515625,8.026123046875
16.7899999,-1.3192051649093628,10.268731117248535,0.8236053586006165,14.495849609375,-9.368896484375,13.1683349609375
16.8099999,-1.0534487962722778,9.907206535339355,0.6177040338516235,23.9410400390625,-1.9989013671875,1.5869140625
16.8299999,-0.8044517636299133,9.550470352172852,0.5554547905921936,16.143798828125,-2.2125244140625,-3.3416748046875
16.8499999,-0.5961562395095825,9.337387084960938,0.6823474764823914,4.82177734375,2.1514892578125,3.3111572265625
16.8699999,-0.4357447028160095,9.244012832641602,0.8690952062606812,-5.950927734375,1.40380859375,8.3770751953125
16.8899999,-0.31124621629714966,9.23682975769043,1.1276689767837524,-4.730224609375,2.685546875,3.6773681640625
16.9099999,-0.21787235140800476,9.174580574035645,1.3910311460494995,3.387451171875,5.584716796875,0.701904296875
16.929999900000002,-0.15322890877723694,9.186552047729492,1.6759412288665771,6.0882568359375,7.2021484375,-1.0833740234375
16.9499999,-0.1149216815829277,9.289502143859863,1.946485996246338,-3.173828125,4.302978515625,-2.1514892578125
16.9699999,-0.090979665517807,9.476250648498535,2.1811177730560303,-8.3770751953125,0.885009765625,3.2958984375
16.9899999,-0.06224924325942993,9.624691009521484,2.367865562438965,-4.1656494140625,1.953125,9.7503662109375
17.0099999,-0.011971008032560349,9.6989107131958,2.4684219360351562,0.762939453125,2.3193359375,9.1400146484375
17.0299999,0.05506663769483566,9.648633003234863,2.477998733520508,0.2288818359375,-0.1220703125,4.852294921875
17.0499999,0.1364694982767105,9.548076629638672,2.4372973442077637,-3.753662109375,0.1983642578125,4.3487548828125
17.0699999,0.22266076505184174,9.437943458557129,2.365471363067627,-5.2490234375,2.25830078125,5.6610107421875
17.089999900000002,0.2968810200691223,9.344569206237793,2.293645143508911,-3.631591796875,2.1209716796875,5.18798828125
17.109999900000002,0.3519476354122162,9.313444137573242,2.2673089504241943,-3.4637451171875,1.5106201171875,0.579833984375
17.1299999,0.3711012601852417,9.320627212524414,2.315192937850952,-3.5552978515625,1.6937255859375,0.8544921875
17.1499999,0.35673606395721436,9.387664794921875,2.4205379486083984,-0.6866455078125,1.983642578125,3.72314453125
17.1699999,0.3280056416988373,9.512163162231445,2.5282769203186035,-0.518798828125,-2.4871826171875,2.1820068359375
17.1899999,0.2944868206977844,9.624691009521484,2.585737943649292,0.7781982421875,-5.157470703125,1.3580322265625
17.2099999,0.27054479718208313,9.684545516967773,2.5665841102600098,2.0904541015625,-3.2196044921875,3.570556640625
17.2299999,0.24660277366638184,9.710882186889648,2.470816135406494,1.3885498046875,-1.46484375,2.9754638671875
17.249999900000002,0.22505496442317963,9.68933391571045,2.365471363067627,1.2054443359375,-1.7852783203125,1.495361328125
17.269999900000002,0.2059013396501541,9.648633003234863,2.2912509441375732,2.4871826171875,-2.777099609375,1.89208984375
17.2899999,0.19153612852096558,9.59596061706543,2.1954829692840576,-0.30517578125,-6.103515625,2.288818359375
17.3099999,0.1867477297782898,9.552865028381348,2.0853497982025146,0.4119873046875,-4.2572021484375,1.861572265625
17.3299999,0.18914192914962769,9.490615844726562,1.98958158493042,4.0130615234375,2.044677734375,2.13623046875
17.3499999,0.19632454216480255,9.3828763961792,1.922544002532959,4.3792724609375,3.082275390625,3.4942626953125
17.3699999,0.2059013396501541,9.217676162719727,2.0183119773864746,-0.8087158203125,-0.9307861328125,-3.387451171875
17.3899999,0.2082955539226532,9.141061782836914,2.0805611610412598,0.1220703125,-0.06103515625,0.213623046875
17.409999900000003,0.2082955539226532,9.157821655273438,2.1332337856292725,0.579833984375,2.685546875,-2.38037109375
17.429999900000002,0.2082955539226532,9.205705642700195,2.1332337856292725,-3.72314453125,1.2664794921875,-5.6304931640625
17.4499999,0.2059013396501541,9.26795482635498,2.169146776199341,-3.875732421875,1.6937255859375,-2.197265625
17.4699999,0.19871874153614044,9.368511199951172,2.2002713680267334,-2.899169921875,2.2735595703125,-1.251220703125
17.4899999,0.19393034279346466,9.44752025604248,2.2361843585968018,-5.37109375,0.274658203125,-2.0904541015625
17.5099999,0.1843535304069519,9.454702377319336,2.3080103397369385,-3.814697265625,2.655029296875,-0.6256103515625
17.5299999,0.17717093229293823,9.452308654785156,2.3582887649536133,-5.06591796875,1.77001953125,-1.8310546875
17.5499999,0.16759411990642548,9.459490776062012,2.4013843536376953,-11.199951171875,-1.28173828125,-4.302978515625
17.5699999,0.16519992053508759,9.41639518737793,2.432508945465088,-12.2222900390625,-0.1373291015625,0.274658203125
17.589999900000002,0.16519992053508759,9.433155059814453,2.454056739807129,-8.9874267578125,1.3580322265625,-1.800537109375
17.609999900000002,0.16759411990642548,9.47146224975586,2.43011474609375,-6.317138671875,-1.2359619140625,-5.5389404296875
17.6299999,0.17956513166427612,9.509769439697266,2.4205379486083984,-2.9449462890625,0.1220703125,-1.9683837890625
17.6499999,0.1867477297782898,9.57441234588623,2.4157495498657227,-2.4261474609375,3.11279296875,0.6866455078125
17.6699999,0.19393034279346466,9.651026725769043,2.4205379486083984,-5.2337646484375,0.885009765625,-2.471923828125
17.6899999,0.18914192914962769,9.696516990661621,2.43011474609375,-6.1798095703125,-2.3956298828125,-2.532958984375
17.7099999,0.17956513166427612,9.715670585632324,2.43011474609375,-2.7008056640625,-0.732421875,0.5340576171875
17.7299999,0.1628057211637497,9.749189376831055,2.4133553504943848,0.2899169921875,2.3345947265625,-0.5950927734375
17.749999900000002,0.14604631066322327,9.739612579345703,2.3965959548950195,0.3509521484375,1.800537109375,-0.0152587890625
17.769999900000002,0.13168109953403473,9.6989107131958,2.410961151123047,0.2593994140625,0.4119873046875,1.9378662109375
17.7899999,0.12449848651885986,9.636661529541016,2.454056739807129,0.6866455078125,-0.030517578125,1.3885498046875
17.8099999,0.11971008777618408,9.569623947143555,2.4827871322631836,0.274658203125,-1.0986328125,-0.213623046875
17.8299999,0.1173158809542656,9.490615844726562,2.4875755310058594,0.274658203125,-1.373291015625,1.4495849609375
17.8499999,0.12210428714752197,9.433155059814453,2.494758129119873,2.0904541015625,0.701904296875,2.0751953125
17.8699999,0.12689268589019775,9.402029991149902,2.4372973442077637,-0.1220703125,-1.9683837890625,-0.3662109375
17.8899999,0.13168109953403473,9.3828763961792,2.3918075561523438,-2.532958984375,-1.861572265625,-0.0152587890625
17.909999900000003,0.13407529890537262,9.370905876159668,2.3702597618103027,-1.6937255859375,2.5482177734375,2.685546875
17.929999900000002,0.13407529890537262,9.387664794921875,2.367865562438965,-7.2479248046875,0.7476806640625,1.495361328125
17.9499999,0.1412578970193863,9.311050415039062,2.3965959548950195,-10.1318359375,-2.74658203125,3.2501220703125
17.9699999,0.15801730751991272,9.174580574035645,2.427720546722412,-6.500244140625,-2.7008056640625,2.3345947265625
17.9899999,0.17238251864910126,9.071630477905273,2.43011474609375,-3.84521484375,0.5035400390625,-5.8441162109375
18.0099999,0.17477671802043915,9.014169692993164,2.387019157409668,-8.8653564453125,0.4425048828125,-6.3934326171875
18.0299999,0.1604115068912506,9.081207275390625,2.3989901542663574,-9.3994140625,2.716064453125,-1.46484375
18.0499999,0.13168109953403473,9.284713745117188,2.427720546722412,-9.7198486328125,2.0294189453125,-2.1514892578125
18.0699999,0.10295066982507706,9.466673851013184,2.4851813316345215,-10.4827880859375,0.030517578125,-0.335693359375
18.089999900000002,0.08858546614646912,9.591172218322754,2.5929205417633057,-6.4544677734375,2.960205078125,2.3345947265625
18.109999900000002,0.08858546614646912,9.66539192199707,2.6647465229034424,-4.8675537109375,2.0904541015625,-0.457763671875
18.1299999,0.10295066982507706,9.653421401977539,2.7054479122161865,-4.8675537109375,-0.4119873046875,-0.335693359375
18.1499999,0.12210428714752197,9.619902610778809,2.7126305103302,-2.777099609375,1.89208984375,1.4801025390625
18.1699999,0.1412578970193863,9.581595420837402,2.698265314102173,-2.0751953125,4.1046142578125,1.15966796875
18.1899999,0.1604115068912506,9.521739959716797,2.6839001178741455,-2.1209716796875,3.35693359375,1.220703125
18.2099999,0.16998831927776337,9.457097053527832,2.7030537128448486,-1.64794921875,2.50244140625,0.6866455078125
18.2299999,0.17956513166427612,9.41639518737793,2.7748796939849854,0.579833984375,4.058837890625,-1.1749267578125
18.249999900000002,0.17956513166427612,9.394847869873047,2.8347349166870117,0.518798828125,1.6021728515625,-1.007080078125
18.269999900000002,0.17717093229293823,9.406818389892578,2.896984100341797,0.1220703125,-0.8087158203125,-0.2593994140625
18.2899999,0.17238251864910126,9.430760383605957,2.918531894683838,0.5645751953125,-0.2288818359375,0.3814697265625
18.3099999,0.1604115068912506,9.442731857299805,2.918531894683838,1.3427734375,0.579833984375,0.762939453125
18.3299999,0.15322890877723694,9.442731857299805,2.8826189041137695,0.48828125,-1.220703125,0.8392333984375
18.3499999,0.15322890877723694,9.39245319366455,2.806004285812378,-1.312255859375,-3.662109375,2.655029296875
18.3699999,0.15322890877723694,9.279925346374512,2.7054479122161865,-0.091552734375,-1.0223388671875,2.9449462890625
18.3899999,0.15322890877723694,9.196128845214844,2.6024973392486572,-0.1373291015625,2.471923828125,-3.0670166015625
18.409999900000003,0.14844051003456116,9.160215377807617,2.5306711196899414,-1.6937255859375,2.410888671875,-5.0811767578125
18.429999900000002,0.13168109953403473,9.162610054016113,2.52109432220459,-2.227783203125,1.922607421875,0.8544921875
18.4499999,0.1173158809542656,9.248801231384277,2.607285737991333,-1.190185546875,3.47900390625,0.335693359375
18.4699999,0.10534487664699554,9.342175483703613,2.7102363109588623,-1.1749267578125,1.4495849609375,-3.5400390625
18.4899999,0.10055647045373917,9.385271072387695,2.784456491470337,-1.983642578125,-1.9683837890625,-0.79345703125
18.5099999,0.10295066982507706,9.428366661071777,2.849100112915039,0.67138671875,1.8463134765625,0.3509521484375
18.5299999,0.11252748221158981,9.466673851013184,2.87064790725708,0.8697509765625,3.4332275390625,-1.9378662109375
18.5499999,0.12210428714752197,9.485827445983887,2.8610711097717285,-1.373291015625,-0.79345703125,-1.312255859375
18.5699999,0.12928688526153564,9.50498104095459,2.8443117141723633,-1.2054443359375,-1.89208984375,0.6256103515625
18.589999900000002,0.1388636976480484,9.516951560974121,2.8155810832977295,0.9613037109375,1.8310546875,1.0528564453125
18.609999900000002,0.14844051003456116,9.512163162231445,2.786850690841675,0.4730224609375,2.62451171875,0.457763671875
18.6299999,0.15322890877723694,9.495404243469238,2.786850690841675,-0.2288818359375,0.6103515625,0.3509521484375
18.6499999,0.15801730751991272,9.473855972290039,2.80361008644104,0.3814697265625,-1.190185546875,1.1138916015625
18.6699999,0.1604115068912506,9.44991397857666,2.82515811920166,0.640869140625,-0.67138671875,1.5869140625
18.6899999,0.15562310814857483,9.437943458557129,2.808398485183716,1.129150390625,-0.2288818359375,0.9613037109375
18.7099999,0.15083470940589905,9.399636268615723,2.7676970958709717,0.396728515625,-0.6561279296875,1.8768310546875
18.7299999,0.1412578970193863,9.375694274902344,2.7509377002716064,1.15966796875,1.007080078125,1.4495849609375
18.749999900000002,0.12928688526153564,9.346963882446289,2.7317841053009033,0.152587890625,-0.8087158203125,0.6103515625
18.769999900000002,0.12449848651885986,9.315838813781738,2.7317841053009033,0.2288818359375,-2.288818359375,1.3580322265625
18.7899999,0.12210428714752197,9.29189682006836,2.715024709701538,0.18310546875,-1.8768310546875,0.7781982421875
18.8099999,0.12689268589019775,9.265560150146484,2.6815059185028076,-0.091552734375,-0.244140625,0.152587890625
18.8299999,0.13407529890537262,9.255983352661133,2.6455929279327393,-0.885009765625,1.0528564453125,-0.518798828125
18.8499999,0.14365209639072418,9.275136947631836,2.6431987285614014,-0.762939453125,1.983642578125,-0.823974609375
18.8699999,0.14604631066322327,9.308655738830566,2.6599581241607666,-0.396728515625,0.946044921875,-0.091552734375
18.8899999,0.14604631066322327,9.373299598693848,2.7102363109588623,0.244140625,0.579833984375,-0.2899169921875
18.909999900000003,0.14365209639072418,9.366117477416992,2.7054479122161865,0.3662109375,1.40380859375,-0.1220703125
18.929999900000002,0.1412578970193863,9.370905876159668,2.691082715988159,-0.0457763671875,1.4190673828125,-0.9765625
18.9499999,0.1388636976480484,9.385271072387695,2.6862943172454834,-0.9002685546875,2.0751953125,-1.2054443359375
18.9699999,0.13407529890537262,9.409213066101074,2.7126305103302,-0.5340576171875,2.838134765625,0.579833984375
18.9899999,0.1364694982767105,9.428366661071777,2.7557260990142822,-0.5645751953125,1.220703125,1.373291015625
19.0099999,0.1388636976480484,9.435548782348633,2.80361008644104,-0.3814697265625,-0.640869140625,0.1220703125
19.0299999,0.14604631066322327,9.430760383605957,2.8203697204589844,-0.3509521484375,-1.0223388671875,-0.67138671875
19.0499999,0.15083470940589905,9.433155059814453,2.808398485183716,0.1068115234375,0.9002685546875,0.48828125
19.0699999,0.15801730751991272,9.430760383605957,2.765302896499634,0.3662109375,2.0294189453125,1.7852783203125
19.089999900000002,0.1628057211637497,9.442731857299805,2.715024709701538,-1.0986328125,1.0833740234375,0.5645751953125
19.109999900000002,0.16998831927776337,9.41639518737793,2.7102363109588623,0.030517578125,2.62451171875,1.03759765625
19.1299999,0.17956513166427612,9.375694274902344,2.719813108444214,-0.274658203125,1.7547607421875,0.6866455078125
19.1499999,0.18914192914962769,9.363722801208496,2.7509377002716064,-1.4190673828125,0,-2.105712890625
19.1699999,0.1867477297782898,9.320627212524414,2.784456491470337,-0.1373291015625,-0.1068115234375,0.091552734375
19.1899999,0.1867477297782898,9.313444137573242,2.7988216876983643,1.15966796875,1.220703125,0.3662109375
19.2099999,0.17477671802043915,9.313444137573242,2.7940332889556885,-0.3662109375,0.3814697265625,-1.3580322265625
19.2299999,0.16519992053508759,9.318233489990234,2.7772738933563232,0.0457763671875,0,-0.701904296875
19.249999900000002,0.15562310814857483,9.339780807495117,2.7509377002716064,0.30517578125,0.54931640625,-0.0152587890625
19.269999900000002,0.15083470940589905,9.370905876159668,2.734178304672241,0.640869140625,1.77001953125,0.274658203125
19.2899999,0.14365209639072418,9.404424667358398,2.717418909072876,0.0457763671875,1.068115234375,0.30517578125
19.3099999,0.14365209639072418,9.397241592407227,2.741360902786255,0.030517578125,1.1749267578125,1.7852783203125
19.3299999,0.14604631066322327,9.368511199951172,2.7557260990142822,-0.274658203125,0.335693359375,0.9307861328125
19.3499999,0.15322890877723694,9.339780807495117,2.7724854946136475,-0.1373291015625,-0.335693359375,-1.6937255859375
19.3699999,0.1628057211637497,9.306262016296387,2.782062292098999,-0.8392333984375,0.42724609375,-0.885009765625
19.3899999,0.16759411990642548,9.315838813781738,2.7988216876983643,0.1068115234375,0.9765625,0.5950927734375
19.409999900000003,0.16759411990642548,9.344569206237793,2.801215887069702,-1.953125,-1.4801025390625,-0.0762939453125
19.429999900000002,0.1604115068912506,9.35654067993164,2.765302896499634,-2.1514892578125,-3.0364990234375,0.5340576171875
19.4499999,0.15801730751991272,9.363722801208496,2.7102363109588623,1.28173828125,0.9765625,-0.732421875
19.4699999,0.15322890877723694,9.378087997436523,2.6431987285614014,1.1749267578125,3.6163330078125,-1.5106201171875
19.4899999,0.15083470940589905,9.373299598693848,2.5929205417633057,-1.4190673828125,0.9765625,0.2899169921875
19.5099999,0.14604631066322327,9.404424667358398,2.5785553455352783,-1.617431640625,-0.091552734375,0.0457763671875
19.5299999,0.1364694982767105,9.425971984863281,2.58813214302063,-0.9918212890625,3.082275390625,0.1373291015625
19.5499999,0.12449848651885986,9.397241592407227,2.6192567348480225,-0.6866455078125,4.7760009765625,2.7618408203125
19.5699999,0.1149216815829277,9.370905876159668,2.676717519760132,-1.1444091796875,3.173828125,0.30517578125
19.589999900000002,0.11013327538967133,9.330204010009766,2.734178304672241,-1.3885498046875,0.5645751953125,-2.0294189453125
19.609999900000002,0.10773907601833344,9.294290542602539,2.782062292098999,0.3814697265625,1.7852783203125,-0.4730224609375
19.6299999,0.1149216815829277,9.301473617553711,2.7964274883270264,0.5950927734375,3.1280517578125,-0.2593994140625
19.6499999,0.12210428714752197,9.334992408752441,2.7772738933563232,-0.8087158203125,2.044677734375,-1.220703125
19.6699999,0.13168109953403473,9.351752281188965,2.7772738933563232,-0.7476806640625,2.4871826171875,0.4730224609375
19.6899999,0.14365209639072418,9.3828763961792,2.8131868839263916,0.6561279296875,3.8909912109375,0.152587890625
19.7099999,0.15801730751991272,9.39245319366455,2.8443117141723633,-1.190185546875,0.2593994140625,-0.5645751953125
19.7299999,0.17238251864910126,9.399636268615723,2.8658595085144043,-1.4801025390625,-1.922607421875,0.0762939453125
19.749999900000002,0.1867477297782898,9.390059471130371,2.868253707885742,0.0762939453125,0.91552734375,0.9765625
19.769999900000002,0.19393034279346466,9.3828763961792,2.8347349166870117,0.1373291015625,1.9989013671875,0.3814697265625
19.7899999,0.19393034279346466,9.363722801208496,2.7964274883270264,-1.52587890625,0.3509521484375,-0.274658203125
19.8099999,0.1843535304069519,9.349357604980469,2.779668092727661,-1.556396484375,0.30517578125,-0.2593994140625
19.8299999,0.16998831927776337,9.344569206237793,2.7964274883270264,-0.518798828125,1.739501953125,0.152587890625
19.8499999,0.15083470940589905,9.351752281188965,2.8131868839263916,-1.434326171875,0.152587890625,-0.335693359375
19.8699999,0.1388636976480484,9.361329078674316,2.8227639198303223,-1.1138916015625,-1.617431640625,-0.274658203125
19.8899999,0.13407529890537262,9.378087997436523,2.8131868839263916,-0.0152587890625,-0.274658203125,0.213623046875
19.909999900000003,0.13407529890537262,9.385271072387695,2.801215887069702,1.2359619140625,1.8310546875,0.9307861328125
19.929999900000002,0.14604631066322327,9.366117477416992,2.7557260990142822,-0.6103515625,-0.6561279296875,0.8697509765625
19.9499999,0.14604631066322327,9.344569206237793,2.7222073078155518,-1.861572265625,-1.312255859375,-0.8392333984375
19.9699999,0.1412578970193863,9.320627212524414,2.698265314102173,-1.251220703125,1.7547607421875,-0.9765625
19.9899999,0.13168109953403473,9.339780807495117,2.6647465229034424,-1.9683837890625,2.0294189453125,-0.8087158203125
20.0099999,0.11971008777618408,9.363722801208496,2.6599581241607666,-1.0223388671875,2.0751953125,0.48828125
20.0299999,0.1149216815829277,9.402029991149902,2.7269957065582275,0.823974609375,4.425048828125,1.251220703125
20.0499999,0.1149216815829277,9.425971984863281,2.786850690841675,-1.4495849609375,1.5716552734375,0.030517578125
20.0699999,0.11971008777618408,9.421183586120605,2.829946517944336,-3.265380859375,-1.4190673828125,0.67138671875
20.089999900000002,0.12689268589019775,9.406818389892578,2.8802247047424316,-1.0223388671875,3.997802734375,0.579833984375
20.109999900000002,0.13407529890537262,9.394847869873047,2.8850131034851074,1.6021728515625,4.69970703125,-0.18310546875
20.1299999,0.1412578970193863,9.423578262329102,2.8658595085144043,-1.1749267578125,-0.30517578125,-1.2969970703125
20.1499999,0.14604631066322327,9.435548782348633,2.8586769104003906,-0.9765625,1.007080078125,2.44140625
20.1699999,0.14844051003456116,9.435548782348633,2.8443117141723633,0.5950927734375,3.7994384765625,3.96728515625
20.1899999,0.15083470940589905,9.404424667358398,2.7964274883270264,-1.678466796875,0.885009765625,0.6103515625
20.2099999,0.15801730751991272,9.327810287475586,2.8227639198303223,0.518798828125,2.13623046875,-0.4119873046875
20.2299999,0.16519992053508759,9.244012832641602,2.8395233154296875,1.190185546875,1.7547607421875,0.6866455078125
20.249999900000002,0.16759411990642548,9.222464561462402,2.8586769104003906,-0.8087158203125,-1.2664794921875,-1.46484375
20.269999900000002,0.16759411990642548,9.241618156433105,2.8443117141723633,-0.4425048828125,-1.4495849609375,-1.6937255859375
20.2899999,0.16519992053508759,9.258378028869629,2.7916390895843506,0.18310546875,0.9002685546875,2.5634765625
20.3099999,0.1628057211637497,9.265560150146484,2.7461493015289307,0.0152587890625,3.6468505859375,2.197265625
