# Time (seconds),Accel_X,Accel_Y,Accel_Z,Gyro_X,Gyro_Y,Gyro_Z
0.0099999,0.9888052940368652,-2.609679937362671,9.311050415039062,-0.823974609375,0.42724609375,0.579833984375
0.029999900000000003,0.9768342971801758,-2.6623523235321045,9.32541561126709,0.0457763671875,1.3885498046875,-0.3814697265625
0.0499999,0.9720458984375,-2.676717519760132,9.334992408752441,0.18310546875,1.0986328125,-0.4425048828125
0.0699999,0.9768342971801758,-2.671929121017456,9.366117477416992,0.3814697265625,0.8392333984375,-0.06103515625
0.08999990000000001,0.9840168952941895,-2.650381326675415,9.394847869873047,-0.518798828125,0.9613037109375,0.6256103515625
0.10999990000000001,0.993593692779541,-2.63362193107605,9.421183586120605,-1.007080078125,0.8087158203125,0.885009765625
0.1299999,1.0007762908935547,-2.6408045291900635,9.44752025604248,-1.0833740234375,0.7171630859375,0.8697509765625
0.14999990000000002,1.0055646896362305,-2.6647465229034424,9.464279174804688,-0.946044921875,0.3204345703125,0.0152587890625
0.1699999,1.0079588890075684,-2.6862943172454834,9.464279174804688,-0.5340576171875,-0.1678466796875,-1.1749267578125
0.1899999,1.0127472877502441,-2.6862943172454834,9.44991397857666,-0.579833984375,-0.152587890625,-0.9613037109375
0.20999990000000002,1.015141487121582,-2.6647465229034424,9.423578262329102,-0.7476806640625,0.3509521484375,0.0457763671875
0.2299999,1.0199298858642578,-2.6455929279327393,9.39245319366455,-1.556396484375,0.91552734375,0.91552734375
0.2499999,1.0199298858642578,-2.647987127304077,9.38048267364502,-0.9307861328125,0.9765625,0.4425048828125
0.2699999,1.01753568649292,-2.6886885166168213,9.387664794921875,-0.152587890625,0.5340576171875,-0.762939453125
0.28999990000000003,1.01753568649292,-2.7102363109588623,9.394847869873047,0,-0.4425048828125,-2.0599365234375
0.3099999,1.0199298858642578,-2.719813108444214,9.399636268615723,-0.6866455078125,-0.274658203125,-1.190185546875
0.3299999,1.0247182846069336,-2.693476915359497,9.38048267364502,-1.373291015625,-0.152587890625,0.2288818359375
0.34999990000000003,1.0247182846069336,-2.6647465229034424,9.342175483703613,-1.0833740234375,-0.0457763671875,0.640869140625
0.3699999,1.0199298858642578,-2.6623523235321045,9.315838813781738,-0.6103515625,1.03759765625,0.457763671875
0.3899999,1.0127472877502441,-2.6815059185028076,9.294290542602539,-0.1983642578125,1.129150390625,-0.2288818359375
0.40999990000000003,1.0007762908935547,-2.717418909072876,9.29189682006836,-0.3509521484375,0.8392333984375,-0.6561279296875
0.4299999,0.9959878921508789,-2.7317841053009033,9.294290542602539,0.18310546875,0.9002685546875,-0.9307861328125
0.4499999,0.9959878921508789,-2.7126305103302,9.313444137573242,0.3204345703125,1.64794921875,-0.91552734375
0.4699999,1.0031704902648926,-2.6815059185028076,9.342175483703613,-0.5340576171875,1.9073486328125,0.274658203125
0.4899999,1.0103530883789062,-2.6431987285614014,9.373299598693848,-0.701904296875,0.8087158203125,0.8544921875
0.5099999,1.01753568649292,-2.628833532333374,9.409213066101074,-0.67138671875,0.7781982421875,0.396728515625
0.5299999,1.0223240852355957,-2.6408045291900635,9.425971984863281,-0.091552734375,1.03759765625,-0.274658203125
0.5499999,1.0247182846069336,-2.6431987285614014,9.428366661071777,-0.3509521484375,0.8697509765625,-0.9765625
0.5699999,1.0295066833496094,-2.631227731704712,9.41400146484375,-0.3509521484375,0.4730224609375,-0.1220703125
0.5899998999999999,1.0319008827209473,-2.604891538619995,9.394847869873047,-0.3509521484375,0.946044921875,1.2054443359375
0.6099998999999999,1.0319008827209473,-2.5977089405059814,9.394847869873047,-0.823974609375,1.9683837890625,2.01416015625
0.6299999,1.0271124839782715,-2.626439332962036,9.394847869873047,-1.4190673828125,1.03759765625,1.2054443359375
0.6499999,1.0223240852355957,-2.676717519760132,9.406818389892578,-0.8392333984375,0.42724609375,-0.4425048828125
0.6699999,1.01753568649292,-2.7293899059295654,9.41400146484375,-0.5340576171875,0.9307861328125,-0.4730224609375
0.6899999,1.01753568649292,-2.75812029838562,9.41400146484375,-0.6561279296875,1.28173828125,0.30517578125
0.7099999,1.0223240852355957,-2.7557260990142822,9.418789863586426,-1.312255859375,0.7476806640625,0.30517578125
0.7299998999999999,1.0223240852355957,-2.7557260990142822,9.418789863586426,-1.3275146484375,0.518798828125,0.5645751953125
0.7499998999999999,1.0223240852355957,-2.75812029838562,9.418789863586426,-0.9307861328125,0.396728515625,0.1373291015625
0.7699999,1.0127472877502441,-2.75812029838562,9.402029991149902,-1.251220703125,0.244140625,-0.732421875
0.7899999,1.0055646896362305,-2.7557260990142822,9.385271072387695,-1.0528564453125,0.6103515625,-0.518798828125
0.8099999,1.0007762908935547,-2.736572504043579,9.361329078674316,-0.732421875,0.579833984375,0.091552734375
0.8299999,1.0007762908935547,-2.7078421115875244,9.334992408752441,-0.4119873046875,0.4425048828125,0.244140625
0.8499998999999999,1.0031704902648926,-2.691082715988159,9.318233489990234,-0.9613037109375,1.4495849609375,0.579833984375
0.8699998999999999,1.0031704902648926,-2.6862943172454834,9.315838813781738,-0.9002685546875,1.77001953125,0.640869140625
0.8899999,1.0031704902648926,-2.6886885166168213,9.330204010009766,-0.54931640625,1.129150390625,-0.244140625
0.9099999,1.0007762908935547,-2.691082715988159,9.342175483703613,-0.762939453125,0.18310546875,-0.3814697265625
0.9299999,1.0007762908935547,-2.6886885166168213,9.349357604980469,-0.8392333984375,0.946044921875,0.42724609375
0.9499999,1.0007762908935547,-2.671929121017456,9.349357604980469,-1.03759765625,1.9378662109375,0.7171630859375
0.9699998999999999,1.0007762908935547,-2.6599581241607666,9.339780807495117,-1.068115234375,1.5106201171875,1.190185546875
0.9899998999999999,1.0055646896362305,-2.655169725418091,9.354146003723145,-1.1749267578125,1.15966796875,1.5411376953125
1.0099999,1.0079588890075684,-2.6408045291900635,9.354146003723145,-0.6103515625,0.8392333984375,0.701904296875
1.0299999,1.0103530883789062,-2.6431987285614014,9.370905876159668,-1.3275146484375,1.617431640625,1.5411376953125
1.0499999,1.0103530883789062,-2.6575639247894287,9.390059471130371,-1.6021728515625,1.9683837890625,2.288818359375
1.0699999,1.0031704902648926,-2.6862943172454834,9.411606788635254,-1.800537109375,0.7476806640625,1.64794921875
1.0899999,0.9911994934082031,-2.741360902786255,9.433155059814453,-1.8463134765625,0.3662109375,1.220703125
1.1099999,0.9840168952941895,-2.7916390895843506,9.445125579833984,-1.3427734375,0.5340576171875,0.5645751953125
1.1299999,0.9840168952941895,-2.827552318572998,9.442731857299805,-1.2359619140625,0.518798828125,0.396728515625
1.1499999,0.9911994934082031,-2.8395233154296875,9.433155059814453,-1.4801025390625,0.30517578125,0.5340576171875
1.1699998999999999,1.0055646896362305,-2.8347349166870117,9.428366661071777,-1.3427734375,0.2899169921875,0.67138671875
1.1899998999999999,1.0199298858642578,-2.827552318572998,9.423578262329102,-1.0528564453125,-0.091552734375,0.79345703125
1.2099999,1.0295066833496094,-2.829946517944336,9.421183586120605,-0.5645751953125,-0.18310546875,0.396728515625
1.2299999,1.0342950820922852,-2.8395233154296875,9.409213066101074,-0.518798828125,-0.7781982421875,-0.274658203125
1.2499999,1.0342950820922852,-2.8347349166870117,9.387664794921875,-0.4119873046875,-0.732421875,-0.91552734375
1.2699999,1.0342950820922852,-2.8179752826690674,9.35893440246582,-0.8087158203125,-0.1220703125,-0.18310546875
1.2899999,1.0342950820922852,-2.784456491470337,9.32541561126709,-0.8392333984375,0.4425048828125,0.7476806640625
1.3099999,1.0295066833496094,-2.7724854946136475,9.313444137573242,-0.1983642578125,0.7171630859375,1.0986328125
1.3299999,1.0223240852355957,-2.7724854946136475,9.313444137573242,-0.1220703125,0.1068115234375,0.18310546875
1.3499999,1.01753568649292,-2.7892448902130127,9.320627212524414,-0.2899169921875,-0.244140625,-0.6866455078125
1.3699999,1.015141487121582,-2.801215887069702,9.315838813781738,-0.4730224609375,0.06103515625,-0.6561279296875
1.3899999,1.0199298858642578,-2.786850690841675,9.306262016296387,-0.396728515625,0.7781982421875,-0.213623046875
1.4099999,1.0295066833496094,-2.7676970958709717,9.294290542602539,-0.3509521484375,1.190185546875,0.640869140625
1.4299998999999999,1.0342950820922852,-2.7533318996429443,9.30386734008789,-0.3662109375,1.03759765625,0.9765625
1.4499999,1.039083480834961,-2.765302896499634,9.327810287475586,-0.3204345703125,0.7171630859375,0.274658203125
1.4699999,1.0414776802062988,-2.786850690841675,9.35893440246582,-0.1678466796875,0.213623046875,-0.6103515625
1.4899999,1.039083480834961,-2.806004285812378,9.373299598693848,-0.213623046875,-0.0152587890625,-0.6256103515625
1.5099999,1.0438719987869263,-2.80361008644104,9.373299598693848,-0.091552734375,0.2593994140625,-0.1678466796875
1.5299999,1.05105459690094,-2.784456491470337,9.368511199951172,-0.91552734375,0.6256103515625,0.152587890625
1.5499999,1.0534487962722778,-2.786850690841675,9.373299598693848,-0.3662109375,0.091552734375,-0.0457763671875
1.5699999,1.05105459690094,-2.7916390895843506,9.373299598693848,-0.1678466796875,-0.2593994140625,-0.152587890625
1.5899999,1.05105459690094,-2.7940332889556885,9.363722801208496,-0.0152587890625,0.1373291015625,-0.54931640625
1.6099999,1.048660397529602,-2.7964274883270264,9.351752281188965,-0.5035400390625,0.5340576171875,-0.457763671875
1.6299999,1.0462661981582642,-2.784456491470337,9.334992408752441,-1.0986328125,0.3509521484375,-0.335693359375
1.6499999,1.048660397529602,-2.7748796939849854,9.32302188873291,-1.1444091796875,0.152587890625,0.2593994140625
1.6699999,1.0462661981582642,-2.7748796939849854,9.311050415039062,-1.6021728515625,0.48828125,0.8392333984375
1.6899998999999999,1.0462661981582642,-2.7772738933563232,9.30386734008789,-1.89208984375,0.9002685546875,0.2288818359375
1.7099999,1.0438719987869263,-2.806004285812378,9.299078941345215,-1.5869140625,0.7171630859375,0.06103515625
1.7299999,1.0414776802062988,-2.8227639198303223,9.30386734008789,-0.4730224609375,0.42724609375,-0.30517578125
1.7499999,1.039083480834961,-2.827552318572998,9.30386734008789,-0.2593994140625,0.3204345703125,-1.0528564453125
1.7699999,1.039083480834961,-2.8155810832977295,9.301473617553711,-0.1373291015625,0.762939453125,-0.457763671875
1.7899999,1.0342950820922852,-2.7892448902130127,9.29189682006836,-0.3509521484375,1.28173828125,0.6561279296875
1.8099999,1.0271124839782715,-2.7748796939849854,9.29189682006836,-0.3509521484375,1.5716552734375,1.007080078125
1.8299999,1.0223240852355957,-2.7748796939849854,9.299078941345215,0.457763671875,1.1138916015625,0.3662109375
1.8499999,1.0223240852355957,-2.786850690841675,9.315838813781738,0.3509521484375,0.8697509765625,-0.1678466796875
1.8699999,1.0319008827209473,-2.7892448902130127,9.337387084960938,-0.1068115234375,1.28173828125,-0.06103515625
1.8899999,1.0462661981582642,-2.779668092727661,9.35654067993164,-0.457763671875,1.220703125,0.457763671875
1.9099999,1.0558429956436157,-2.7676970958709717,9.370905876159668,-1.0833740234375,1.068115234375,1.1749267578125
1.9299998999999999,1.0630255937576294,-2.779668092727661,9.3828763961792,-1.46484375,1.190185546875,1.52587890625
1.9499999,1.0630255937576294,-2.8131868839263916,9.385271072387695,-1.3885498046875,1.1444091796875,0.67138671875
1.9699999,1.0630255937576294,-2.846705913543701,9.3828763961792,-0.885009765625,1.1138916015625,-0.213623046875
1.9899999,1.0654197931289673,-2.875436305999756,9.38048267364502,-0.5645751953125,1.1444091796875,0
2.0099999,1.072602391242981,-2.8826189041137695,9.390059471130371,-0.3662109375,0.9002685546875,0.457763671875
2.0299999,1.0773907899856567,-2.8850131034851074,9.402029991149902,-0.30517578125,0.48828125,0.213623046875
2.0499999,1.0821791887283325,-2.889801502227783,9.409213066101074,-0.2593994140625,-0.0152587890625,-0.6256103515625
2.0699999,1.0797849893569946,-2.8850131034851074,9.411606788635254,0.2288818359375,0.030517578125,-1.3275146484375
2.0899999,1.0749965906143188,-2.87064790725708,9.390059471130371,0.2288818359375,-0.091552734375,-0.9765625
2.1099999,1.070208191871643,-2.8443117141723633,9.35654067993164,-0.1373291015625,0.244140625,-0.1373291015625
2.1299999,1.0630255937576294,-2.806004285812378,9.334992408752441,0.1373291015625,1.129150390625,-0.0152587890625
2.1499999,1.0582371950149536,-2.7916390895843506,9.311050415039062,-0.335693359375,0.579833984375,0.30517578125
2.1699999,1.0534487962722778,-2.7964274883270264,9.318233489990234,-0.06103515625,0.4730224609375,0.42724609375
2.1899999,1.048660397529602,-2.8179752826690674,9.327810287475586,-0.1220703125,0.518798828125,-0.396728515625
2.2099999,1.0462661981582642,-2.8419175148010254,9.342175483703613,-0.1068115234375,0.18310546875,-1.1138916015625
2.2299999,1.0438719987869263,-2.853888511657715,9.344569206237793,-0.0457763671875,0.1068115234375,-0.732421875
2.2499999,1.0462661981582642,-2.8419175148010254,9.342175483703613,0.091552734375,0.1678466796875,-0.640869140625
2.2699999,1.048660397529602,-2.8203697204589844,9.320627212524414,-0.1678466796875,0.244140625,-0.2288818359375
2.2899999,1.0534487962722778,-2.7940332889556885,9.306262016296387,0.18310546875,0.9307861328125,0.030517578125
2.3099999,1.0582371950149536,-2.779668092727661,9.299078941345215,0.091552734375,1.2969970703125,0.091552734375
2.3299999,1.0606313943862915,-2.7748796939849854,9.301473617553711,-0.335693359375,0.79345703125,0.30517578125
2.3499999,1.0582371950149536,-2.7916390895843506,9.306262016296387,-0.54931640625,0.4730224609375,0.2899169921875
2.3699999,1.0558429956436157,-2.8131868839263916,9.308655738830566,-0.2288818359375,1.1138916015625,-0.06103515625
2.3899999,1.0558429956436157,-2.8227639198303223,9.311050415039062,-0.0152587890625,1.4801025390625,-0.6866455078125
2.4099999,1.0582371950149536,-2.8227639198303223,9.311050415039062,-0.701904296875,1.2054443359375,-0.2899169921875
2.4299999,1.0630255937576294,-2.8107926845550537,9.318233489990234,-0.885009765625,0.8697509765625,0.640869140625
2.4499999,1.070208191871643,-2.7964274883270264,9.32541561126709,-0.7171630859375,1.0528564453125,0.6561279296875
2.4699999,1.070208191871643,-2.786850690841675,9.327810287475586,-0.4119873046875,1.3275146484375,0.0457763671875
2.4899999,1.070208191871643,-2.7964274883270264,9.334992408752441,-0.9918212890625,1.373291015625,0.6561279296875
2.5099999,1.0654197931289673,-2.80361008644104,9.346963882446289,-1.0833740234375,1.2969970703125,0.8544921875
2.5299999,1.0654197931289673,-2.82515811920166,9.361329078674316,-1.3580322265625,0.9613037109375,0.6103515625
2.5499999,1.0630255937576294,-2.8419175148010254,9.35893440246582,-1.861572265625,0.6103515625,0.1068115234375
2.5699999,1.0630255937576294,-2.846705913543701,9.35893440246582,-0.8392333984375,1.0223388671875,-0.0152587890625
2.5899999,1.0654197931289673,-2.851494312286377,9.351752281188965,-0.2593994140625,1.3427734375,0.640869140625
2.6099999,1.0678139925003052,-2.8419175148010254,9.35893440246582,-0.8697509765625,0.8392333984375,0.335693359375
2.6299999,1.0654197931289673,-2.8419175148010254,9.35893440246582,-1.0223388671875,0.213623046875,-0.1373291015625
2.6499999,1.0606313943862915,-2.8419175148010254,9.351752281188965,-0.8544921875,0.518798828125,0.3204345703125
2.6699999,1.0534487962722778,-2.853888511657715,9.330204010009766,-0.579833984375,1.1138916015625,0.732421875
2.6899999,1.0462661981582642,-2.851494312286377,9.308655738830566,0.0457763671875,1.3885498046875,-0.030517578125
2.7099999,1.039083480834961,-2.8658595085144043,9.294290542602539,0.091552734375,0.9918212890625,0.18310546875
2.7299999,1.0414776802062988,-2.868253707885742,9.29189682006836,-0.4730224609375,0.518798828125,0.1678466796875
2.7499999,1.0462661981582642,-2.873042106628418,9.306262016296387,-0.2593994140625,1.2054443359375,0.2288818359375
2.7699999,1.0534487962722778,-2.8586769104003906,9.320627212524414,-0.2288818359375,0.8392333984375,-0.4425048828125
2.7899999,1.0606313943862915,-2.853888511657715,9.334992408752441,-0.579833984375,0.823974609375,0.6103515625
2.8099999,1.0654197931289673,-2.849100112915039,9.349357604980469,-0.3662109375,0.9307861328125,0.946044921875
2.8299999,1.0654197931289673,-2.851494312286377,9.35893440246582,-0.18310546875,1.2359619140625,0.1983642578125
2.8499999,1.0678139925003052,-2.868253707885742,9.368511199951172,0.06103515625,1.2359619140625,0.091552734375
2.8699999,1.0678139925003052,-2.8826189041137695,9.38048267364502,-0.3509521484375,0.91552734375,0.1373291015625
2.8899999,1.072602391242981,-2.8802247047424316,9.390059471130371,-0.5645751953125,0.3662109375,-0.2288818359375
2.9099999,1.0773907899856567,-2.875436305999756,9.397241592407227,-0.2288818359375,0.518798828125,-0.2288818359375
2.9299999,1.0797849893569946,-2.853888511657715,9.390059471130371,-0.1220703125,0.244140625,-0.06103515625
2.9499999,1.0797849893569946,-2.8443117141723633,9.3828763961792,-0.1373291015625,0.457763671875,0.30517578125
2.9699999,1.072602391242981,-2.8371291160583496,9.373299598693848,-0.5340576171875,0.1983642578125,0.0457763671875
2.9899999,1.0654197931289673,-2.8443117141723633,9.349357604980469,-0.3814697265625,-0.30517578125,-0.1068115234375
3.0099999,1.0558429956436157,-2.853888511657715,9.32302188873291,-0.457763671875,0.2899169921875,-0.0457763671875
3.0299999,1.048660397529602,-2.8562827110290527,9.294290542602539,-0.213623046875,0.8697509765625,-0.18310546875
3.0499999,1.0414776802062988,-2.8634653091430664,9.27034854888916,-0.3662109375,0.48828125,0.1983642578125
3.0699999,1.0438719987869263,-2.868253707885742,9.282320022583008,-0.2593994140625,0.42724609375,-0.274658203125
3.0899999,1.0462661981582642,-2.8658595085144043,9.294290542602539,-0.06103515625,0.152587890625,-0.6561279296875
3.1099999,1.0534487962722778,-2.8562827110290527,9.29189682006836,-0.244140625,-0.0762939453125,-0.518798828125
3.1299999,1.0582371950149536,-2.849100112915039,9.294290542602539,-0.732421875,0.7171630859375,0.0762939453125
3.1499999,1.0654197931289673,-2.8347349166870117,9.279925346374512,0.18310546875,1.1749267578125,-0.06103515625
3.1699999,1.0773907899856567,-2.832340717315674,9.279925346374512,0.579833984375,1.2054443359375,-0.030517578125
3.1899999,1.0893617868423462,-2.832340717315674,9.275136947631836,0.5950927734375,1.03759765625,0.0152587890625
3.2099999,1.0965443849563599,-2.8371291160583496,9.279925346374512,0.1983642578125,1.4801025390625,0.5340576171875
3.2299999,1.1013327836990356,-2.851494312286377,9.287108421325684,-0.06103515625,1.7852783203125,0.6103515625
3.2499999,1.1085153818130493,-2.8586769104003906,9.308655738830566,0.1068115234375,1.52587890625,0.030517578125
3.2699999,1.1085153818130493,-2.8395233154296875,9.330204010009766,-0.1678466796875,1.0833740234375,0.091552734375
3.2899999,1.1061211824417114,-2.829946517944336,9.337387084960938,-0.8392333984375,0.1678466796875,2.01416015625
3.3099999,1.0989385843276978,-2.832340717315674,9.354146003723145,-2.1820068359375,2.3651123046875,2.899169921875
3.3299999000000002,1.0773907899856567,-2.8562827110290527,9.363722801208496,-1.2664794921875,1.8768310546875,0.8392333984375
3.3499999,1.0606313943862915,-2.892195701599121,9.3828763961792,0.1220703125,0.6866455078125,-0.9613037109375
3.3699999,1.048660397529602,-2.911349296569824,9.406818389892578,-0.42724609375,0.274658203125,-0.3204345703125
3.3899999,1.0462661981582642,-2.892195701599121,9.409213066101074,0.4119873046875,0.3662109375,-0.0152587890625
3.4099999,1.048660397529602,-2.8586769104003906,9.390059471130371,0.2288818359375,0.640869140625,-0.030517578125
3.4299999,1.048660397529602,-2.829946517944336,9.35893440246582,0,0.885009765625,0.0762939453125
3.4499999,1.0534487962722778,-2.8227639198303223,9.327810287475586,-0.48828125,0.732421875,0.213623046875
3.4699999,1.0558429956436157,-2.8179752826690674,9.306262016296387,-0.2593994140625,0.762939453125,-0.1068115234375
3.4899999,1.0558429956436157,-2.82515811920166,9.294290542602539,0.18310546875,0.9307861328125,-0.30517578125
3.5099999,1.0582371950149536,-2.8395233154296875,9.284713745117188,0.030517578125,0.6103515625,0.2593994140625
3.5299999,1.0558429956436157,-2.8419175148010254,9.277531623840332,-0.0457763671875,0.885009765625,0.0762939453125
3.5499999,1.0558429956436157,-2.849100112915039,9.279925346374512,0.152587890625,1.4190673828125,-0.152587890625
3.5699999,1.0606313943862915,-2.8371291160583496,9.29189682006836,0.244140625,1.312255859375,-0.335693359375
3.5899999,1.0654197931289673,-2.82515811920166,9.30386734008789,-0.335693359375,0.885009765625,0.335693359375
3.6099999,1.070208191871643,-2.8107926845550537,9.330204010009766,-0.42724609375,1.220703125,0.8697509765625
3.6299999,1.072602391242981,-2.8155810832977295,9.344569206237793,-0.54931640625,1.40380859375,0.79345703125
3.6499999,1.0749965906143188,-2.8371291160583496,9.361329078674316,-0.7171630859375,1.129150390625,0.518798828125
3.6699999,1.0749965906143188,-2.868253707885742,9.366117477416992,-0.9002685546875,0.3814697265625,0.030517578125
3.6899999,1.072602391242981,-2.8993782997131348,9.366117477416992,-0.42724609375,0.4119873046875,-0.1220703125
3.7099999,1.0749965906143188,-2.9089550971984863,9.354146003723145,-0.30517578125,1.0833740234375,-0.3204345703125
3.7299999,1.072602391242981,-2.911349296569824,9.339780807495117,-0.579833984375,0.9307861328125,-0.0152587890625
3.7499999,1.072602391242981,-2.8993782997131348,9.332598686218262,-0.640869140625,0.8392333984375,0.42724609375
3.7699999,1.0749965906143188,-2.894589900970459,9.330204010009766,-0.274658203125,0.5950927734375,0.1678466796875
3.7899999,1.0749965906143188,-2.8850131034851074,9.327810287475586,0.0152587890625,0.5035400390625,-0.5950927734375
3.8099999,1.0797849893569946,-2.8874073028564453,9.327810287475586,-0.06103515625,0.7781982421875,-0.4730224609375
3.8299999000000002,1.0845733880996704,-2.8826189041137695,9.330204010009766,0.1678466796875,0.8697509765625,-0.1373291015625
3.8499999,1.0869675874710083,-2.873042106628418,9.32541561126709,-0.06103515625,0.2899169921875,-0.518798828125
3.8699999,1.0869675874710083,-2.8562827110290527,9.315838813781738,-0.1220703125,0.4730224609375,-0.6866455078125
3.8899999,1.0797849893569946,-2.849100112915039,9.299078941345215,-1.28173828125,1.40380859375,0.4119873046875
3.9099999,1.0749965906143188,-2.851494312286377,9.299078941345215,-0.152587890625,2.0294189453125,0.762939453125
3.9299999,1.070208191871643,-2.851494312286377,9.301473617553711,-0.3204345703125,1.0528564453125,-0.7781982421875
3.9499999,1.072602391242981,-2.853888511657715,9.330204010009766,-1.861572265625,0.6866455078125,-0.42724609375
3.9699999,1.0773907899856567,-2.8443117141723633,9.339780807495117,-1.0833740234375,0.6866455078125,0.3204345703125
3.9899999,1.0773907899856567,-2.846705913543701,9.342175483703613,-1.15966796875,0.9765625,1.0833740234375
4.0099999,1.0773907899856567,-2.8419175148010254,9.330204010009766,-0.8392333984375,1.190185546875,-0.0457763671875
4.029999900000001,1.072602391242981,-2.8586769104003906,9.313444137573242,-0.732421875,1.0528564453125,-0.3509521484375
4.0499999,1.0654197931289673,-2.868253707885742,9.306262016296387,-1.0528564453125,1.1138916015625,0.06103515625
4.069999900000001,1.0606313943862915,-2.875436305999756,9.30386734008789,-1.03759765625,1.129150390625,0.1373291015625
4.0899999000000005,1.0582371950149536,-2.87064790725708,9.306262016296387,-0.9613037109375,0.9918212890625,-0.1373291015625
4.1099999,1.0582371950149536,-2.8658595085144043,9.315838813781738,-1.03759765625,0.8544921875,0.152587890625
4.1299999000000005,1.0606313943862915,-2.8586769104003906,9.32541561126709,-0.91552734375,0.8392333984375,0.4425048828125
4.1499999,1.0654197931289673,-2.8562827110290527,9.327810287475586,-0.640869140625,0.4730224609375,0.1983642578125
4.1699999000000005,1.070208191871643,-2.8562827110290527,9.313444137573242,-0.0152587890625,0.274658203125,-0.3204345703125
4.1899999,1.072602391242981,-2.8586769104003906,9.30386734008789,0.6103515625,1.129150390625,0.0457763671875
4.209999900000001,1.072602391242981,-2.8419175148010254,9.30386734008789,-0.1373291015625,1.678466796875,0.0457763671875
4.2299999,1.0630255937576294,-2.851494312286377,9.313444137573242,-0.7781982421875,0.6256103515625,1.434326171875
4.249999900000001,1.048660397529602,-2.87064790725708,9.337387084960938,-1.3580322265625,0.579833984375,0.8087158203125
4.2699999,1.036689281463623,-2.913743495941162,9.342175483703613,-1.312255859375,0.6103515625,-0.4425048828125
4.289999900000001,1.0295066833496094,-2.9448680877685547,9.334992408752441,-0.396728515625,0.823974609375,-1.1138916015625
4.3099999,1.0271124839782715,-2.942473888397217,9.32541561126709,-0.91552734375,1.2359619140625,-0.2593994140625
4.329999900000001,1.0295066833496094,-2.9328970909118652,9.318233489990234,-1.46484375,0.9765625,1.0986328125
4.3499999,1.0319008827209473,-2.9161376953125,9.308655738830566,-1.220703125,0.3814697265625,0.6256103515625
4.369999900000001,1.0295066833496094,-2.9233202934265137,9.29189682006836,-0.6561279296875,0.640869140625,-0.6866455078125
4.3899999,1.0295066833496094,-2.935291290283203,9.272743225097656,-0.030517578125,1.40380859375,-0.9765625
4.409999900000001,1.0319008827209473,-2.9328970909118652,9.255983352661133,-0.030517578125,1.617431640625,-0.579833984375
4.4299999,1.0462661981582642,-2.920926094055176,9.251194953918457,-0.06103515625,1.190185546875,0.1678466796875
4.449999900000001,1.0606313943862915,-2.8874073028564453,9.265560150146484,0.274658203125,1.3275146484375,0
4.4699999,1.0749965906143188,-2.8610711097717285,9.296685218811035,0.0152587890625,1.9378662109375,0.518798828125
4.489999900000001,1.0821791887283325,-2.8562827110290527,9.346963882446289,-0.274658203125,1.5716552734375,1.6021728515625
4.5099999,1.072602391242981,-2.8778305053710938,9.411606788635254,-0.67138671875,0.7171630859375,1.0833740234375
4.529999900000001,1.0606313943862915,-2.935291290283203,9.466673851013184,-0.4425048828125,-0.0152587890625,-0.4119873046875
4.5499999,1.0462661981582642,-2.9735984802246094,9.481039047241211,0,-0.8087158203125,-1.9989013671875
4.569999900000001,1.036689281463623,-2.9281086921691895,9.402029991149902,-0.4425048828125,0.4730224609375,0.67138671875
4.5899999000000005,1.036689281463623,-2.8802247047424316,9.351752281188965,-0.7781982421875,0.640869140625,1.5869140625
4.609999900000001,1.036689281463623,-2.8634653091430664,9.330204010009766,-1.0986328125,0.091552734375,0.4730224609375
4.6299999000000005,1.0342950820922852,-2.8802247047424316,9.311050415039062,-1.2054443359375,-0.9307861328125,-0.7171630859375
4.6499999,1.0319008827209473,-2.892195701599121,9.294290542602539,-0.9613037109375,-0.9002685546875,-0.8087158203125
4.6699999000000005,1.0319008827209473,-2.8850131034851074,9.260771751403809,-0.79345703125,0.0762939453125,0.091552734375
4.6899999,1.0295066833496094,-2.8586769104003906,9.21288776397705,-0.6561279296875,0.54931640625,0.9002685546875
4.709999900000001,1.0247182846069336,-2.8395233154296875,9.167398452758789,-1.129150390625,0.9307861328125,1.3580322265625
4.7299999,1.01753568649292,-2.851494312286377,9.138668060302734,-0.6256103515625,1.40380859375,1.1138916015625
4.749999900000001,1.0103530883789062,-2.873042106628418,9.126696586608887,0.06103515625,1.9989013671875,0.1220703125
4.7699999,1.0127472877502441,-2.9065608978271484,9.126696586608887,0.1373291015625,2.3040771484375,0.1373291015625
4.789999900000001,1.01753568649292,-2.918531894683838,9.14345645904541,0.1220703125,2.685546875,0.4425048828125
4.8099999,1.0271124839782715,-2.9305028915405273,9.150638580322266,0.2899169921875,2.86865234375,0.885009765625
4.829999900000001,1.0295066833496094,-2.9688100814819336,9.169792175292969,1.15966796875,3.8604736328125,1.2359619140625
4.8499999,1.0223240852355957,-3.0334534645080566,9.17697525024414,1.8310546875,3.8909912109375,-0.67138671875
4.869999900000001,1.015141487121582,-3.134010076522827,9.188945770263672,2.960205078125,3.631591796875,-2.655029296875
4.8899999,1.0007762908935547,-3.248931646347046,9.174580574035645,4.730224609375,3.5858154296875,-3.662109375
4.909999900000001,0.9816226959228516,-3.35667085647583,9.126696586608887,7.2174072265625,4.486083984375,-5.523681640625
4.9299999,0.9528923034667969,-3.5051112174987793,9.040505409240723,9.4757080078125,6.4544677734375,-6.988525390625
4.949999900000001,0.9313444495201111,-3.7038300037384033,9.011775016784668,9.674072265625,9.4451904296875,-9.552001953125
4.9699999,0.9217676520347595,-3.861847400665283,9.033323287963867,9.2926025390625,9.0179443359375,-16.78466796875
4.989999900000001,0.9600749015808105,-3.9049429893493652,9.172186851501465,7.965087890625,6.0882568359375,-21.7132568359375
5.0099999,1.0319008827209473,-3.8307228088378906,9.330204010009766,-2.716064453125,6.16455078125,-19.95849609375
5.029999900000001,1.1324573755264282,-3.6080620288848877,9.481039047241211,-6.500244140625,5.859375,-18.585205078125
5.0499999,1.2258312702178955,-3.383007049560547,9.502586364746094,-0.2899169921875,3.9520263671875,-18.798828125
5.069999900000001,1.314416766166687,-3.1651346683502197,9.48343276977539,3.7841796875,5.828857421875,-19.95849609375
5.0899999000000005,1.3838485479354858,-2.9927520751953125,9.3828763961792,1.4190673828125,6.5460205078125,-19.3328857421875
5.109999900000001,1.4460978507995605,-2.832340717315674,9.313444137573242,1.2359619140625,7.7056884765625,-17.6849365234375
5.1299999000000005,1.5179238319396973,-2.7317841053009033,9.299078941345215,2.9296875,9.857177734375,-16.3116455078125
5.1499999,1.5849615335464478,-2.7269957065582275,9.294290542602539,8.30078125,8.30078125,-16.448974609375
5.1699999000000005,1.6424223184585571,-2.7509377002716064,9.366117477416992,16.510009765625,8.6822509765625,-20.4010009765625
5.1899999,1.6903064250946045,-2.762908697128296,9.50498104095459,18.49365234375,11.505126953125,-22.64404296875
5.209999900000001,1.7166426181793213,-2.655169725418091,9.710882186889648,15.9454345703125,9.8419189453125,-21.8505859375
5.2299999,1.7357962131500244,-2.4468741416931152,9.928754806518555,10.7269287109375,4.974365234375,-17.7154541015625
5.249999900000001,1.7477672100067139,-2.1523873805999756,10.103530883789062,6.9122314453125,3.814697265625,-15.045166015625
5.2699999,1.745373010635376,-1.7764976024627686,10.199298858642578,1.3427734375,4.4708251953125,-15.0604248046875
5.289999900000001,1.7190368175506592,-1.2425906658172607,10.232817649841309,-15.5029296875,2.50244140625,-10.833740234375
5.3099999,1.659181833267212,-0.5267243981361389,10.256759643554688,-34.2254638671875,-1.1444091796875,4.7454833984375
5.329999900000001,1.5394717454910278,0.2298433631658554,10.283096313476562,-44.7235107421875,-3.3721923828125,28.7017822265625
5.3499999,1.3503297567367554,0.7182605266571045,10.347740173339844,-43.4112548828125,-5.7220458984375,48.126220703125
5.369999900000001,1.0893617868423462,0.7924807667732239,10.409989356994629,-30.426025390625,-11.138916015625,48.3245849609375
5.3899999,0.7829039692878723,0.4141969084739685,10.47702693939209,-18.035888671875,-19.500732421875,43.243408203125
5.409999900000001,0.4644751250743866,-0.181959331035614,10.47702693939209,-10.3912353515625,-24.688720703125,43.701171875
5.4299999,0.1867477297782898,-0.7038952708244324,10.395624160766602,-12.2222900390625,-25.115966796875,46.9818115234375
5.449999900000001,-0.043095629662275314,-1.1061211824417114,10.266336441040039,-9.490966796875,-24.017333984375,52.8411865234375
5.4699999,-0.21547815203666687,-1.381454348564148,10.08437728881836,-3.631591796875,-29.266357421875,55.0994873046875
5.489999900000001,-0.3471592366695404,-1.6280571222305298,9.888052940368652,1.8310546875,-33.3099365234375,52.06298828125
5.5099999,-0.4572925269603729,-1.8626888990402222,9.612719535827637,4.608154296875,-34.088134765625,47.8668212890625
5.529999900000001,-0.5506663918495178,-2.169146776199341,9.263166427612305,3.5552978515625,-30.181884765625,47.1954345703125
5.5499999,-0.6272808313369751,-2.4205379486083984,8.889671325683594,2.4261474609375,-24.7802734375,43.701171875
5.569999900000001,-0.6655880808830261,-2.6671407222747803,8.578424453735352,2.01416015625,-21.3165283203125,40.4815673828125
5.5899999000000005,-0.667982280254364,-2.9161376953125,8.341399192810059,5.9661865234375,-21.42333984375,41.44287109375
5.609999900000001,-0.6392518281936646,-3.184288263320923,8.190564155578613,8.36181640625,-20.56884765625,39.215087890625
5.6299999000000005,-0.6057330369949341,-3.533841609954834,8.078036308288574,5.2642822265625,-16.6015625,34.97314453125
5.6499999,-0.5937620401382446,-3.907337188720703,7.99184513092041,0.8087158203125,-11.7950439453125,29.7088623046875
5.6699999000000005,-0.5937620401382446,-4.3406877517700195,7.965508937835693,-6.7138671875,-6.2713623046875,27.5421142578125
5.6899999,-0.6009446382522583,-4.819528102874756,7.9846625328063965,-6.9580078125,-3.753662109375,23.7884521484375
5.709999900000001,-0.5746083855628967,-5.2265424728393555,8.106766700744629,3.1280517578125,-1.556396484375,9.979248046875
5.7299999,-0.4620809257030487,-5.489904403686523,8.312667846679688,3.96728515625,0.579833984375,-2.3040771484375
5.749999900000001,-0.26096799969673157,-5.602431774139404,8.482656478881836,-5.18798828125,-1.953125,-2.7008056640625
5.7699999,-0.002394201699644327,-5.566518783569336,8.595184326171875,-3.7078857421875,-4.5318603515625,-2.960205078125
5.789999900000001,0.26575639843940735,-5.497087001800537,8.53532886505127,8.4228515625,-1.5411376953125,-10.4827880859375
5.8099999,0.5099649429321289,-5.403713226318359,8.362946510314941,13.1072998046875,3.5858154296875,-16.6473388671875
5.829999900000001,0.7398083209991455,-5.286397457122803,8.267178535461426,9.918212890625,12.6800537109375,-15.5792236328125
5.8499999,0.9792284965515137,-5.049371242523193,8.324639320373535,-2.4871826171875,15.777587890625,-13.1988525390625
5.869999900000001,1.1971008777618408,-4.8722004890441895,8.552088737487793,-11.993408203125,11.016845703125,-8.9111328125
5.8899999,1.3718775510787964,-4.90571928024292,8.815450668334961,-9.4757080078125,7.5836181640625,-8.2244873046875
5.909999900000001,1.501164436340332,-5.348646640777588,8.808267593383789,-3.7078857421875,4.241943359375,-14.0838623046875
5.9299999,1.5705963373184204,-6.057330131530762,8.638279914855957,2.86865234375,13.6871337890625,-31.219482421875
5.949999900000001,1.6328455209732056,-6.813898086547852,8.276755332946777,3.631591796875,23.5748291015625,-53.6346435546875
5.9699999,1.7405846118927002,-7.287950038909912,7.975085735321045,3.173828125,28.6102294921875,-66.680908203125
5.989999900000001,1.9081788063049316,-7.180211067199707,8.008605003356934,1.8768310546875,36.2396240234375,-74.554443359375
6.0099999,2.145204782485962,-6.646304130554199,8.300697326660156,-1.7547607421875,34.6832275390625,-75.7904052734375
6.029999900000001,2.425326347351074,-5.8657941818237305,8.81784439086914,3.1280517578125,25.726318359375,-75.3326416015625
6.0499999,2.6791117191314697,-5.0469770431518555,9.370905876159668,12.02392578125,20.8587646484375,-82.5042724609375
6.069999900000001,3.0526070594787598,-3.509899616241455,10.153809547424316,5.6915283203125,20.904541015625,-89.9200439453125
6.0899999000000005,3.1890766620635986,-2.6024973392486572,10.359710693359375,-1.2054443359375,15.4876708984375,-83.2672119140625
6.109999900000001,3.294421434402466,-1.644816517829895,10.407594680786133,-2.960205078125,6.988525390625,-66.46728515625
6.1299999000000005,3.337517261505127,-0.751779317855835,10.362105369567871,-1.3427734375,8.270263671875,-49.7283935546875
6.149999900000001,3.308786630630493,-0.16759411990642548,10.163386344909668,-4.94384765625,10.2081298828125,-35.9954833984375
6.1699999000000005,3.205836057662964,0.05027823522686958,9.909601211547852,-9.185791015625,9.9639892578125,-25.8636474609375
6.1899999,3.0358476638793945,-0.07422025501728058,9.682151794433594,-10.5743408203125,11.688232421875,-20.08056640625
6.209999900000001,2.829946517944336,-0.33758243918418884,9.528923034667969,-8.8043212890625,14.58740234375,-17.1356201171875
6.2299999,2.5977089405059814,-0.6105214357376099,9.418789863586426,-12.603759765625,14.2059326171875,-11.474609375
6.249999900000001,2.3558945655822754,-0.730231523513794,9.418789863586426,-16.021728515625,15.56396484375,-3.814697265625
6.2699999,2.1164743900299072,-0.7661445140838623,9.440337181091309,-16.1895751953125,18.3563232421875,5.126953125
6.289999900000001,1.8770540952682495,-0.667982280254364,9.545681953430176,-16.9830322265625,19.561767578125,10.3302001953125
6.3099999,1.6280571222305298,-0.5602431893348694,9.658209800720215,-15.869140625,16.326904296875,16.937255859375
6.329999900000001,1.3766659498214722,-0.4213795065879822,9.787496566772461,-0.8087158203125,10.009765625,25.4669189453125
6.3499999,1.1276689767837524,-0.2825157940387726,9.883264541625977,8.8043212890625,8.0718994140625,32.4249267578125
6.369999900000001,0.871489405632019,-0.19393034279346466,9.95748519897461,5.7525634765625,9.5367431640625,41.3360595703125
6.3899999,0.629675030708313,-0.11252748221158981,10.055646896362305,-5.645751953125,8.9569091796875,48.9501953125
6.409999900000001,0.33279404044151306,-0.24420857429504395,10.125079154968262,-20.5230712890625,2.2125244140625,62.43896484375
6.4299999,0.033518824726343155,-0.6416460275650024,10.285490036010742,-18.6004638671875,1.739501953125,69.4122314453125
6.449999900000001,-0.26096799969673157,-1.2665326595306396,10.54406452178955,2.13623046875,0.885009765625,58.9447021484375
6.4699999,-0.49559974670410156,-1.9488801956176758,10.800244331359863,13.1683349609375,-13.702392578125,43.9453125
6.489999900000001,-0.6224924325942993,-2.322375535964966,10.982203483581543,8.2855224609375,-29.11376953125,41.5496826171875
6.5099999,-0.6799532771110535,-2.319981336593628,10.919954299926758,-8.209228515625,-28.289794921875,53.497314453125
6.529999900000001,-0.7086837291717529,-2.1499931812286377,10.579977035522461,-19.6075439453125,-22.52197265625,67.352294921875
6.5499999,-0.751779317855835,-2.030282974243164,10.103530883789062,-12.6953125,-19.5159912109375,63.65966796875
6.569999900000001,-0.8164227604866028,-2.1380221843719482,9.708487510681152,-3.41796875,-23.37646484375,51.7578125
6.5899999000000005,-0.8858546018600464,-2.3511061668395996,9.428366661071777,-2.1820068359375,-29.388427734375,45.7305908203125
6.609999900000001,-0.9385270476341248,-2.5330653190612793,9.23682975769043,-3.8299560546875,-31.6925048828125,47.3175048828125
6.6299999000000005,-0.9720458984375,-2.650381326675415,9.035717010498047,-7.5531005859375,-28.594970703125,49.4232177734375
6.649999900000001,-0.9888052940368652,-2.7222073078155518,8.736441612243652,-6.195068359375,-26.0162353515625,45.5474853515625
6.6699999000000005,-1.0103530883789062,-2.782062292098999,8.432378768920898,-2.7618408203125,-21.30126953125,40.4052734375
6.6899999,-1.0223240852355957,-2.82515811920166,8.212111473083496,-9.5977783203125,-14.7247314453125,44.189453125
6.709999900000001,-1.0319008827209473,-3.002328872680664,8.092401504516602,-24.5361328125,-12.87841796875,52.9937744140625
6.7299999,-1.0414776802062988,-3.2968156337738037,8.109161376953125,-27.1148681640625,-14.22119140625,48.7518310546875
6.749999900000001,-1.0534487962722778,-3.6990416049957275,8.195352554321289,-20.7366943359375,-15.289306640625,34.8663330078125
6.7699999,-1.0462661981582642,-4.0964789390563965,8.269572257995605,-14.1143798828125,-15.625,29.5257568359375
6.789999900000001,-1.0223240852355957,-4.417302131652832,8.245630264282227,-7.0953369140625,-18.73779296875,31.829833984375
6.8099999,-0.9816226959228516,-4.620809078216553,8.128314971923828,-2.899169921875,-16.204833984375,31.951904296875
6.829999900000001,-0.9385270476341248,-4.78122091293335,8.030152320861816,-0.6561279296875,-6.744384765625,25.8026123046875
6.8499999,-0.8954314589500427,-5.011064052581787,8.066065788269043,0.91552734375,-1.7242431640625,24.5819091796875
6.869999900000001,-0.8020575642585754,-5.374982833862305,8.291120529174805,-5.157470703125,-9.0179443359375,21.1639404296875
6.8899999,-0.6775590777397156,-5.731719017028809,8.506598472595215,-1.1749267578125,-24.9176025390625,4.669189453125
6.909999900000001,-0.48602294921875,-6.011840343475342,8.65982723236084,11.4593505859375,-21.6217041015625,-10.4217529296875
6.9299999,-0.29209262132644653,-6.205770969390869,8.635885238647461,20.20263671875,-10.986328125,-8.4228515625
6.949999900000001,-0.10055647045373917,-6.244078159332275,8.537723541259766,13.7481689453125,-8.72802734375,-7.0343017578125
6.9699999,0.10773907601833344,-6.524199485778809,8.434772491455078,6.3323974609375,-10.833740234375,-12.63427734375
6.989999900000001,0.3232172429561615,-6.856993675231934,8.355764389038086,23.8800048828125,-13.9312744140625,-35.5224609375
7.0099999,0.5889736413955688,-7.113173484802246,8.159439086914062,31.2347412109375,-12.176513671875,-57.31201171875
7.029999900000001,0.8954314589500427,-6.957550048828125,8.044517517089844,14.4500732421875,2.777099609375,-57.281494140625
7.0499999,1.2234370708465576,-6.50025749206543,7.965508937835693,-6.6680908203125,13.8397216796875,-43.39599609375
7.069999900000001,1.5969325304031372,-6.038176536560059,8.003816604614258,-10.3759765625,15.228271484375,-40.252685546875
7.0899999000000005,1.9536685943603516,-5.829881191253662,8.128314971923828,5.462646484375,13.5345458984375,-56.6864013671875
7.109999900000001,2.2673089504241943,-5.767632007598877,8.233659744262695,22.0184326171875,10.6964111328125,-75.4241943359375
7.1299999000000005,2.5522189140319824,-5.643133640289307,8.279149055480957,27.923583984375,11.16943359375,-76.568603515625
7.149999900000001,2.8227639198303223,-5.157110691070557,8.391676902770996,14.434814453125,22.430419921875,-69.000244140625
7.1699999000000005,3.095702886581421,-4.481945514678955,8.635885238647461,-2.288818359375,29.6783447265625,-62.408447265625
7.1899999,3.380612850189209,-3.840299606323242,8.983044624328613,-2.9754638671875,22.52197265625,-60.5926513671875
7.209999900000001,3.641580820083618,-3.3207578659057617,9.409213066101074,13.0615234375,14.0533447265625,-65.8721923828125
7.2299999,3.845088005065918,-2.806004285812378,9.737217903137207,23.2696533203125,10.3759765625,-70.648193359375
7.249999900000001,3.950432777404785,-2.276885747909546,9.883264541625977,10.7421875,10.4827880859375,-58.441162109375
7.2699999,3.9408559799194336,-1.7046716213226318,9.8784761428833,-8.819580078125,12.725830078125,-38.1317138671875
7.289999900000001,3.8163576126098633,-1.3192051649093628,9.859322547912598,-15.19775390625,18.06640625,-24.9176025390625
7.3099999,3.5960910320281982,-1.3120225667953491,9.840168952941895,-9.979248046875,15.3656005859375,-22.4609375
7.329999900000001,3.339911460876465,-1.5634137392044067,9.837775230407715,2.9296875,8.36181640625,-28.3203125
7.3499999,3.114856481552124,-1.86508309841156,9.804255485534668,3.11279296875,7.6141357421875,-28.717041015625
7.369999900000001,2.9472622871398926,-1.9560627937316895,9.703699111938477,-7.6904296875,12.9547119140625,-19.4854736328125
7.3899999,2.82515811920166,-1.8507179021835327,9.493009567260742,-12.8631591796875,14.2974853515625,-6.7291259765625
7.409999900000001,2.7317841053009033,-1.5155296325683594,9.301473617553711,-8.2550048828125,16.7999267578125,-2.5634765625
7.4299999,2.580949544906616,-1.1276689767837524,9.0859956741333,-6.8359375,19.1192626953125,3.6163330078125
7.449999900000001,2.341529369354248,-0.768538773059845,8.89685344696045,-25.5889892578125,25.69580078125,17.8680419921875
7.4699999,2.006340980529785,-0.5506663918495178,8.83939266204834,-43.304443359375,36.80419921875,31.92138671875
7.489999900000001,1.5921441316604614,-0.6057330369949341,8.975862503051758,-32.3333740234375,38.5284423828125,34.7442626953125
7.5099999,1.1851298809051514,-0.8403648138046265,9.332598686218262,-9.0179443359375,26.641845703125,28.9764404296875
7.529999900000001,0.8044517636299133,-1.1037269830703735,9.785101890563965,2.8839111328125,11.3677978515625,27.1453857421875
7.5499999,0.4884171485900879,-1.3335703611373901,10.113107681274414,-18.310546875,4.791259765625,39.0625
7.569999900000001,0.22505496442317963,-1.6496049165725708,10.26394271850586,-32.1502685546875,7.8582763671875,51.57470703125
7.5899999000000005,-0.12210428714752197,-2.1475989818573,10.283096313476562,9.124755859375,-6.2713623046875,27.3895263671875
7.609999900000001,-0.2322375625371933,-2.145204782485962,10.261548042297363,13.946533203125,-16.05224609375,36.4837646484375
7.6299999000000005,-0.3280056416988373,-2.0685901641845703,10.213664054870605,-1.40380859375,-14.129638671875,54.931640625
7.649999900000001,-0.45489832758903503,-2.0877439975738525,10.072406768798828,-8.9263916015625,-11.3677978515625,54.99267578125
7.6699999000000005,-0.5841852426528931,-2.276885747909546,9.947908401489258,4.638671875,-12.115478515625,37.445068359375
7.6899999,-0.6847416758537292,-2.449268341064453,9.916783332824707,16.754150390625,-15.6402587890625,25.08544921875
7.709999900000001,-0.7445967197418213,-2.4588451385498047,9.964667320251465,8.3770751953125,-21.7132568359375,36.0565185546875
7.7299999,-0.7613561153411865,-2.3247697353363037,10.041281700134277,-0.0457763671875,-24.59716796875,48.9349365234375
7.749999900000001,-0.7613561153411865,-2.161964178085327,10.04846477508545,-3.7384033203125,-26.9775390625,45.196533203125
7.7699999,-0.7733271718025208,-2.1140801906585693,9.955090522766113,-6.988525390625,-29.876708984375,38.330078125
7.789999900000001,-0.7996633648872375,-2.1308395862579346,9.799467086791992,-7.4615478515625,-32.4859619140625,43.6859130859375
7.8099999,-0.8403648138046265,-2.252943754196167,9.57201862335205,-13.9007568359375,-33.447265625,54.718017578125
7.829999900000001,-0.8762778043746948,-2.5498247146606445,9.299078941345215,-24.1241455078125,-32.989501953125,55.2825927734375
7.8499999,-0.8882488012313843,-2.9951462745666504,8.951920509338379,-20.2789306640625,-33.3251953125,42.8924560546875
7.869999900000001,-0.871489405632019,-3.464409828186035,8.611943244934082,-7.171630859375,-31.982421875,32.8521728515625
7.8899999,-0.8140285611152649,-3.622427225112915,8.35336971282959,-3.143310546875,-28.3355712890625,34.332275390625
7.909999900000001,-0.730231523513794,-3.624821424484253,8.20732307434082,-11.474609375,-26.8707275390625,47.9583740234375
7.9299999,-0.646434485912323,-3.5913026332855225,8.101978302001953,-13.397216796875,-28.717041015625,54.168701171875
7.949999900000001,-0.5889736413955688,-3.6798880100250244,8.039729118347168,-6.805419921875,-24.2767333984375,42.724609375
7.9699999,-0.5793967843055725,-3.9600095748901367,7.915230751037598,0.2899169921875,-17.8985595703125,34.149169921875
7.989999900000001,-0.5626373887062073,-4.3622355461120605,7.869740962982178,3.4332275390625,-11.5966796875,37.384033203125
8.0099999,-0.545877993106842,-4.850652694702148,7.860164165496826,-3.41796875,-10.7421875,36.62109375
8.0299999,-0.47405192255973816,-5.303156852722168,7.975085735321045,-4.1351318359375,-11.627197265625,19.989013671875
8.049999900000001,-0.3471592366695404,-5.700594425201416,8.073247909545898,1.7852783203125,-12.8021240234375,4.4403076171875
8.069999900000001,-0.17717093229293823,-5.9088897705078125,8.154650688171387,4.5013427734375,-11.3677978515625,2.3040771484375
8.0899999,0.05506663769483566,-5.901707172393799,8.142680168151855,2.4871826171875,-8.0108642578125,2.8533935546875
8.1099999,0.2753331959247589,-5.767632007598877,8.147468566894531,-0.6103515625,-2.5482177734375,0.48828125
8.129999900000001,0.45489832758903503,-5.729324817657471,8.14028549194336,2.227783203125,-1.4495849609375,-0.762939453125
8.149999900000001,0.5123591423034668,-5.870582580566406,8.161833763122559,13.1683349609375,-4.5013427734375,-4.241943359375
8.1699999,0.5051765441894531,-6.160281181335449,8.149862289428711,22.552490234375,-4.638671875,-17.303466796875
8.1899999,0.48602294921875,-6.629544734954834,8.087613105773926,24.8260498046875,0.18310546875,-26.91650390625
8.2099999,0.5291185975074768,-6.979097843170166,8.015787124633789,18.7835693359375,8.209228515625,-37.90283203125
8.229999900000001,0.6607996821403503,-7.110779285430908,7.994239330291748,7.2021484375,13.2904052734375,-44.2657470703125
8.2499999,0.9002198576927185,-7.046135425567627,8.101978302001953,3.9215087890625,16.2200927734375,-44.2962646484375
8.2699999,1.1971008777618408,-6.938396453857422,8.362946510314941,12.054443359375,16.4947509765625,-49.1485595703125
8.2899999,1.4939818382263184,-6.72531270980835,8.585607528686523,19.8822021484375,7.9345703125,-67.0013427734375
8.309999900000001,1.7525556087493896,-6.538564682006836,8.678980827331543,23.5595703125,2.349853515625,-77.362060546875
8.3299999,1.9560627937316895,-6.19379997253418,8.609549522399902,15.6707763671875,12.176513671875,-76.385498046875
8.3499999,2.1092917919158936,-5.710171222686768,8.44195556640625,1.8768310546875,25.6500244140625,-75.9124755859375
8.3699999,2.255337953567505,-5.245696067810059,8.307879447937012,0.48828125,27.557373046875,-77.545166015625
8.389999900000001,2.43011474609375,-4.809951305389404,8.372523307800293,12.4664306640625,26.092529296875,-84.7015380859375
8.4099999,2.6192567348480225,-4.355052947998047,8.585607528686523,15.838623046875,25.726318359375,-92.4072265625
8.4299999,2.82515811920166,-3.794809579849243,8.908824920654297,8.7127685546875,26.06201171875,-91.644287109375
8.4499999,3.043030261993408,-3.1052796840667725,9.217676162719727,4.0283203125,24.4598388671875,-82.7789306640625
8.469999900000001,3.2537200450897217,-2.3582887649536133,9.524134635925293,5.340576171875,24.0631103515625,-72.052001953125
8.4899999,3.4308910369873047,-1.6376339197158813,9.823410034179688,7.4005126953125,22.705078125,-63.385009765625
8.5099999,3.557783842086792,-1.0893617868423462,10.08437728881836,5.2337646484375,17.852783203125,-52.093505859375
8.5299999,3.6152446269989014,-0.7709329724311829,10.316615104675293,-0.091552734375,12.5885009765625,-38.87939453125
8.549999900000001,3.5889084339141846,-0.7398083209991455,10.369287490844727,-3.143310546875,8.636474609375,-31.5093994140625
8.569999900000001,3.4596214294433594,-0.9840168952941895,10.230423927307129,-3.6468505859375,9.1552734375,-29.876708984375
8.5899999,3.272873640060425,-1.3239935636520386,9.907206535339355,-5.4779052734375,14.5263671875,-31.0211181640625
8.6099999,3.0382418632507324,-1.534683346748352,9.5624418258667,-5.828857421875,20.263671875,-29.327392578125
8.629999900000001,2.80361008644104,-1.5059528350830078,9.35654067993164,-0.91552734375,22.247314453125,-21.026611328125
8.649999900000001,2.5713725090026855,-1.3000515699386597,9.32302188873291,3.753662109375,17.852783203125,-7.62939453125
8.6699999,2.363077163696289,-1.1276689767837524,9.469067573547363,6.744384765625,14.6636962890625,-0.5340576171875
8.6899999,2.1571757793426514,-1.1013327836990356,9.660603523254395,17.730712890625,9.9029541015625,-5.2642822265625
8.709999900000001,1.9536685943603516,-0.8882488012313843,9.880870819091797,29.2205810546875,4.6844482421875,-14.4805908203125
8.729999900000001,1.7190368175506592,-0.5315127968788147,9.974244117736816,27.8472900390625,0.9918212890625,2.62451171875
8.7499999,1.4652514457702637,-0.016759412363171577,10.000580787658691,16.2353515625,5.096435546875,34.66796875
8.7699999,1.1851298809051514,0.3998316824436188,9.964667320251465,0.2593994140625,13.9617919921875,48.4771728515625
8.7899999,0.9026140570640564,0.5961562395095825,9.962273597717285,-2.6702880859375,14.1143798828125,45.1507568359375
8.809999900000001,0.6392518281936646,0.667982280254364,10.036493301391602,5.7220458984375,8.636474609375,48.736572265625
8.8299999,0.38546648621559143,0.6943184733390808,10.14902114868164,-15.0604248046875,7.598876953125,76.5228271484375
8.8499999,0.13407529890537262,0.6177040338516235,10.338163375854492,-47.8057861328125,15.6097412109375,100.128173828125
8.8699999,-0.09816227108240128,0.26575639843940735,10.606313705444336,-46.44775390625,12.725830078125,95.6573486328125
8.889999900000001,-0.304063618183136,-0.4213795065879822,10.876858711242676,-29.1748046875,-9.2926025390625,78.2470703125
8.9099999,-0.47165772318840027,-1.0893617868423462,11.077971458435059,-14.312744140625,-30.059814453125,64.7735595703125
8.9299999,-0.5985504388809204,-1.6280571222305298,10.893617630004883,-13.48876953125,-36.651611328125,66.4520263671875
8.9499999,-0.6823474764823914,-1.843535304069519,10.376470565795898,-19.7601318359375,-24.5361328125,69.244384765625
8.969999900000001,-0.7230489253997803,-1.8914192914962769,9.701305389404297,-23.7579345703125,-9.27734375,65.9637451171875
8.9899999,-0.7158663272857666,-1.7980455160140991,9.129091262817383,-24.505615234375,-12.603759765625,62.744140625
9.0099999,-0.6799532771110535,-1.6711528301239014,8.860940933227539,-16.8609619140625,-21.1334228515625,65.2008056640625
9.0299999,-0.6607996821403503,-1.5729905366897583,8.769960403442383,-14.9078369140625,-26.2908935546875,70.7244873046875
9.049999900000001,-0.689530074596405,-1.6400281190872192,8.683769226074219,-17.6849365234375,-25.7720947265625,72.4639892578125
9.069999900000001,-0.7661445140838623,-1.867477297782898,8.513781547546387,-21.2554931640625,-21.2249755859375,69.3206787109375
9.0899999,-0.9600749015808105,-2.6839001178741455,8.154650688171387,-18.3868408203125,-15.1519775390625,63.507080078125
9.1099999,-1.0271124839782715,-3.066972494125366,8.14028549194336,-18.49365234375,-17.08984375,62.042236328125
9.129999900000001,-1.0678139925003052,-3.4380736351013184,8.169015884399414,-14.0838623046875,-22.2015380859375,61.5997314453125
9.149999900000001,-1.0989385843276978,-3.73016619682312,8.209717750549316,-8.6669921875,-23.2391357421875,54.87060546875
9.1699999,-1.1204863786697388,-4.003105163574219,8.200140953063965,-8.087158203125,-19.1650390625,49.6368408203125
9.1899999,-1.137245774269104,-4.173093795776367,8.17141056060791,-8.4228515625,-17.8680419921875,48.7060546875
9.209999900000001,-1.1276689767837524,-4.28322696685791,8.176198959350586,-8.087158203125,-18.6614990234375,46.9818115234375
9.229999900000001,-1.1420341730117798,-4.529829502105713,8.164227485656738,1.0528564453125,-22.0489501953125,45.379638671875
9.2499999,-1.1971008777618408,-4.948814868927002,8.13789176940918,9.6282958984375,-20.81298828125,36.2091064453125
9.2699999,-1.2952631711959839,-5.537788391113281,8.085219383239746,6.7291259765625,-14.46533203125,21.514892578125
9.2899999,-1.3479355573654175,-6.114790916442871,8.085219383239746,4.1961669921875,-8.0108642578125,7.568359375
9.309999900000001,-1.2880805730819702,-6.574477672576904,8.152256965637207,10.894775390625,-8.8043212890625,-0.457763671875
9.3299999,-1.1085153818130493,-6.754043102264404,8.365341186523438,19.744873046875,-10.894775390625,-8.087158203125
9.3499999,-0.849941611289978,-6.825869083404541,8.647856712341309,19.3939208984375,-12.20703125,-12.298583984375
9.3699999,-0.5817909836769104,-6.809109687805176,8.853757858276367,8.0413818359375,-13.0157470703125,-18.0206298828125
9.389999900000001,-0.3064578175544739,-6.7708024978637695,8.975862503051758,-3.8909912109375,-7.5225830078125,-25.08544921875
9.4099999,-0.033518824726343155,-6.813898086547852,8.978256225585938,-0.6103515625,-1.953125,-29.7088623046875
9.4299999,0.2322375625371933,-6.825869083404541,8.851364135742188,9.5367431640625,-4.852294921875,-41.015625
9.4499999,0.4620809257030487,-6.756437301635742,8.674192428588867,11.7340087890625,-5.7830810546875,-51.5289306640625
9.469999900000001,0.7110779285430908,-6.564900875091553,8.437167167663574,2.8076171875,3.5552978515625,-53.2379150390625
9.4899999,1.0199298858642578,-6.282385349273682,8.276755332946777,-13.1378173828125,17.51708984375,-48.2177734375
9.5099999,1.414973258972168,-5.983109951019287,8.305485725402832,-15.1214599609375,21.7437744140625,-48.919677734375
9.5299999,1.8171991109848022,-5.722142219543457,8.528146743774414,-4.150390625,11.6119384765625,-54.50439453125
9.549999900000001,2.1164743900299072,-5.623979568481445,8.87291145324707,7.6751708984375,2.4871826171875,-55.3436279296875
9.569999900000001,2.274491548538208,-5.477933406829834,9.193734169006348,5.401611328125,5.218505859375,-59.50927734375
9.5899999,2.2864625453948975,-5.398924827575684,9.334992408752441,-7.7056884765625,8.60595703125,-61.8896484375
9.6099999,2.2242133617401123,-5.315127849578857,9.32541561126709,-5.645751953125,7.6141357421875,-64.361572265625
9.629999900000001,2.1499931812286377,-5.166687488555908,9.141061782836914,8.5296630859375,4.547119140625,-72.7996826171875
9.649999900000001,2.1092917919158936,-4.865017890930176,8.951920509338379,16.05224609375,9.2315673828125,-79.6356201171875
9.6699999,2.1356279850006104,-4.3622355461120605,8.741230010986328,10.1776123046875,13.8702392578125,-78.338623046875
9.6899999,2.2242133617401123,-3.732560396194458,8.609549522399902,-0.3204345703125,14.7705078125,-68.328857421875
9.709999900000001,2.346317768096924,-3.136404275894165,8.588001251220703,-6.8359375,18.8751220703125,-62.896728515625
9.729999900000001,2.470816135406494,-2.7054479122161865,8.633491516113281,-5.340576171875,20.8740234375,-63.995361328125
9.7499999,2.5953147411346436,-2.3774423599243164,8.757989883422852,2.3040771484375,18.9666748046875,-65.643310546875
9.7699999,2.717418909072876,-2.1164743900299072,8.892065048217773,4.547119140625,15.19775390625,-56.9305419921875
9.7899999,2.8395233154296875,-1.6879122257232666,9.064447402954102,2.9144287109375,16.4642333984375,-44.7998046875
9.809999900000001,2.9233202934265137,-1.3192051649093628,9.21288776397705,-6.5155029296875,22.4151611328125,-29.9530029296875
9.8299999,2.9735984802246094,-1.072602391242981,9.370905876159668,-10.8642578125,22.0184326171875,-17.4560546875
9.8499999,2.9664158821105957,-1.091755986213684,9.485827445983887,-2.6702880859375,17.1661376953125,-14.923095703125
9.8699999,2.9065608978271484,-1.3048399686813354,9.50737476348877,3.11279296875,13.36669921875,-16.6473388671875
9.889999900000001,2.7988216876983643,-1.4221558570861816,9.485827445983887,-0.7781982421875,18.585205078125,-16.41845703125
9.9099999,2.628833532333374,-1.3431471586227417,9.461885452270508,-10.009765625,22.6898193359375,-0.9918212890625
9.9299999,2.4013843536376953,-1.3192051649093628,9.564835548400879,-4.486083984375,17.791748046875,21.3470458984375
9.9499999,2.1308395862579346,-1.3407529592514038,9.80904483795166,11.90185546875,7.080078125,18.2342529296875
9.969999900000001,1.843535304069519,-1.623268723487854,9.947908401489258,18.5394287109375,-5.6610107421875,4.913330078125
9.9899999,1.580173134803772,-1.922544002532959,9.916783332824707,18.06640625,-5.0811767578125,3.5400390625
10.0099999,1.3407529592514038,-2.006340980529785,9.641449928283691,12.054443359375,4.852294921875,12.02392578125
10.0299999,1.1252747774124146,-2.0901381969451904,9.32541561126709,8.758544921875,12.603759765625,25.0091552734375
10.049999900000001,0.9217676520347595,-2.22660756111145,9.14345645904541,16.17431640625,11.65771484375,19.4549560546875
10.069999900000001,0.7134721279144287,-2.5522189140319824,9.050082206726074,16.3726806640625,4.21142578125,6.4544677734375
10.0899999,0.5195417404174805,-2.87064790725708,9.14345645904541,7.50732421875,9.918212890625,-0.3814697265625
10.1099999,0.35673606395721436,-2.9496564865112305,9.284713745117188,-1.2664794921875,14.7857666015625,4.5318603515625
10.129999900000001,0.2537853717803955,-2.9161376953125,9.516951560974121,5.4473876953125,8.97216796875,16.0064697265625
10.149999900000001,0.21787235140800476,-2.82515811920166,9.792284965515137,12.4359130859375,-2.13623046875,15.3961181640625
10.1699999,0.24181437492370605,-2.829946517944336,9.947908401489258,11.810302734375,-8.6517333984375,4.6844482421875
10.1899999,0.29209262132644653,-2.913743495941162,9.897629737854004,9.82666015625,-8.026123046875,1.1138916015625
10.209999900000001,0.35913026332855225,-2.9161376953125,9.660603523254395,2.9144287109375,-2.1820068359375,3.1585693359375
10.229999900000001,0.42377370595932007,-2.873042106628418,9.385271072387695,-4.1046142578125,2.166748046875,7.5836181640625
10.2499999,0.49559974670410156,-2.7964274883270264,9.193734169006348,-3.6468505859375,0.640869140625,6.591796875
10.2699999,0.5674257874488831,-2.784456491470337,9.081207275390625,-0.5645751953125,-4.2266845703125,3.2196044921875
10.2899999,0.6368576288223267,-2.8155810832977295,9.033323287963867,0.7476806640625,-4.2724609375,1.251220703125
10.309999900000001,0.6991068720817566,-2.892195701599121,8.987833023071289,-1.007080078125,-0.9765625,1.9073486328125
10.3299999,0.7469909191131592,-2.964021682739258,8.949525833129883,-2.7008056640625,0.4119873046875,1.52587890625
10.3499999,0.7948749661445618,-3.045424461364746,8.949525833129883,-5.340576171875,0.335693359375,0.1220703125
10.3699999,0.8571242094039917,-3.114856481552124,9.002198219299316,-2.532958984375,0.3814697265625,-1.2969970703125
10.389999900000001,0.933738648891449,-3.1435868740081787,9.045293807983398,1.3885498046875,-1.312255859375,-2.9144287109375
10.4099999,1.0247182846069336,-3.093308687210083,9.083600997924805,1.46484375,-0.6256103515625,-3.265380859375
10.4299999,1.1204863786697388,-2.9712042808532715,9.117119789123535,-0.3509521484375,2.13623046875,-0.6866455078125
10.4499999,1.194706678390503,-2.8395233154296875,9.138668060302734,-4.180908203125,3.0975341796875,3.84521484375
10.469999900000001,1.2401964664459229,-2.7461493015289307,9.188945770263672,-4.486083984375,2.74658203125,5.4779052734375
10.4899999,1.2497732639312744,-2.75812029838562,9.239224433898926,-3.7689208984375,1.617431640625,4.82177734375
10.5099999,1.2306196689605713,-2.8443117141723633,9.27034854888916,-2.99072265625,1.2054443359375,3.2806396484375
10.5299999,1.1971008777618408,-2.980781078338623,9.279925346374512,-2.471923828125,2.288818359375,3.1890869140625
10.549999900000001,1.1635819673538208,-3.1244332790374756,9.279925346374512,-2.1514892578125,3.1280517578125,2.62451171875
10.569999900000001,1.139639973640442,-3.2130186557769775,9.282320022583008,-0.244140625,2.3345947265625,-0.244140625
10.5899999,1.1420341730117798,-3.2321722507476807,9.320627212524414,-0.18310546875,2.3956298828125,-1.129150390625
10.6099999,1.1659762859344482,-3.1459810733795166,9.342175483703613,-1.46484375,2.99072265625,-0.4730224609375
10.629999900000001,1.2066776752471924,-3.0382418632507324,9.344569206237793,-1.6021728515625,3.0364990234375,0.79345703125
10.649999900000001,1.2425906658172607,-2.942473888397217,9.368511199951172,-0.48828125,3.173828125,0.9918212890625
10.6699999,1.2737152576446533,-2.889801502227783,9.397241592407227,-0.518798828125,2.4261474609375,1.6326904296875
10.6899999,1.292868971824646,-2.8634653091430664,9.452308654785156,-0.5035400390625,1.3427734375,1.5106201171875
10.709999900000001,1.2976573705673218,-2.8802247047424316,9.50737476348877,0.1068115234375,0.0762939453125,1.7547607421875
10.729999900000001,1.290474772453308,-2.918531894683838,9.53849983215332,0.152587890625,-0.8087158203125,1.5411376953125
10.7499999,1.2737152576446533,-2.978386878967285,9.552865028381348,-0.823974609375,-0.1983642578125,0.9002685546875
10.7699999,1.2521674633026123,-3.0119056701660156,9.57201862335205,-1.8463134765625,0.1068115234375,0.1068115234375
10.7899999,1.2234370708465576,-3.0358476638793945,9.612719535827637,-1.2664794921875,-1.3580322265625,0.1373291015625
10.809999900000001,1.1994950771331787,-3.050212860107422,9.730035781860352,-1.3885498046875,-2.99072265625,1.6937255859375
10.8299999,1.1875240802764893,-3.095702886581421,9.923966407775879,-0.885009765625,-4.9285888671875,1.28173828125
10.8499999,1.1827356815338135,-3.155557870864868,10.153809547424316,-0.3814697265625,-10.43701171875,-1.9683837890625
10.8699999,1.194706678390503,-3.2106244564056396,10.508151054382324,-4.6539306640625,-12.725830078125,-3.5400390625
10.889999900000001,1.2425906658172607,-3.3470940589904785,10.948684692382812,-9.490966796875,-15.9454345703125,0.4730224609375
10.9099999,1.3072341680526733,-3.550601005554199,11.425130844116211,-6.5460205078125,-28.839111328125,-3.0364990234375
10.9299999,1.3862427473068237,-3.780444383621216,11.817779541015625,-1.922607421875,-43.975830078125,-14.617919921875
10.9499999,1.4676456451416016,-4.0294413566589355,11.963826179504395,-4.0130615234375,-51.3916015625,-20.1568603515625
10.969999900000001,1.558625340461731,-4.146757125854492,11.808202743530273,-12.4053955078125,-52.032470703125,-21.0113525390625
10.9899999,1.659181833267212,-4.086902141571045,11.355698585510254,-17.059326171875,-54.3975830078125,-24.993896484375
11.0099999,1.7956513166427612,-3.8953661918640137,10.702081680297852,-15.6707763671875,-57.891845703125,-29.5562744140625
11.0299999,1.946485996246338,-3.5625722408294678,9.897629737854004,-12.115478515625,-59.9822998046875,-32.318115234375
11.049999900000001,2.0925323963165283,-3.1316158771514893,8.911218643188477,-11.04736328125,-59.7076416015625,-30.4412841796875
11.069999900000001,2.205059766769409,-2.6647465229034424,7.7643961906433105,-14.404296875,-52.0172119140625,-23.223876953125
11.0899999,2.27209734916687,-2.1595699787139893,6.512228488922119,-11.23046875,-38.4674072265625,-19.683837890625
11.1099999,2.248155355453491,-1.699883222579956,5.094861030578613,-1.2054443359375,-28.594970703125,-15.045166015625
11.129999900000001,2.1332337856292725,-1.2761094570159912,3.6966474056243896,5.0506591796875,-8.575439453125,-7.4615478515625
11.149999900000001,1.9105730056762695,-0.8978256583213806,2.382230758666992,4.8980712890625,20.5230712890625,0.3662109375
11.1699999,1.5969325304031372,-0.5961562395095825,1.4053963422775269,3.265380859375,53.7261962890625,11.9171142578125
11.1899999,1.2473790645599365,-0.5027823448181152,1.0055646896362305,-0.54931640625,83.5723876953125,26.4892578125
11.209999900000001,0.9624691009521484,-0.5817909836769104,1.3694833517074585,10.162353515625,104.9346923828125,31.2652587890625
11.229999900000001,0.8236053586006165,-0.6751648783683777,2.4468741416931152,31.6162109375,111.907958984375,25.8941650390625
11.2499999,0.7996633648872375,-0.7110779285430908,3.9647979736328125,43.8232421875,110.2752685546875,33.26416015625
11.2699999,0.7781155705451965,-0.7158663272857666,5.652710437774658,16.7999267578125,122.37548828125,56.1981201171875
11.2899999,0.608127236366272,-1.1085153818130493,7.486668586730957,-28.7322998046875,146.66748046875,80.5511474609375
11.309999900000001,0.3016694188117981,-1.987187385559082,9.95748519897461,-3.1585693359375,156.55517578125,80.3070068359375
11.3299999,-0.07661445438861847,-3.4524388313293457,12.880805015563965,31.6619873046875,107.7728271484375,58.1512451171875
11.3499999,-0.40940847992897034,-5.063736438751221,15.895105361938477,19.7601318359375,32.257080078125,33.905029296875
11.3699999,-0.6105214357376099,-6.440402507781982,18.41380500793457,-7.598876953125,3.8604736328125,19.04296875
11.389999900000001,-0.7134721279144287,-7.474697589874268,19.661184310913086,-18.402099609375,-10.7269287109375,3.6163330078125
11.4099999,-0.706289529800415,-7.95832633972168,19.699491500854492,-11.2152099609375,-36.6668701171875,-23.040771484375
11.4299999,-0.6009446382522583,-8.030152320861816,18.806453704833984,-15.0146484375,-61.6455078125,-43.4417724609375
11.4499999,-0.38546648621559143,-7.474697589874268,17.458518981933594,-13.8702392578125,-77.7130126953125,-57.281494140625
11.469999900000001,-0.1388636976480484,-6.497863292694092,15.816096305847168,-15.045166015625,-91.461181640625,-59.3109130859375
11.4899999,0.1149216815829277,-5.355829238891602,14.166491508483887,-23.3154296875,-102.9510498046875,-54.1839599609375
11.5099999,0.3280056416988373,-4.23773717880249,12.567164421081543,-25.787353515625,-109.130859375,-56.8695068359375
11.5299999,0.49799394607543945,-3.3494882583618164,10.994174003601074,-24.5208740234375,-114.105224609375,-61.70654296875
11.549999900000001,0.629675030708313,-2.647987127304077,9.375694274902344,-20.599365234375,-114.8529052734375,-59.9822998046875
11.569999900000001,0.7398083209991455,-1.9608511924743652,7.625532627105713,-15.1214599609375,-106.93359375,-54.901123046875
11.5899999,0.8595184087753296,-1.235408067703247,5.750872611999512,-12.3443603515625,-87.5396728515625,-43.51806640625
11.6099999,0.9816226959228516,-0.5027823448181152,3.7158010005950928,-5.43212890625,-66.162109375,-27.8778076171875
11.629999900000001,1.115697979927063,0.1173158809542656,1.6041151285171509,14.1448974609375,-42.3736572265625,-14.7247314453125
11.649999900000001,1.2210428714752197,0.586579442024231,-0.4596867263317108,25.20751953125,-2.9144287109375,-6.744384765625
11.6699999,1.256955862045288,0.9576807022094727,-2.1068975925445557,24.96337890625,49.3011474609375,4.730224609375
11.6899999,1.2306196689605713,1.1276689767837524,-2.9544448852539062,33.3404541015625,105.2398681640625,27.4810791015625
11.709999900000001,1.1468225717544556,1.2497732639312744,-2.6862943172454834,49.9114990234375,139.16015625,45.1202392578125
11.729999900000001,0.9911994934082031,1.237802267074585,-1.1755530834197998,55.1605224609375,164.886474609375,52.886962890625
11.7499999,0.6560112833976746,1.048660397529602,1.4460978507995605,7.5225830078125,188.262939453125,68.78662109375
11.7699999,0.05506663769483566,0.47644615173339844,5.094861030578613,-20.599365234375,206.7413330078125,103.3782958984375
11.7899999,-0.730231523513794,-0.8978256583213806,10.072406768798828,18.0816650390625,204.315185546875,126.190185546875
11.809999900000001,-1.5203180313110352,-3.1962592601776123,15.545551300048828,33.8897705078125,125.1220703125,103.02734375
11.8299999,-2.169146776199341,-5.940014362335205,20.283676147460938,-2.4871826171875,7.99560546875,35.614013671875
11.8499999,-2.4372973442077637,-8.348581314086914,23.448810577392578,-14.1143798828125,-33.6761474609375,-9.2315673828125
11.8699999,-2.367865562438965,-9.794678688049316,23.889345169067383,-10.7879638671875,-46.1273193359375,-22.125244140625
11.889999900000001,-1.9943699836730957,-9.981427192687988,22.3570556640625,-21.4080810546875,-61.1114501953125,-37.8570556640625
11.9099999,-1.3934253454208374,-9.064447402954102,19.694704055786133,-24.7039794921875,-84.1827392578125,-62.5152587890625
11.9299999,-0.7086837291717529,-7.553706169128418,16.795324325561523,-11.23046875,-102.5848388671875,-69.76318359375
11.9499999,-0.07661445438861847,-5.681440830230713,14.001291275024414,-14.34326171875,-113.9068603515625,-61.9659423828125
11.969999900000001,0.40222588181495667,-3.8091750144958496,11.552022933959961,-26.7181396484375,-110.7177734375,-56.182861328125
11.9899999,0.7015010714530945,-2.3367409706115723,9.454702377319336,-30.94482421875,-101.2420654296875,-49.652099609375
12.0099999,0.8403648138046265,-1.3718775510787964,7.690176010131836,-26.0467529296875,-94.5892333984375,-44.9371337890625
12.0299999,0.8882488012313843,-0.8595184087753296,6.2632317543029785,-13.824462890625,-85.3424072265625,-42.48046875
12.049999900000001,0.8762778043746948,-0.5937620401382446,4.987122058868408,-0.91552734375,-77.9571533203125,-39.36767578125
12.069999900000001,0.8643068075180054,-0.3974374830722809,3.751713991165161,7.8887939453125,-64.697265625,-31.67724609375
12.0899999,0.8906430602073669,0.2585737705230713,1.1516109704971313,9.8876953125,1.7547607421875,-5.55419921875
12.1099999,0.9313444495201111,0.586579442024231,0.06464344263076782,13.519287109375,44.2047119140625,15.411376953125
12.129999900000001,1.0079588890075684,0.751779317855835,-0.5051765441894531,18.5089111328125,81.9549560546875,33.416748046875
12.149999900000001,1.0749965906143188,0.7541735172271729,-0.47165772318840027,32.806396484375,109.130859375,38.6810302734375
12.1699999,1.0462661981582642,0.6512228846549988,0.43095630407333374,30.9906005859375,142.9901123046875,43.304443359375
12.1899999,0.7781155705451965,0.3423708379268646,2.1380221843719482,-8.9263916015625,179.7027587890625,73.0438232421875
12.209999900000001,0.26815059781074524,-0.3734954595565796,5.329493045806885,0.3204345703125,209.3658447265625,105.224609375
12.229999900000001,-0.38067805767059326,-1.7142484188079834,10.08198356628418,19.04296875,192.9473876953125,100.921630859375
12.2499999,-1.1228805780410767,-3.914519786834717,15.478513717651367,-12.359619140625,90.4388427734375,73.18115234375
12.2699999,-1.7166426181793213,-6.426037311553955,20.683507919311523,-23.7579345703125,-0.67138671875,34.5611572265625
12.289999900000002,-2.121262788772583,-8.87051773071289,23.987506866455078,-13.85498046875,-43.9910888671875,-9.979248046875
12.309999900000001,-2.2816741466522217,-10.465055465698242,24.741680145263672,-26.79443359375,-85.5712890625,-49.0875244140625
12.3299999,-2.1380221843719482,-10.812214851379395,23.171083450317383,-35.21728515625,-109.588623046875,-76.6448974609375
12.3499999,-1.7310078144073486,-9.897629737854004,20.23579216003418,-25.482177734375,-111.7706298828125,-84.1064453125
12.3699999,-1.161187767982483,-8.14028549194336,16.8216609954834,-32.073974609375,-114.68505859375,-74.432373046875
12.389999900000001,-0.5674257874488831,-6.081272125244141,13.785813331604004,-39.4744873046875,-122.1160888671875,-72.6318359375
12.4099999,-0.05985504388809204,-4.343081951141357,11.362881660461426,-32.7606201171875,-138.0157470703125,-78.67431640625
12.4299999,0.3016694188117981,-3.0382418632507324,9.481039047241211,-17.15087890625,-147.7813720703125,-87.3565673828125
12.4499999,0.5027823448181152,-2.0805611610412598,7.757213592529297,-4.5623779296875,-148.6053466796875,-87.4481201171875
12.469999900000001,0.586579442024231,-1.2713210582733154,5.789179801940918,2.3956298828125,-135.711669921875,-77.5146484375
12.4899999,0.6440402865409851,-0.26575639843940735,3.5745432376861572,11.138916015625,-99.700927734375,-66.95556640625
12.5099999,0.7445967197418213,0.8212111592292786,1.3335703611373901,19.71435546875,-45.4559326171875,-39.0167236328125
12.5299999,0.9361328482627869,1.7166426181793213,-0.8307880163192749,22.1405029296875,-14.739990234375,1.495361328125
12.549999900000001,1.194706678390503,2.27209734916687,-2.5067291259765625,39.2608642578125,18.3563232421875,19.1497802734375
12.569999900000001,1.4221558570861816,2.3487119674682617,-3.885789394378662,46.356201171875,58.9141845703125,22.6593017578125
12.5899999,1.577778935432434,2.1380221843719482,-4.390965938568115,54.4891357421875,130.950927734375,33.5693359375
12.6099999,1.5155296325683594,2.1068975925445557,-4.060565948486328,38.818359375,180.9234619140625,57.2662353515625
12.629999900000001,1.2210428714752197,2.1380221843719482,-2.056619167327881,13.9617919921875,220.428466796875,92.8802490234375
12.649999900000001,0.6512228846549988,1.8100165128707886,1.5394717454910278,-4.3792724609375,230.5450439453125,124.3438720703125
12.6699999,-0.10055647045373917,0.5602431893348694,6.517016887664795,-22.5372314453125,210.0982666015625,128.2196044921875
12.6899999,-0.8571242094039917,-1.4389152526855469,12.289437294006348,27.6336669921875,161.4990234375,104.278564453125
12.709999900000001,-1.4867992401123047,-3.7014358043670654,17.60935401916504,66.436767578125,90.576171875,67.4285888671875
12.729999900000001,-1.9560627937316895,-5.918466567993164,21.308395385742188,7.4920654296875,22.39990234375,61.58447265625
12.7499999,-2.2218191623687744,-7.510610580444336,23.324312210083008,-44.158935546875,15.289306640625,50.10986328125
12.7699999,-2.3511061668395996,-8.848969459533691,23.252487182617188,-44.3878173828125,-13.916015625,12.786865234375
12.789999900000002,-2.2864625453948975,-9.718064308166504,21.969194412231445,-20.6451416015625,-62.3016357421875,-37.445068359375
12.809999900000001,-2.0015525817871094,-9.746794700622559,19.831172943115234,-14.251708984375,-97.7630615234375,-72.0367431640625
12.8299999,-1.5131354331970215,-8.743624687194824,17.31247329711914,-19.561767578125,-102.6153564453125,-78.5064697265625
12.8499999,-0.9289502501487732,-6.94079065322876,14.657302856445312,-36.529541015625,-100.830078125,-62.8204345703125
12.8699999,-0.3495534360408783,-4.874594688415527,12.310985565185547,-51.2237548828125,-97.5799560546875,-50.811767578125
12.889999900000001,0.12928688526153564,-3.2393548488616943,10.462661743164062,-57.464599609375,-97.259521484375,-48.5076904296875
12.9099999,0.4596867263317108,-2.2457611560821533,9.05247688293457,-50.1708984375,-102.874755859375,-53.070068359375
12.9299999,0.6751648783683777,-1.778891921043396,7.8529815673828125,-32.77587890625,-106.0028076171875,-60.302734375
12.9499999,0.811634361743927,-1.6208745241165161,6.588842868804932,-13.397216796875,-101.531982421875,-57.3272705078125
12.969999900000001,0.933738648891449,-1.4053963422775269,5.099649429321289,-1.8157958984375,-82.5958251953125,-51.08642578125
12.9899999,1.070208191871643,-1.0965443849563599,3.466804027557373,-1.3427734375,-52.6275634765625,-39.581298828125
13.0099999,1.256955862045288,-0.6967126727104187,1.8986018896102905,-0.3509521484375,-18.035888671875,-23.3001708984375
13.0299999,1.5059528350830078,-0.19632454216480255,0.6224924325942993,5.31005859375,11.1083984375,-11.8865966796875
13.049999900000001,1.7741034030914307,0.3902548849582672,-0.22505496442317963,16.7083740234375,37.4755859375,-0.8087158203125
13.069999900000001,2.0231003761291504,1.036689281463623,-0.6344634294509888,23.4832763671875,67.047119140625,21.1639404296875
13.0899999,2.123656988143921,1.5418659448623657,-0.6224924325942993,13.7939453125,106.4300537109375,55.511474609375
13.1099999,1.9776105880737305,1.6400281190872192,0.043095629662275314,12.5274658203125,147.64404296875,80.352783203125
13.129999900000001,1.525106430053711,1.158793568611145,1.6352397203445435,15.716552734375,177.9022216796875,83.984375
13.149999900000001,0.7254431247711182,0.05506663769483566,4.2975921630859375,-7.4615478515625,183.0596923828125,91.583251953125
13.1699999,-0.26575639843940735,-1.625662922859192,8.281543731689453,4.1351318359375,172.18017578125,112.36572265625
13.1899999,-1.237802267074585,-3.9647979736328125,13.26866626739502,25.848388671875,137.7105712890625,108.367919921875
13.209999900000001,-2.1092917919158936,-6.567295074462891,18.04509735107422,0.8544921875,46.844482421875,56.57958984375
13.229999900000001,-2.6144683361053467,-9.153033256530762,21.851879119873047,-6.500244140625,-28.961181640625,3.875732421875
13.2499999,-2.7437551021575928,-10.939107894897461,23.439233779907227,-2.777099609375,-64.8956298828125,-34.759521484375
13.2699999,-2.516305923461914,-11.45146656036377,22.680273056030273,-18.1427001953125,-84.686279296875,-60.6231689453125
13.289999900000002,-1.9369091987609863,-10.654197692871094,20.271705627441406,-25.146484375,-87.188720703125,-70.3887939453125
13.309999900000001,-1.1635819673538208,-8.98543930053711,17.173608779907227,-19.744873046875,-86.8377685546875,-71.746826171875
13.3299999,-0.35913026332855225,-6.921637058258057,14.2431058883667,-25.5126953125,-96.7864990234375,-73.2574462890625
13.3499999,0.3447650372982025,-4.98472785949707,11.949460983276367,-30.8685302734375,-102.264404296875,-70.6024169921875
13.3699999,0.8667010068893433,-3.4955344200134277,10.251971244812012,-30.3497314453125,-105.987548828125,-63.690185546875
13.389999900000001,1.1875240802764893,-2.5019407272338867,8.975862503051758,-20.9197998046875,-107.48291015625,-62.07275390625
13.4099999,1.3407529592514038,-1.965639591217041,7.881711959838867,-5.706787109375,-106.9488525390625,-62.9119873046875
13.4299999,1.3838485479354858,-1.6519991159439087,6.777985095977783,5.279541015625,-102.8594970703125,-60.516357421875
13.4499999,1.3742717504501343,-1.3862427473068237,5.571307182312012,4.6844482421875,-91.9952392578125,-52.3223876953125
13.469999900000001,1.3670891523361206,-1.05105459690094,4.292803764343262,3.47900390625,-72.5555419921875,-40.7867431640625
13.4899999,1.3670891523361206,-0.6512228846549988,2.9448680877685547,8.087158203125,-54.351806640625,-29.84619140625
13.5099999,1.359906554222107,-0.24181437492370605,1.6065093278884888,23.4527587890625,-35.736083984375,-20.538330078125
13.5299999,1.316810965538025,0.2082955539226532,0.3016694188117981,31.73828125,-6.4544677734375,-10.223388671875
13.549999900000001,1.2018892765045166,0.5889736413955688,-0.9289502501487732,16.9525146484375,35.308837890625,9.9029541015625
13.569999900000001,1.0654197931289673,1.015141487121582,-1.7477672100067139,10.345458984375,89.1571044921875,31.6162109375
13.5899999,0.8619126081466675,1.213860273361206,-2.0638017654418945,-2.6397705078125,135.07080078125,56.5032958984375
13.6099999,0.272938996553421,0.7182605266571045,0.5961562395095825,-25.7110595703125,213.4857177734375,98.7701416015625
13.629999900000001,-0.17477671802043915,-0.5530605912208557,4.077325344085693,-45.562744140625,219.78759765625,112.5030517578125
13.649999900000001,-0.6224924325942993,-2.7437551021575928,8.655038833618164,-38.4674072265625,184.4482421875,111.175537109375
13.6699999,-0.9744400978088379,-5.202600479125977,13.94861888885498,29.510498046875,123.992919921875,69.3817138671875
13.6899999,-1.1755530834197998,-7.682993412017822,18.387468338012695,28.9764404296875,55.450439453125,40.9698486328125
13.709999900000001,-1.2066776752471924,-9.569623947143555,21.408950805664062,-19.866943359375,11.8408203125,30.914306640625
13.729999900000001,-1.0749965906143188,-10.615890502929688,22.555774688720703,-14.2822265625,-8.819580078125,6.2103271484375
13.7499999,-0.8571242094039917,-10.975020408630371,21.87342643737793,-5.126953125,-45.1507568359375,-30.853271484375
13.7699999,-0.5554547905921936,-10.539276123046875,20.142419815063477,-6.65283203125,-71.8841552734375,-58.3038330078125
13.789999900000002,-0.22505496442317963,-9.366117477416992,17.877504348754883,-2.25830078125,-83.2977294921875,-65.7958984375
13.809999900000001,0.05506663769483566,-7.7883381843566895,15.5311861038208,-7.2784423828125,-94.3145751953125,-57.12890625
13.8299999,0.23702596127986908,-6.14831018447876,13.457807540893555,-21.1029052734375,-103.21044921875,-56.5185546875
13.8499999,0.33039984107017517,-4.917690277099609,11.738770484924316,-28.0303955078125,-109.5428466796875,-61.82861328125
13.8699999,0.35434186458587646,-4.127603530883789,10.24000072479248,-20.751953125,-115.78369140625,-68.9697265625
13.889999900000001,0.3758896589279175,-3.581725835800171,8.860940933227539,-2.99072265625,-116.1346435546875,-75.6988525390625
13.9099999,0.45010992884635925,-3.066972494125366,7.527369976043701,12.6495361328125,-109.832763671875,-73.577880859375
13.9299999,0.6009446382522583,-2.4612393379211426,6.157886981964111,16.571044921875,-103.0731201171875,-62.9425048828125
13.9499999,0.8140285611152649,-1.7046716213226318,4.790797710418701,11.383056640625,-90.2862548828125,-51.7578125
13.969999900000001,1.0582371950149536,-0.9481038451194763,3.3638534545898438,0.3204345703125,-67.8863525390625,-37.5213623046875
13.9899999,1.3024457693099976,-0.2801215946674347,1.9847931861877441,-3.7384033203125,-34.60693359375,-20.4620361328125
14.0099999,1.525106430053711,0.23702596127986908,0.7661445140838623,2.9144287109375,0.2288818359375,-5.55419921875
14.0299999,1.7334020137786865,0.629675030708313,0.023942016065120697,13.0157470703125,31.890869140625,4.7760009765625
14.049999900000001,1.9129672050476074,0.9145850539207458,-0.3016694188117981,12.542724609375,51.7425537109375,19.6380615234375
14.069999900000001,2.0398597717285156,1.1516109704971313,-0.10534487664699554,13.73291015625,74.951171875,40.3594970703125
14.0899999,2.0374655723571777,1.1875240802764893,0.47644615173339844,10.8184814453125,104.339599609375,65.61279296875
14.1099999,1.8052281141281128,0.8906430602073669,1.4700398445129395,2.9296875,131.1492919921875,84.53369140625
14.129999900000001,1.3000515699386597,0.17477671802043915,3.268085241317749,-0.6256103515625,157.4249267578125,94.42138671875
14.149999900000001,0.545877993106842,-1.3527239561080933,5.959167957305908,-39.4134521484375,167.66357421875,108.489990234375
14.1699999,-0.2561795711517334,-3.5242648124694824,9.550470352172852,-39.55078125,140.777587890625,108.3221435546875
14.1899999,-0.8667010068893433,-6.04775333404541,13.469779014587402,20.69091796875,89.447021484375,69.580078125
14.209999900000001,-1.1204863786697388,-8.343792915344238,16.51280975341797,32.04345703125,24.35302734375,25.0244140625
14.229999900000001,-0.9433154463768005,-9.696516990661621,18.16002082824707,21.1029052734375,-3.3721923828125,-1.6021728515625
14.2499999,-0.4644751250743866,-9.821015357971191,17.92059898376465,10.650634765625,-7.62939453125,-9.5977783203125
14.2699999,0.15562310814857483,-8.89445972442627,16.4074649810791,0.5035400390625,-5.4168701171875,-9.8114013671875
14.289999900000002,0.7422025203704834,-7.386112213134766,14.362815856933594,6.9427490234375,-7.4462890625,-12.1002197265625
14.309999900000001,1.1563993692398071,-5.750872611999512,12.42351245880127,11.4898681640625,-15.899658203125,-12.8021240234375
14.3299999,1.3287819623947144,-4.383783340454102,10.986991882324219,7.4615478515625,-17.88330078125,-8.758544921875
14.3499999,1.2545616626739502,-3.5721490383148193,10.02452278137207,0.8392333984375,-18.7530517578125,-4.0435791015625
14.3699999,1.0079588890075684,-3.2824504375457764,9.428366661071777,-2.7618408203125,-22.2930908203125,-9.1552734375
14.389999900000001,0.706289529800415,-3.399766445159912,9.045293807983398,0.1678466796875,-22.613525390625,-18.37158203125
14.4099999,0.47165772318840027,-3.60566782951355,8.738836288452148,8.11767578125,-19.7906494140625,-22.3388671875
14.4299999,0.363918662071228,-3.6080620288848877,8.446743965148926,7.75146484375,-17.02880859375,-20.69091796875
14.4499999,0.38546648621559143,-3.3255462646484375,8.17141056060791,0.274658203125,-13.12255859375,-13.0767822265625
14.469999900000001,0.4908113479614258,-2.9472622871398926,7.95832633972168,-6.805419921875,-7.01904296875,0.152587890625
14.4899999,0.6057330369949341,-2.674323320388794,7.812280178070068,-7.62939453125,-2.777099609375,8.758544921875
14.5099999,0.689530074596405,-2.674323320388794,7.754819393157959,-4.1961669921875,-0.67138671875,7.14111328125
14.5299999,0.7230489253997803,-2.9472622871398926,7.802703380584717,-2.8228759765625,2.3651123046875,2.62451171875
14.549999900000001,0.7254431247711182,-3.287238836288452,7.95832633972168,-3.0975341796875,6.9732666015625,0.67138671875
14.569999900000001,0.7182605266571045,-3.60566782951355,8.243236541748047,-3.692626953125,9.58251953125,4.2266845703125
14.5899999,0.7230489253997803,-3.8139634132385254,8.619126319885254,-4.8980712890625,7.8582763671875,4.8065185546875
14.6099999,0.7445967197418213,-3.9480385780334473,9.004592895507812,-5.9967041015625,3.0364990234375,2.5482177734375
14.629999900000001,0.7781155705451965,-4.027047157287598,9.294290542602539,-2.4566650390625,0.1678466796875,-0.701904296875
14.649999900000001,0.811634361743927,-4.015076160430908,9.433155059814453,-0.1678466796875,-0.579833984375,-1.2359619140625
14.6699999,0.8331822156906128,-3.936067581176758,9.418789863586426,-0.6866455078125,0.3204345703125,0.4425048828125
14.6899999,0.8379706144332886,-3.8163576126098633,9.346963882446289,-1.6021728515625,1.3885498046875,2.1514892578125
14.709999900000001,0.8188169598579407,-3.734954595565796,9.263166427612305,-1.1138916015625,0.9307861328125,2.44140625
14.729999900000001,0.7852981686592102,-3.7229835987091064,9.21288776397705,-2.105712890625,-0.6866455078125,0.396728515625
14.7499999,0.7493851184844971,-3.751713991165161,9.160215377807617,-0.3814697265625,-2.044677734375,-2.471923828125
14.7699999,0.7206547260284424,-3.773261785507202,9.100360870361328,0.67138671875,-1.617431640625,-3.7841796875
14.789999900000002,0.7134721279144287,-3.7421371936798096,9.028534889221191,1.312255859375,-0.2593994140625,-2.4566650390625
14.809999900000001,0.7230489253997803,-3.6750996112823486,8.959102630615234,0.7781982421875,-0.0152587890625,-0.1068115234375
14.8299999,0.7445967197418213,-3.5960910320281982,8.920795440673828,-0.3204345703125,-0.1678466796875,1.312255859375
14.8499999,0.7661445140838623,-3.576937437057495,8.901641845703125,-0.091552734375,-0.335693359375,1.9378662109375
14.8699999,0.7829039692878723,-3.5936968326568604,8.908824920654297,-0.152587890625,-0.1983642578125,1.6326904296875
14.889999900000001,0.7876923680305481,-3.6583402156829834,8.911218643188477,-0.9613037109375,-0.1678466796875,1.617431640625
14.9099999,0.7829039692878723,-3.7636849880218506,8.920795440673828,-1.678466796875,-0.06103515625,2.7313232421875
14.9299999,0.7781155705451965,-3.8546648025512695,8.939949035644531,0.0762939453125,0.518798828125,0.91552734375
14.9499999,0.7709329724311829,-3.936067581176758,8.956708908081055,1.220703125,0.54931640625,-1.2359619140625
14.969999900000001,0.7709329724311829,-3.9384617805480957,8.990227699279785,1.2054443359375,0.4730224609375,-2.166748046875
14.9899999,0.7781155705451965,-3.8762125968933105,9.030928611755371,0.2899169921875,0.9613037109375,-0.5340576171875
15.0099999,0.7948749661445618,-3.7900211811065674,9.062053680419922,-0.54931640625,0.8087158203125,1.739501953125
15.0299999,0.8092401623725891,-3.706224203109741,9.0859956741333,0,0.6561279296875,1.068115234375
15.049999900000001,0.8236053586006165,-3.665522813796997,9.0859956741333,-0.091552734375,0.6256103515625,-0.5645751953125
15.069999900000001,0.828393816947937,-3.6583402156829834,9.064447402954102,-2.2735595703125,1.28173828125,-0.06103515625
15.0899999,0.8259995579719543,-3.646369218826294,9.042900085449219,-2.7618408203125,2.349853515625,1.2359619140625
15.1099999,0.8140285611152649,-3.670311212539673,9.016563415527344,-2.197265625,2.2125244140625,2.1209716796875
15.129999900000001,0.8020575642585754,-3.7205893993377686,9.016563415527344,-2.227783203125,2.1514892578125,0.7781982421875
15.149999900000001,0.8020575642585754,-3.7493197917938232,9.030928611755371,-1.9378662109375,1.708984375,1.1444091796875
15.1699999,0.8092401623725891,-3.7612907886505127,9.050082206726074,-0.9765625,1.3885498046875,0.91552734375
15.1899999,0.811634361743927,-3.773261785507202,9.062053680419922,-0.48828125,1.2359619140625,1.3580322265625
15.209999900000001,0.8140285611152649,-3.7852327823638916,9.07641887664795,-0.1220703125,1.251220703125,1.7242431640625
15.229999900000001,0.8068459630012512,-3.821146011352539,9.0859956741333,-0.6866455078125,1.2054443359375,1.64794921875
15.2499999,0.7972691655158997,-3.8522706031799316,9.102754592895508,-0.6256103515625,0.5645751953125,0.7171630859375
15.2699999,0.7876923680305481,-3.88818359375,9.10993766784668,-0.030517578125,-0.5035400390625,0.0457763671875
15.289999900000002,0.7757213711738586,-3.9025487899780273,9.11233139038086,0.67138671875,-0.6561279296875,-0.1373291015625
15.309999900000001,0.7709329724311829,-3.8810009956359863,9.081207275390625,0.1068115234375,-0.8697509765625,-0.244140625
15.3299999,0.768538773059845,-3.847482204437256,9.038111686706543,0,-0.3662109375,-0.1220703125
15.3499999,0.7709329724311829,-3.8091750144958496,8.992621421813965,-0.5645751953125,0.4730224609375,0.6256103515625
15.3699999,0.768538773059845,-3.773261785507202,8.954314231872559,-0.885009765625,0.7781982421875,0.6561279296875
15.389999900000001,0.7637503147125244,-3.77565598487854,8.947132110595703,-1.007080078125,1.0223388671875,0.823974609375
15.4099999,0.7541735172271729,-3.7900211811065674,8.951920509338379,-0.3204345703125,0.7476806640625,0.2288818359375
15.4299999,0.7469909191131592,-3.821146011352539,8.959102630615234,-0.0762939453125,0.457763671875,-0.5035400390625
15.4499999,0.7422025203704834,-3.845088005065918,8.971074104309082,-0.335693359375,1.4495849609375,-0.6561279296875
15.469999900000001,0.7445967197418213,-3.84269380569458,8.96149730682373,0.0762939453125,1.46484375,-0.885009765625
15.4899999,0.7469909191131592,-3.825934410095215,8.973467826843262,-0.3509521484375,2.0294189453125,-0.335693359375
15.5099999,0.7565677165985107,-3.794809579849243,9.002198219299316,-0.732421875,2.4566650390625,0.335693359375
15.5299999,0.7709329724311829,-3.7708675861358643,9.045293807983398,-1.0986328125,1.0986328125,0.06103515625
15.549999900000001,0.7876923680305481,-3.773261785507202,9.097966194152832,0.152587890625,0.1373291015625,0.2593994140625
15.569999900000001,0.811634361743927,-3.7900211811065674,9.14345645904541,0.2288818359375,0.030517578125,-0.244140625
15.5899999,0.8307880163192749,-3.8091750144958496,9.165003776550293,-0.1373291015625,-0.030517578125,-0.9765625
15.6099999,0.8451532125473022,-3.8115692138671875,9.167398452758789,-0.030517578125,-0.9307861328125,-0.9918212890625
15.629999900000001,0.849941611289978,-3.8067808151245117,9.141061782836914,0.091552734375,-1.15966796875,-0.152587890625
15.649999900000001,0.8451532125473022,-3.7876269817352295,9.102754592895508,-0.1678466796875,-0.48828125,0.091552734375
15.6699999,0.8355764150619507,-3.7828385829925537,9.057265281677246,-0.5340576171875,0.1373291015625,-0.1220703125
15.6899999,0.8236053586006165,-3.794809579849243,9.026140213012695,0,-0.030517578125,-0.48828125
15.709999900000001,0.8164227604866028,-3.801992416381836,9.006986618041992,0.274658203125,-0.6256103515625,-0.885009765625
15.729999900000001,0.8092401623725891,-3.797203779220581,8.990227699279785,0.3814697265625,-0.7476806640625,-0.8544921875
15.7499999,0.8068459630012512,-3.7828385829925537,8.966285705566406,-0.79345703125,-0.0762939453125,-0.0152587890625
15.7699999,0.8068459630012512,-3.773261785507202,8.951920509338379,-1.1749267578125,1.03759765625,0.8697509765625
15.789999900000002,0.8068459630012512,-3.7636849880218506,8.942343711853027,-0.6561279296875,0.579833984375,0.030517578125
15.809999900000001,0.8068459630012512,-3.7828385829925537,8.944737434387207,-0.30517578125,-0.1220703125,-0.1678466796875
15.8299999,0.8092401623725891,-3.794809579849243,8.954314231872559,-0.8087158203125,0.579833984375,-0.06103515625
15.8499999,0.811634361743927,-3.8115692138671875,8.966285705566406,-1.5716552734375,1.64794921875,0.640869140625
15.869999900000002,0.8140285611152649,-3.825934410095215,8.975862503051758,-1.0986328125,1.068115234375,0.79345703125
15.889999900000001,0.8188169598579407,-3.8355112075805664,8.995016098022461,-0.701904296875,0.8392333984375,-0.0762939453125
15.9099999,0.8236053586006165,-3.84269380569458,9.016563415527344,-0.1068115234375,0.79345703125,-0.3814697265625
15.9299999,0.8236053586006165,-3.8283286094665527,9.040505409240723,0.152587890625,0.701904296875,-0.274658203125
15.9499999,0.828393816947937,-3.799597978591919,9.05247688293457,-0.6103515625,0.3509521484375,0.4425048828125
15.969999900000001,0.828393816947937,-3.77565598487854,9.062053680419922,-0.9918212890625,0.244140625,1.220703125
15.9899999,0.8307880163192749,-3.7636849880218506,9.05487060546875,-1.03759765625,0.518798828125,0.762939453125
16.0099999,0.828393816947937,-3.773261785507202,9.038111686706543,-0.3814697265625,0.6256103515625,0.1983642578125
16.0299999,0.8307880163192749,-3.7900211811065674,9.026140213012695,-0.3814697265625,0.6256103515625,0.030517578125
16.0499999,0.8236053586006165,-3.8067808151245117,9.02135181427002,-0.9613037109375,0.7476806640625,0.274658203125
16.0699999,0.8164227604866028,-3.8283286094665527,9.026140213012695,-0.8697509765625,0.4730224609375,0.6866455078125
16.089999900000002,0.8068459630012512,-3.8522706031799316,9.026140213012695,-0.2593994140625,-0.2288818359375,-0.244140625
16.109999900000002,0.7996633648872375,-3.869029998779297,9.01895809173584,0.30517578125,-0.152587890625,-1.46484375
16.1299999,0.7972691655158997,-3.8738183975219727,8.995016098022461,0.5950927734375,0.335693359375,-1.190185546875
16.1499999,0.8044517636299133,-3.8594532012939453,8.971074104309082,0.1068115234375,0.9613037109375,-0.1220703125
16.1699999,0.8212111592292786,-3.823540210723877,8.96149730682373,-0.1373291015625,1.0223388671875,-0.152587890625
16.1899999,0.8355764150619507,-3.801992416381836,8.96149730682373,0.5645751953125,0.5340576171875,0.091552734375
16.2099999,0.8475474119186401,-3.780444383621216,8.971074104309082,0.4119873046875,0.4425048828125,0.1983642578125
16.2299999,0.8523358106613159,-3.7852327823638916,8.975862503051758,-0.701904296875,0.91552734375,0.5950927734375
16.249999900000002,0.8523358106613159,-3.797203779220581,8.980650901794434,-0.518798828125,1.190185546875,0.4119873046875
16.269999900000002,0.8475474119186401,-3.8139634132385254,8.990227699279785,0.3204345703125,1.0986328125,-0.244140625
16.2899999,0.8427590131759644,-3.8283286094665527,9.009381294250488,0.4425048828125,0.9613037109375,-0.152587890625
16.3099999,0.8427590131759644,-3.8307228088378906,9.035717010498047,-0.06103515625,0.8392333984375,0.3204345703125
16.3299999,0.8475474119186401,-3.8331170082092285,9.069235801696777,-0.213623046875,0.6103515625,0.396728515625
16.3499999,0.8523358106613159,-3.8283286094665527,9.08838939666748,-0.18310546875,-0.0457763671875,-0.091552734375
16.3699999,0.8571242094039917,-3.821146011352539,9.090784072875977,0.1983642578125,-0.244140625,-0.18310546875
16.3899999,0.8595184087753296,-3.8091750144958496,9.083600997924805,-0.0152587890625,0.5645751953125,0.518798828125
16.4099999,0.8547300100326538,-3.797203779220581,9.059659004211426,-0.701904296875,0.79345703125,0.8392333984375
16.429999900000002,0.8475474119186401,-3.794809579849243,9.030928611755371,-0.67138671875,0.6103515625,0.5950927734375
16.4499999,0.8427590131759644,-3.794809579849243,8.999804496765137,0.213623046875,0.3814697265625,-0.030517578125
16.4699999,0.8403648138046265,-3.797203779220581,8.975862503051758,0.1068115234375,0.640869140625,0.06103515625
16.4899999,0.8403648138046265,-3.7900211811065674,8.959102630615234,-0.7171630859375,1.15966796875,0.3662109375
16.5099999,0.8427590131759644,-3.7876269817352295,8.96149730682373,-1.1444091796875,1.0833740234375,0.732421875
16.5299999,0.8427590131759644,-3.797203779220581,8.980650901794434,-0.762939453125,0.79345703125,0.7476806640625
16.5499999,0.8427590131759644,-3.8115692138671875,8.992621421813965,-0.6256103515625,0.3662109375,0.1983642578125
16.5699999,0.8379706144332886,-3.8379054069519043,8.999804496765137,-0.396728515625,0.640869140625,0.30517578125
16.589999900000002,0.8307880163192749,-3.8522706031799316,8.99740982055664,-0.396728515625,1.1749267578125,0.274658203125
16.609999900000002,0.828393816947937,-3.866635799407959,8.99740982055664,-0.0762939453125,1.2969970703125,0.3204345703125
16.6299999,0.8259995579719543,-3.8570590019226074,9.009381294250488,0.0762939453125,0.6866455078125,-0.457763671875
16.6499999,0.8307880163192749,-3.8355112075805664,9.011775016784668,0.0152587890625,0.9918212890625,0.152587890625
16.6699999,0.8379706144332886,-3.8067808151245117,9.023746490478516,-0.8087158203125,1.40380859375,0.8087158203125
16.6899999,0.8451532125473022,-3.7828385829925537,9.035717010498047,-0.7476806640625,0.8392333984375,0.762939453125
16.7099999,0.8523358106613159,-3.7828385829925537,9.05247688293457,-0.457763671875,0.30517578125,0.5035400390625
16.7299999,0.8523358106613159,-3.7924153804779053,9.062053680419922,-0.4730224609375,0.5035400390625,0.3662109375
16.749999900000002,0.8523358106613159,-3.8091750144958496,9.057265281677246,-0.1678466796875,0.457763671875,0.213623046875
16.769999900000002,0.849941611289978,-3.8331170082092285,9.040505409240723,-0.0457763671875,0.4730224609375,0.1983642578125
16.7899999,0.8451532125473022,-3.8379054069519043,9.028534889221191,0,0.762939453125,0.0457763671875
16.8099999,0.8403648138046265,-3.845088005065918,9.011775016784668,0.06103515625,0.2593994140625,0.152587890625
16.8299999,0.8355764150619507,-3.8355112075805664,9.004592895507812,-0.2593994140625,0.274658203125,0.2899169921875
16.8499999,0.828393816947937,-3.8307228088378906,8.99740982055664,-0.732421875,0.48828125,0.42724609375
16.8699999,0.8236053586006165,-3.8283286094665527,8.98543930053711,-0.457763671875,0.732421875,0.457763671875
16.8899999,0.8212111592292786,-3.825934410095215,8.98543930053711,-0.2288818359375,0.8544921875,0.48828125
16.9099999,0.8259995579719543,-3.821146011352539,8.983044624328613,-0.1373291015625,0.3662109375,0.0457763671875
16.929999900000002,0.8307880163192749,-3.821146011352539,8.987833023071289,-0.1220703125,0.4425048828125,0.8392333984375
16.9499999,0.8379706144332886,-3.8163576126098633,8.999804496765137,-0.3204345703125,1.068115234375,1.1444091796875
16.9699999,0.8427590131759644,-3.840299606323242,9.011775016784668,-0.4730224609375,0.79345703125,0.823974609375
16.9899999,0.849941611289978,-3.8522706031799316,9.030928611755371,-0.3662109375,0.396728515625,-0.67138671875
17.0099999,0.8571242094039917,-3.8594532012939453,9.042900085449219,-0.4425048828125,0.2288818359375,-0.9307861328125
17.0299999,0.8619126081466675,-3.847482204437256,9.045293807983398,-0.2899169921875,0.3814697265625,0.152587890625
17.0499999,0.8667010068893433,-3.8091750144958496,9.042900085449219,-0.4730224609375,0.79345703125,0.3509521484375
17.0699999,0.8690952062606812,-3.7924153804779053,9.033323287963867,-0.4119873046875,0.30517578125,0.4425048828125
17.089999900000002,0.8690952062606812,-3.7876269817352295,9.028534889221191,-0.3204345703125,0.2593994140625,0.54931640625
17.109999900000002,0.8619126081466675,-3.8091750144958496,9.035717010498047,0.0152587890625,0.5645751953125,0.213623046875
17.1299999,0.8547300100326538,-3.8307228088378906,9.050082206726074,0.18310546875,0.213623046875,-0.0762939453125
17.1499999,0.8523358106613159,-3.847482204437256,9.057265281677246,0,-0.946044921875,-0.18310546875
17.1699999,0.8523358106613159,-3.8498764038085938,9.064447402954102,-0.4730224609375,-0.7781982421875,-0.0457763671875
17.1899999,0.8571242094039917,-3.8498764038085938,9.045293807983398,-0.3814697265625,-0.457763671875,0.2288818359375
17.2099999,0.8595184087753296,-3.8379054069519043,9.016563415527344,-0.4119873046875,-0.3204345703125,-0.2288818359375
17.2299999,0.8619126081466675,-3.84269380569458,8.990227699279785,-0.5645751953125,-0.1373291015625,0.1068115234375
17.249999900000002,0.8643068075180054,-3.847482204437256,8.96149730682373,-0.732421875,-0.030517578125,0.0762939453125
17.269999900000002,0.8690952062606812,-3.8522706031799316,8.942343711853027,0.1220703125,0.4119873046875,-0.8697509765625
17.2899999,0.8762778043746948,-3.8570590019226074,8.925583839416504,0.8392333984375,0.579833984375,-0.9613037109375
17.3099999,0.8810662031173706,-3.84269380569458,8.913613319396973,0.396728515625,0.79345703125,-0.5645751953125
17.3299999,0.8834604024887085,-3.8331170082092285,8.916007041931152,-0.3814697265625,1.2664794921875,0.030517578125
17.3499999,0.8786720037460327,-3.8331170082092285,8.920795440673828,-0.274658203125,1.129150390625,-0.244140625
17.3699999,0.8667010068893433,-3.8498764038085938,8.925583839416504,0.335693359375,0.8087158203125,-0.946044921875
17.3899999,0.8595184087753296,-3.861847400665283,8.932766914367676,0.579833984375,1.3427734375,-1.52587890625
17.409999900000003,0.8571242094039917,-3.869029998779297,8.937555313110352,0.3509521484375,1.8768310546875,-0.7171630859375
17.429999900000002,0.8667010068893433,-3.845088005065918,8.954314231872559,0.244140625,1.8768310546875,-0.579833984375
17.4499999,0.8786720037460327,-3.818751811981201,8.990227699279785,-0.42724609375,1.7852783203125,-0.5035400390625
17.4699999,0.8882488012313843,-3.8331170082092285,9.009381294250488,-4.1656494140625,1.5716552734375,0.091552734375
17.4899999,0.9002198576927185,-3.8379054069519043,9.057265281677246,-0.0152587890625,1.8768310546875,-1.28173828125
17.5099999,0.9026140570640564,-3.864241600036621,9.045293807983398,0.4425048828125,0.152587890625,-2.01416015625
17.5299999,0.9097966551780701,-3.8570590019226074,9.062053680419922,-1.3427734375,1.46484375,-1.6021728515625
17.5499999,0.9193734526634216,-3.8139634132385254,9.057265281677246,-0.30517578125,1.2359619140625,-0.8087158203125
17.5699999,0.9265560507774353,-3.773261785507202,9.040505409240723,-0.5035400390625,0.3509521484375,-0.2899169921875
17.589999900000002,0.933738648891449,-3.732560396194458,9.040505409240723,-0.823974609375,1.0833740234375,-0.3509521484375
17.609999900000002,0.9289502501487732,-3.7181951999664307,9.028534889221191,-0.7171630859375,1.4190673828125,-0.0762939453125
17.6299999,0.9169792532920837,-3.7469255924224854,9.028534889221191,-1.28173828125,1.129150390625,0.885009765625
17.6499999,0.9002198576927185,-3.797203779220581,9.026140213012695,-1.007080078125,0.48828125,0.1068115234375
17.6699999,0.8858546018600464,-3.8594532012939453,9.01895809173584,0.274658203125,0.30517578125,-1.15966796875
17.6899999,0.8786720037460327,-3.88818359375,9.004592895507812,0.1220703125,0.91552734375,-1.28173828125
17.7099999,0.8786720037460327,-3.890577793121338,8.990227699279785,-0.4425048828125,1.3427734375,0.030517578125
17.7299999,0.8858546018600464,-3.861847400665283,8.98543930053711,-0.701904296875,0.9613037109375,0.8392333984375
17.749999900000002,0.8882488012313843,-3.847482204437256,8.987833023071289,-0.701904296875,0.7781982421875,0.3814697265625
17.769999900000002,0.8882488012313843,-3.845088005065918,8.99740982055664,-0.3204345703125,0.9765625,-0.457763671875
17.7899999,0.8858546018600464,-3.8570590019226074,8.999804496765137,-0.1373291015625,0.762939453125,-0.7781982421875
17.8099999,0.8834604024887085,-3.8570590019226074,9.006986618041992,0.030517578125,0.67138671875,-0.42724609375
17.8299999,0.8834604024887085,-3.8594532012939453,8.999804496765137,-0.030517578125,0.7476806640625,0.152587890625
17.8499999,0.8834604024887085,-3.8546648025512695,8.999804496765137,0.1373291015625,1.15966796875,-0.0762939453125
17.8699999,0.8858546018600464,-3.8522706031799316,8.995016098022461,0.0457763671875,1.0528564453125,-0.762939453125
17.8899999,0.8834604024887085,-3.847482204437256,8.990227699279785,0.3204345703125,0.701904296875,-0.823974609375
17.909999900000003,0.8786720037460327,-3.8355112075805664,8.995016098022461,0.640869140625,1.190185546875,-0.3662109375
17.929999900000002,0.8690952062606812,-3.8355112075805664,9.002198219299316,0.457763671875,1.2664794921875,-0.18310546875
17.9499999,0.8619126081466675,-3.8331170082092285,9.014169692993164,0.5950927734375,0.7476806640625,-1.007080078125
17.9699999,0.8619126081466675,-3.8307228088378906,9.026140213012695,0.5645751953125,0.1373291015625,-1.3275146484375
17.9899999,0.8690952062606812,-3.8139634132385254,9.030928611755371,0.335693359375,0.5035400390625,-0.732421875
18.0099999,0.8810662031173706,-3.7924153804779053,9.026140213012695,-0.3509521484375,0.946044921875,0.06103515625
18.0299999,0.8906430602073669,-3.7852327823638916,9.02135181427002,-0.518798828125,0.946044921875,0.518798828125
18.0499999,0.8954314589500427,-3.7876269817352295,9.01895809173584,-0.4730224609375,0.67138671875,-0.3509521484375
18.0699999,0.8930372595787048,-3.8139634132385254,9.011775016784668,-0.335693359375,0.2899169921875,-0.3662109375
18.089999900000002,0.8882488012313843,-3.8355112075805664,9.004592895507812,0.0152587890625,0.335693359375,-0.579833984375
18.109999900000002,0.8882488012313843,-3.8379054069519043,8.992621421813965,0.244140625,0.9918212890625,-0.762939453125
18.1299999,0.8930372595787048,-3.8307228088378906,8.987833023071289,-0.3509521484375,1.007080078125,0.6866455078125
18.1499999,0.9002198576927185,-3.8307228088378906,8.995016098022461,-0.0152587890625,0.5035400390625,-0.3204345703125
18.1699999,0.9097966551780701,-3.845088005065918,8.995016098022461,0.0762939453125,0.2288818359375,-0.8087158203125
18.1899999,0.9217676520347595,-3.8594532012939453,8.980650901794434,1.007080078125,0.79345703125,-0.48828125
18.2099999,0.9385270476341248,-3.8498764038085938,8.983044624328613,1.556396484375,1.6937255859375,-0.7171630859375
18.2299999,0.9552865028381348,-3.8283286094665527,9.011775016784668,1.03759765625,1.52587890625,-0.7171630859375
18.249999900000002,0.9744400978088379,-3.7876269817352295,9.083600997924805,0.6256103515625,-0.091552734375,0.06103515625
18.269999900000002,0.9864110946655273,-3.756502389907837,9.165003776550293,0.335693359375,-1.6937255859375,0.67138671875
18.2899999,0.9864110946655273,-3.7445313930511475,9.222464561462402,-0.2899169921875,-2.3040771484375,0.640869140625
18.3099999,0.9744400978088379,-3.773261785507202,9.229647636413574,-0.4119873046875,-2.227783203125,0.18310546875
18.3299999,0.9576807022094727,-3.804386615753174,9.17697525024414,0.2288818359375,-2.2430419921875,-0.9918212890625
18.3499999,0.9409212470054626,-3.823540210723877,9.090784072875977,0.4119873046875,-1.8310546875,-1.2969970703125
18.3699999,0.9289502501487732,-3.8091750144958496,9.006986618041992,-0.54931640625,-0.6103515625,-0.5340576171875
18.3899999,0.9241618514060974,-3.794809579849243,8.935160636901855,-1.03759765625,-0.48828125,0.7781982421875
18.409999900000003,0.9241618514060974,-3.7876269817352295,8.901641845703125,-0.9613037109375,-0.4119873046875,0.79345703125
18.429999900000002,0.9241618514060974,-3.8163576126098633,8.89685344696045,-0.335693359375,-0.42724609375,-0.1678466796875
18.4499999,0.9265560507774353,-3.8498764038085938,8.901641845703125,0.1373291015625,-0.518798828125,-1.2054443359375
18.4699999,0.9361328482627869,-3.8762125968933105,8.920795440673828,-0.2288818359375,-0.030517578125,-0.9613037109375
18.4899999,0.9409212470054626,-3.8738183975219727,8.935160636901855,-0.6866455078125,-0.0762939453125,-0.42724609375
18.5099999,0.9481038451194763,-3.8570590019226074,8.942343711853027,-1.1138916015625,-0.640869140625,0.030517578125
18.5299999,0.9481038451194763,-3.8355112075805664,8.932766914367676,-1.617431640625,-0.335693359375,-0.0152587890625
18.5499999,0.9457096457481384,-3.821146011352539,8.908824920654297,-1.9989013671875,0.5645751953125,0.213623046875
18.5699999,0.9457096457481384,-3.818751811981201,8.892065048217773,-1.6021728515625,1.2664794921875,0.2899169921875
18.589999900000002,0.950498104095459,-3.818751811981201,8.884882926940918,-1.2969970703125,0.8697509765625,-0.2593994140625
18.609999900000002,0.9624691009521484,-3.821146011352539,8.89445972442627,-0.9613037109375,0.518798828125,-0.54931640625
18.6299999,0.9768342971801758,-3.8163576126098633,8.918401718139648,-0.640869140625,1.251220703125,-0.3509521484375
18.6499999,0.9864110946655273,-3.8067808151245117,8.947132110595703,-1.068115234375,1.77001953125,-0.1220703125
18.6699999,0.9911994934082031,-3.8067808151245117,8.975862503051758,-0.8544921875,0.9613037109375,-0.244140625
18.6899999,0.9888052940368652,-3.8091750144958496,8.99740982055664,-1.1444091796875,0.9918212890625,-0.274658203125
18.7099999,0.9864110946655273,-3.8355112075805664,9.014169692993164,-0.7171630859375,1.3580322265625,-0.152587890625
18.7299999,0.9816226959228516,-3.8498764038085938,9.02135181427002,-0.3509521484375,1.3885498046875,-0.7476806640625
18.749999900000002,0.9816226959228516,-3.861847400665283,9.033323287963867,-0.335693359375,0.9002685546875,-0.9765625
18.769999900000002,0.9888052940368652,-3.8570590019226074,9.038111686706543,-0.8544921875,0.3204345703125,-0.3509521484375
18.7899999,0.9959878921508789,-3.8522706031799316,9.035717010498047,-0.762939453125,0.3814697265625,-0.0762939453125
18.8099999,1.0007762908935547,-3.8498764038085938,9.01895809173584,-0.5340576171875,0.6866455078125,-0.6561279296875
18.8299999,0.9983820915222168,-3.864241600036621,8.995016098022461,-0.54931640625,0.579833984375,-0.9002685546875
18.8499999,0.9888052940368652,-3.885789394378662,8.973467826843262,-0.4730224609375,0.7476806640625,-0.8392333984375
18.8699999,0.9816226959228516,-3.9001545906066895,8.96389102935791,-0.2899169921875,0.762939453125,-1.2969970703125
18.8899999,0.9744400978088379,-3.907337188720703,8.956708908081055,-0.030517578125,0.7476806640625,-1.6632080078125
18.909999900000003,0.9768342971801758,-3.892971992492676,8.954314231872559,0.1220703125,0.823974609375,-1.64794921875
18.929999900000002,0.9864110946655273,-3.8738183975219727,8.956708908081055,0.0457763671875,1.1138916015625,-0.8544921875
18.9499999,1.0007762908935547,-3.8570590019226074,8.959102630615234,0.213623046875,1.190185546875,-0.640869140625
18.9699999,1.015141487121582,-3.84269380569458,8.959102630615234,0.335693359375,0.91552734375,-1.373291015625
18.9899999,1.0223240852355957,-3.840299606323242,8.966285705566406,0.0762939453125,1.190185546875,-1.3885498046875
19.0099999,1.0223240852355957,-3.8163576126098633,8.951920509338379,0.3204345703125,0.9002685546875,-1.251220703125
19.0299999,1.01753568649292,-3.804386615753174,8.937555313110352,0.3662109375,1.1749267578125,-0.030517578125
19.0499999,1.0079588890075684,-3.7900211811065674,8.932766914367676,0.2899169921875,2.105712890625,0.396728515625
19.0699999,0.9983820915222168,-3.8091750144958496,8.947132110595703,0.030517578125,2.0599365234375,-0.213623046875
19.089999900000002,0.9911994934082031,-3.8379054069519043,8.973467826843262,-0.67138671875,1.068115234375,-1.434326171875
19.109999900000002,0.9864110946655273,-3.88818359375,9.01895809173584,-2.899169921875,1.129150390625,-1.46484375
19.1299999,0.9888052940368652,-3.909731388092041,9.059659004211426,-0.4425048828125,0.8544921875,-1.9073486328125
19.1499999,0.9959878921508789,-3.912125587463379,9.064447402954102,-1.6021728515625,-0.48828125,-2.838134765625
19.1699999,1.0079588890075684,-3.892971992492676,9.066842079162598,-2.3956298828125,0.3662109375,-2.1209716796875
19.1899999,1.0199298858642578,-3.845088005065918,9.045293807983398,-1.5869140625,0.518798828125,-1.190185546875
19.2099999,1.0319008827209473,-3.799597978591919,9.026140213012695,-0.48828125,0.3814697265625,-0.42724609375
19.2299999,1.036689281463623,-3.7684733867645264,8.99740982055664,-0.4730224609375,-0.1373291015625,-0.213623046875
19.249999900000002,1.0319008827209473,-3.751713991165161,8.975862503051758,-0.7781982421875,0.640869140625,-0.1373291015625
19.269999900000002,1.0223240852355957,-3.7636849880218506,8.949525833129883,-0.152587890625,1.0833740234375,0.274658203125
19.2899999,1.0127472877502441,-3.780444383621216,8.937555313110352,0.0152587890625,1.007080078125,0.274658203125
19.3099999,1.0055646896362305,-3.8139634132385254,8.947132110595703,-0.030517578125,0.6561279296875,0.2288818359375
19.3299999,0.9983820915222168,-3.847482204437256,8.959102630615234,-0.2593994140625,0.274658203125,0.1373291015625
19.3499999,0.993593692779541,-3.885789394378662,8.978256225585938,-0.6256103515625,0.640869140625,-0.274658203125
19.3699999,0.9864110946655273,-3.9169139862060547,8.978256225585938,0,0.3204345703125,-0.885009765625
19.3899999,0.9744400978088379,-3.936067581176758,8.975862503051758,0.823974609375,0.0152587890625,-1.4190673828125
19.409999900000003,0.9672574996948242,-3.9432501792907715,8.956708908081055,0.48828125,0.213623046875,-1.678466796875
19.429999900000002,0.9576807022094727,-3.928884983062744,8.923190116882324,0.6256103515625,0.48828125,-2.01416015625
19.4499999,0.9552865028381348,-3.9049429893493652,8.875306129455566,1.0986328125,1.220703125,-2.25830078125
19.4699999,0.950498104095459,-3.8738183975219727,8.832210540771484,2.0904541015625,2.0904541015625,-2.8076171875
19.4899999,0.9481038451194763,-3.8522706031799316,8.803479194641113,0.54931640625,2.777099609375,-2.7923583984375
19.5099999,0.9528923034667969,-3.8331170082092285,8.832210540771484,1.0223388671875,3.173828125,-3.0670166015625
19.5299999,0.9552865028381348,-3.8546648025512695,8.853757858276367,-0.1068115234375,1.5716552734375,-3.4637451171875
19.5499999,0.9624691009521484,-3.9049429893493652,8.920795440673828,0.8087158203125,2.5634765625,-5.2490234375
19.5699999,0.9744400978088379,-3.9408559799194336,8.942343711853027,2.6397705078125,2.86865234375,-8.48388671875
19.589999900000002,1.0007762908935547,-3.93367338180542,8.99740982055664,2.5177001953125,4.1351318359375,-8.575439453125
19.609999900000002,1.0342950820922852,-3.8762125968933105,9.035717010498047,0.823974609375,2.899169921875,-4.7149658203125
19.6299999,1.070208191871643,-3.7828385829925537,9.081207275390625,-0.5340576171875,2.288818359375,-3.4027099609375
19.6499999,1.070208191871643,-3.7924153804779053,9.11233139038086,3.41796875,2.6092529296875,-5.06591796875
19.6699999,1.0247182846069336,-3.892971992492676,9.062053680419922,5.06591796875,1.7242431640625,-7.476806640625
19.6899999,0.9816226959228516,-3.957615375518799,9.006986618041992,4.638671875,3.1585693359375,-9.521484375
19.7099999,0.9624691009521484,-3.9456443786621094,8.951920509338379,3.509521484375,4.852294921875,-9.7503662109375
19.7299999,0.9744400978088379,-3.845088005065918,8.920795440673828,3.570556640625,4.150390625,-7.476806640625
19.749999900000002,1.0007762908935547,-3.7014358043670654,8.916007041931152,2.7008056640625,2.9449462890625,-5.0811767578125
19.769999900000002,1.0127472877502441,-3.5960910320281982,8.920795440673828,1.7242431640625,3.23486328125,-3.90625
19.7899999,1.0031704902648926,-3.56017804145813,8.892065048217773,2.25830078125,3.7994384765625,-4.638671875
19.8099999,0.9672574996948242,-3.600879430770874,8.863334655761719,2.4261474609375,5.3558349609375,-5.340576171875
19.8299999,0.9169792532920837,-3.663128614425659,8.83699893951416,1.3275146484375,6.7901611328125,-5.92041015625
19.8499999,0.8690952062606812,-3.6990416049957275,8.83939266204834,1.6937255859375,7.049560546875,-6.5155029296875
19.8699999,0.8140285611152649,-3.713406801223755,8.87051773071289,2.4871826171875,7.0037841796875,-6.28662109375
19.8899999,0.7541735172271729,-3.7158010005950928,8.908824920654297,3.41796875,7.2784423828125,-6.4697265625
19.909999900000003,0.6703764796257019,-3.7181951999664307,8.939949035644531,3.7994384765625,7.75146484375,-8.60595703125
19.929999900000002,0.5506663918495178,-3.7708675861358643,8.959102630615234,4.058837890625,9.5062255859375,-9.8419189453125
19.9499999,0.3902548849582672,-3.9001545906066895,8.971074104309082,2.166748046875,11.4593505859375,-10.955810546875
19.9699999,0.23702596127986908,-4.036623954772949,8.951920509338379,1.556396484375,12.5579833984375,-16.4947509765625
19.9899999,0.1388636976480484,-4.082113742828369,8.93037223815918,4.2266845703125,15.07568359375,-22.94921875
20.0099999,0.14844051003456116,-3.9049429893493652,8.89445972442627,2.197265625,17.852783203125,-22.0794677734375
20.0299999,0.27054479718208313,-3.466804027557373,8.884882926940918,-3.326416015625,19.287109375,-12.5579833984375
20.0499999,0.4668693244457245,-2.808398485183716,8.96389102935791,-7.7056884765625,20.965576171875,-2.044677734375
20.0699999,0.6799532771110535,-2.0829553604125977,9.138668060302734,-12.7716064453125,20.6756591796875,9.6435546875
20.089999900000002,0.8595184087753296,-1.3335703611373901,9.454702377319336,-18.9666748046875,18.707275390625,23.25439453125
20.109999900000002,0.9840168952941895,-0.5147533416748047,9.859322547912598,-21.0113525390625,12.2528076171875,43.27392578125
20.1299999,1.036689281463623,0.0694318488240242,10.259154319763184,-18.7530517578125,2.960205078125,78.43017578125
20.1499999,1.0319008827209473,0.33758243918418884,10.611102104187012,-17.181396484375,-5.2032470703125,102.294921875
20.1699999,0.9720458984375,0.16998831927776337,10.769119262695312,-22.27783203125,-14.6636962890625,102.8289794921875
20.1899999,0.9050082564353943,-0.43335050344467163,10.759542465209961,-23.712158203125,-22.705078125,104.00390625
20.2099999,0.8595184087753296,-1.2976573705673218,10.429142951965332,-14.404296875,-32.135009765625,111.5570068359375
20.2299999,0.8858546018600464,-2.233790159225464,9.940725326538086,-4.547119140625,-27.6031494140625,110.6414794921875
20.249999900000002,0.9983820915222168,-3.1316158771514893,9.41400146484375,-2.2735595703125,-17.7764892578125,100.9368896484375
20.269999900000002,1.1779472827911377,-3.8762125968933105,8.99740982055664,-3.1890869140625,-16.4642333984375,94.1009521484375
20.2899999,1.3527239561080933,-4.491522312164307,8.808267593383789,-2.6397705078125,-18.8446044921875,95.1995849609375
20.3099999,1.436521053314209,-4.9583916664123535,8.80587387084961,-5.79833984375,-15.7928466796875,92.6513671875
20.3299999,1.4053963422775269,-5.4444146156311035,9.064447402954102,-10.162353515625,-7.5531005859375,84.16748046875
20.3499999,1.2258312702178955,-5.985504150390625,9.3828763961792,-5.55419921875,-16.0369873046875,71.563720703125
20.3699999,0.9600749015808105,-6.481103897094727,9.68933391571045,4.8370361328125,-32.3333740234375,57.403564453125
20.3899999,0.6488286852836609,-6.854599475860596,9.804255485534668,10.5438232421875,-33.6151123046875,46.08154296875
20.409999900000003,0.3423708379268646,-7.072471618652344,9.536105155944824,5.4473876953125,-28.0609130859375,38.6962890625
20.429999900000002,0.07422025501728058,-7.146692276000977,9.004592895507812,5.615234375,-19.6990966796875,29.327392578125
20.4499999,-0.15801730751991272,-7.2568254470825195,8.40843677520752,8.941650390625,-12.939453125,19.04296875
