# Time (seconds),Accel_X,Accel_Y,Accel_Z,Gyro_X,Gyro_Y,Gyro_Z
0.0099999,3.354276657104492,1.3527239561080933,-9.17697525024414,2.0294189453125,0.091552734375,0.6561279296875
0.029999900000000003,3.354276657104492,1.3335703611373901,-9.188945770263672,1.0528564453125,0.9613037109375,0.48828125
0.0499999,3.35667085647583,1.3215993642807007,-9.208099365234375,1.6021728515625,0.885009765625,0.396728515625
0.0699999,3.354276657104492,1.3000515699386597,-9.198522567749023,1.89208984375,1.190185546875,0.2899169921875
0.08999990000000001,3.3518824577331543,1.2952631711959839,-9.181763648986816,0.885009765625,1.0986328125,0.396728515625
0.10999990000000001,3.3494882583618164,1.280897855758667,-9.157821655273438,-0.06103515625,0.6103515625,0.5645751953125
0.1299999,3.3518824577331543,1.278503656387329,-9.141061782836914,0.1678466796875,0.0457763671875,0.091552734375
0.14999990000000002,3.354276657104492,1.2713210582733154,-9.131484985351562,1.129150390625,0.335693359375,-0.030517578125
0.1699999,3.354276657104492,1.259350061416626,-9.14585018157959,2.6702880859375,-0.091552734375,0.457763671875
0.1899999,3.3518824577331543,1.256955862045288,-9.153033256530762,0.7476806640625,0.274658203125,0.1678466796875
0.20999990000000002,3.3423056602478027,1.2401964664459229,-9.172186851501465,-1.739501953125,0.6103515625,-0.244140625
0.2299999,3.339911460876465,1.2425906658172607,-9.20091724395752,-0.9002685546875,0.274658203125,-0.5340576171875
0.2499999,3.335123062133789,1.2425906658172607,-9.224859237670898,-0.42724609375,1.40380859375,0.091552734375
0.2699999,3.339911460876465,1.2713210582733154,-9.239224433898926,-1.2969970703125,2.5177001953125,0.06103515625
0.28999990000000003,3.3446998596191406,1.3000515699386597,-9.224859237670898,-1.15966796875,2.0294189453125,0.06103515625
0.3099999,3.3494882583618164,1.316810965538025,-9.205705642700195,-1.4190673828125,0.5950927734375,0.946044921875
0.3299999,3.354276657104492,1.338358759880066,-9.165003776550293,-1.2969970703125,1.495361328125,0.6103515625
0.34999990000000003,3.354276657104492,1.3407529592514038,-9.14345645904541,0.67138671875,0.9613037109375,0.5035400390625
0.3699999,3.354276657104492,1.3263877630233765,-9.136273384094238,2.0751953125,-0.5035400390625,1.5106201171875
0.3899999,3.3494882583618164,1.3120225667953491,-9.153033256530762,1.5411376953125,-0.7781982421875,0.640869140625
0.40999990000000003,3.3470940589904785,1.2832920551300049,-9.169792175292969,2.5177001953125,0.5950927734375,0.335693359375
0.4299999,3.3423056602478027,1.2641384601593018,-9.184157371520996,4.21142578125,0.579833984375,0.4425048828125
0.4499999,3.339911460876465,1.2282254695892334,-9.196128845214844,3.84521484375,-1.15966796875,1.129150390625
0.4699999,3.335123062133789,1.2066776752471924,-9.2033109664917,-0.701904296875,0.0762939453125,0.3204345703125
0.4899999,3.335123062133789,1.192312479019165,-9.191340446472168,-3.4027099609375,2.9144287109375,-0.79345703125
0.5099999,3.3303346633911133,1.1827356815338135,-9.2033109664917,-3.3721923828125,1.3885498046875,-0.2288818359375
0.5299999,3.335123062133789,1.1875240802764893,-9.198522567749023,-2.86865234375,0.3509521484375,0.244140625
0.5499999,3.337517261505127,1.2066776752471924,-9.184157371520996,-2.105712890625,1.8157958984375,-0.8392333984375
0.5699999,3.339911460876465,1.2066776752471924,-9.186552047729492,-1.2969970703125,1.220703125,-0.5950927734375
0.5899998999999999,3.339911460876465,1.2282254695892334,-9.165003776550293,-1.190185546875,0.8544921875,-0.701904296875
0.6099998999999999,3.339911460876465,1.237802267074585,-9.165003776550293,-2.1820068359375,0.4425048828125,-0.6103515625
0.6299999,3.3423056602478027,1.2641384601593018,-9.17697525024414,-2.25830078125,0.54931640625,-0.8697509765625
0.6499999,3.3423056602478027,1.2761094570159912,-9.198522567749023,-1.7547607421875,1.678466796875,-0.79345703125
0.6699999,3.3446998596191406,1.3072341680526733,-9.23682975769043,-1.5716552734375,1.5106201171875,-0.885009765625
0.6899999,3.3494882583618164,1.3287819623947144,-9.246406555175781,-1.03759765625,2.197265625,-0.335693359375
0.7099999,3.3518824577331543,1.3623007535934448,-9.232041358947754,-0.213623046875,2.0904541015625,-0.3204345703125
0.7299998999999999,3.3518824577331543,1.3766659498214722,-9.220070838928223,-0.701904296875,0.2593994140625,0.8392333984375
0.7499998999999999,3.3494882583618164,1.37906014919281,-9.17936897277832,-0.1678466796875,1.52587890625,0.9307861328125
0.7699999,3.3470940589904785,1.3670891523361206,-9.155426979064941,-0.274658203125,2.38037109375,0.1373291015625
0.7899999,3.3446998596191406,1.3551181554794312,-9.126696586608887,-0.9918212890625,1.220703125,-0.18310546875
0.8099999,3.3470940589904785,1.338358759880066,-9.10993766784668,-1.1749267578125,0.6103515625,0.91552734375
0.8299999,3.3494882583618164,1.316810965538025,-9.119514465332031,-0.7476806640625,-0.030517578125,0.8087158203125
0.8499998999999999,3.354276657104492,1.290474772453308,-9.148244857788086,0.67138671875,1.2664794921875,-0.152587890625
0.8699998999999999,3.35667085647583,1.2473790645599365,-9.181763648986816,-0.579833984375,1.7852783203125,-0.640869140625
0.8899999,3.35667085647583,1.2306196689605713,-9.191340446472168,-0.8544921875,1.0986328125,-0.9002685546875
0.9099999,3.35667085647583,1.2234370708465576,-9.205705642700195,-1.40380859375,-0.091552734375,-0.9765625
0.9299999,3.359065055847168,1.2449848651885986,-9.186552047729492,-1.3427734375,1.89208984375,-1.0986328125
0.9499999,3.359065055847168,1.2856862545013428,-9.174580574035645,-0.9765625,2.3040771484375,-1.1444091796875
0.9699998999999999,3.3638534545898438,1.3287819623947144,-9.167398452758789,0.5035400390625,-0.274658203125,-0.6103515625
0.9899998999999999,3.361459255218506,1.359906554222107,-9.14585018157959,1.5106201171875,0.06103515625,0.0762939453125
1.0099999,3.359065055847168,1.3934253454208374,-9.14585018157959,0.396728515625,0.9002685546875,-0.885009765625
1.0299999,3.35667085647583,1.381454348564148,-9.155426979064941,-0.2899169921875,1.28173828125,-0.0457763671875
1.0499999,3.35667085647583,1.3886369466781616,-9.165003776550293,-0.8544921875,0.9765625,0.030517578125
1.0699999,3.359065055847168,1.3670891523361206,-9.157821655273438,-0.457763671875,1.2664794921875,0.2593994140625
1.0899999,3.359065055847168,1.3479355573654175,-9.160215377807617,-1.0986328125,0.91552734375,0.3662109375
1.1099999,3.359065055847168,1.335964560508728,-9.17936897277832,-1.46484375,1.3275146484375,0.335693359375
1.1299999,3.359065055847168,1.3215993642807007,-9.17697525024414,-0.946044921875,1.4495849609375,-0.457763671875
1.1499999,3.35667085647583,1.3120225667953491,-9.172186851501465,-0.6256103515625,1.373291015625,-0.3662109375
1.1699998999999999,3.354276657104492,1.316810965538025,-9.162610054016113,-0.8087158203125,0.0762939453125,-0.3204345703125
1.1899998999999999,3.3518824577331543,1.3263877630233765,-9.150638580322266,0.030517578125,0.30517578125,0.1068115234375
1.2099999,3.354276657104492,1.3335703611373901,-9.160215377807617,0.4730224609375,0.6866455078125,0.1983642578125
1.2299999,3.35667085647583,1.3479355573654175,-9.181763648986816,0.152587890625,1.1749267578125,-0.6561279296875
1.2499999,3.3638534545898438,1.3503297567367554,-9.174580574035645,1.2969970703125,1.8463134765625,0.0457763671875
1.2699999,3.3662476539611816,1.3623007535934448,-9.167398452758789,1.3885498046875,0.1068115234375,0
1.2899999,3.3638534545898438,1.3646949529647827,-9.14345645904541,0.3509521484375,-0.8697509765625,0.18310546875
1.3099999,3.359065055847168,1.3646949529647827,-9.117119789123535,0.0457763671875,0.732421875,-0.274658203125
1.3299999,3.3518824577331543,1.357512354850769,-9.129091262817383,0.8087158203125,-0.06103515625,-0.1678466796875
1.3499999,3.3470940589904785,1.3455413579940796,-9.141061782836914,-0.5645751953125,0.3509521484375,0.1068115234375
1.3699999,3.3470940589904785,1.3455413579940796,-9.157821655273438,-1.9683837890625,1.007080078125,-0.0457763671875
1.3899999,3.3470940589904785,1.3311761617660522,-9.184157371520996,-1.5411376953125,0.5950927734375,0.1373291015625
1.4099999,3.3470940589904785,1.3335703611373901,-9.196128845214844,-1.52587890625,0.8392333984375,-0.1983642578125
1.4299998999999999,3.3470940589904785,1.3335703611373901,-9.193734169006348,-2.2430419921875,1.953125,-0.42724609375
1.4499999,3.3470940589904785,1.3431471586227417,-9.196128845214844,-1.9989013671875,0.5950927734375,-0.1983642578125
1.4699999,3.3446998596191406,1.3503297567367554,-9.172186851501465,0.0152587890625,0.42724609375,-0.1983642578125
1.4899999,3.3494882583618164,1.3718775510787964,-9.174580574035645,1.3580322265625,0,-0.54931640625
1.5099999,3.3518824577331543,1.3694833517074585,-9.167398452758789,1.312255859375,0.4425048828125,0.5950927734375
1.5299999,3.354276657104492,1.3718775510787964,-9.155426979064941,1.9378662109375,1.0528564453125,0.42724609375
1.5499999,3.3518824577331543,1.357512354850769,-9.165003776550293,0.762939453125,-0.8087158203125,-0.274658203125
1.5699999,3.3446998596191406,1.3455413579940796,-9.160215377807617,0,-0.0152587890625,-0.396728515625
1.5899999,3.337517261505127,1.338358759880066,-9.169792175292969,0.274658203125,1.03759765625,-0.18310546875
1.6099999,3.3303346633911133,1.338358759880066,-9.198522567749023,-1.6021728515625,0.3204345703125,0.091552734375
1.6299999,3.3255462646484375,1.3431471586227417,-9.217676162719727,-2.2125244140625,0.823974609375,-0.48828125
1.6499999,3.3231520652770996,1.3455413579940796,-9.227252960205078,-2.38037109375,2.166748046875,-0.396728515625
1.6699999,3.3231520652770996,1.3527239561080933,-9.210494041442871,-2.1514892578125,2.7923583984375,-0.213623046875
1.6899998999999999,3.3231520652770996,1.3694833517074585,-9.184157371520996,-2.7923583984375,1.2359619140625,-0.48828125
1.7099999,3.3279404640197754,1.3742717504501343,-9.14585018157959,-3.7841796875,1.007080078125,0.091552734375
1.7299999,3.3303346633911133,1.3886369466781616,-9.117119789123535,-3.173828125,1.6326904296875,-0.2288818359375
1.7499999,3.335123062133789,1.3958195447921753,-9.11233139038086,-0.8697509765625,0.8544921875,-0.4425048828125
1.7699999,3.337517261505127,1.4053963422775269,-9.11233139038086,0.152587890625,0.518798828125,-0.1983642578125
1.7899999,3.3423056602478027,1.4101848602294922,-9.133879661560059,-1.1138916015625,1.1138916015625,0.244140625
1.8099999,3.3446998596191406,1.4173674583435059,-9.167398452758789,-3.4637451171875,1.89208984375,0.1373291015625
1.8299999,3.354276657104492,1.41257905960083,-9.198522567749023,-3.662109375,3.509521484375,0.42724609375
1.8499999,3.3638534545898438,1.4269442558288574,-9.222464561462402,-2.7008056640625,3.23486328125,0.4119873046875
1.8699999,3.3710360527038574,1.4293384552001953,-9.193734169006348,-3.2958984375,3.3111572265625,1.5106201171875
1.8899999,3.375824451446533,1.4389152526855469,-9.17936897277832,-1.8157958984375,0.762939453125,0.6256103515625
1.9099999,3.3734302520751953,1.4413094520568848,-9.124302864074707,-0.0152587890625,0.8392333984375,-0.0457763671875
1.9299998999999999,3.3710360527038574,1.4460978507995605,-9.105149269104004,1.251220703125,0.6103515625,-0.48828125
1.9499999,3.3662476539611816,1.4460978507995605,-9.097966194152832,-0.0457763671875,-0.3662109375,0.457763671875
1.9699999,3.3638534545898438,1.455674648284912,-9.105149269104004,-2.349853515625,0.579833984375,0.3814697265625
1.9899999,3.3662476539611816,1.460463047027588,-9.119514465332031,-0.67138671875,1.312255859375,0.06103515625
2.0099999,3.3686418533325195,1.4508862495422363,-9.14345645904541,0.30517578125,0.30517578125,0.213623046875
2.0299999,3.3734302520751953,1.4532804489135742,-9.14345645904541,-0.213623046875,0.6561279296875,-0.213623046875
2.0499999,3.3734302520751953,1.436521053314209,-9.14585018157959,-0.67138671875,-0.18310546875,-0.152587890625
2.0699999,3.375824451446533,1.436521053314209,-9.157821655273438,-1.068115234375,0.274658203125,-0.518798828125
2.0899999,3.3734302520751953,1.4221558570861816,-9.157821655273438,-0.9002685546875,1.52587890625,-0.457763671875
2.1099999,3.3710360527038574,1.4317326545715332,-9.165003776550293,-1.03759765625,1.922607421875,-0.6256103515625
2.1299999,3.3662476539611816,1.4245500564575195,-9.162610054016113,-2.716064453125,0.7781982421875,-0.213623046875
2.1499999,3.3638534545898438,1.4413094520568848,-9.141061782836914,-1.953125,1.2969970703125,-0.6866455078125
2.1699999,3.3662476539611816,1.45806884765625,-9.129091262817383,-0.701904296875,0.5035400390625,-0.91552734375
2.1899999,3.3638534545898438,1.4724340438842773,-9.121908187866211,-0.54931640625,0.030517578125,-0.0762939453125
2.2099999,3.3662476539611816,1.4939818382263184,-9.124302864074707,-1.2054443359375,0.3662109375,-0.457763671875
2.2299999,3.3638534545898438,1.4963760375976562,-9.117119789123535,-1.5869140625,1.0986328125,-0.48828125
2.2499999,3.361459255218506,1.5107412338256836,-9.133879661560059,0.0762939453125,-0.335693359375,-0.3814697265625
2.2699999,3.361459255218506,1.50355863571167,-9.136273384094238,1.861572265625,-0.79345703125,0.3204345703125
2.2899999,3.361459255218506,1.5059528350830078,-9.155426979064941,1.7242431640625,0.1983642578125,0.1983642578125
2.3099999,3.359065055847168,1.4939818382263184,-9.167398452758789,0.2288818359375,0.6866455078125,-0.2288818359375
2.3299999,3.354276657104492,1.4748282432556152,-9.188945770263672,-0.518798828125,0.7476806640625,-0.030517578125
2.3499999,3.3518824577331543,1.4628572463989258,-9.186552047729492,-0.9613037109375,1.1749267578125,-0.3204345703125
2.3699999,3.3518824577331543,1.4652514457702637,-9.184157371520996,-2.5787353515625,1.495361328125,-0.48828125
2.3899999,3.3518824577331543,1.4700398445129395,-9.162610054016113,-2.0751953125,1.4495849609375,-0.0152587890625
2.4099999,3.3518824577331543,1.479616641998291,-9.150638580322266,-1.220703125,0.6866455078125,0.244140625
2.4299999,3.354276657104492,1.4987702369689941,-9.131484985351562,-1.739501953125,1.0528564453125,-0.7476806640625
2.4499999,3.35667085647583,1.501164436340332,-9.126696586608887,-1.15966796875,0.9765625,-0.0762939453125
2.4699999,3.359065055847168,1.5155296325683594,-9.117119789123535,-1.2969970703125,1.0986328125,0.06103515625
2.4899999,3.359065055847168,1.525106430053711,-9.121908187866211,-1.3275146484375,0.3662109375,0
2.5099999,3.359065055847168,1.5179238319396973,-9.107542991638184,-2.4261474609375,0.7171630859375,-0.152587890625
2.5299999,3.359065055847168,1.534683346748352,-9.138668060302734,-0.67138671875,-0.06103515625,-1.0528564453125
2.5499999,3.35667085647583,1.5179238319396973,-9.153033256530762,-0.54931640625,1.190185546875,0.244140625
2.5699999,3.35667085647583,1.5275006294250488,-9.169792175292969,-3.509521484375,2.685546875,0.0762939453125
2.5899999,3.359065055847168,1.53707754611969,-9.169792175292969,-2.74658203125,1.373291015625,-0.9613037109375
2.6099999,3.35667085647583,1.53707754611969,-9.153033256530762,0.2288818359375,1.2359619140625,-0.1373291015625
2.6299999,3.35667085647583,1.534683346748352,-9.150638580322266,0.2288818359375,1.89208984375,-0.1678466796875
2.6499999,3.359065055847168,1.5394717454910278,-9.148244857788086,-0.244140625,1.0833740234375,0.18310546875
2.6699999,3.361459255218506,1.5466543436050415,-9.138668060302734,-1.1749267578125,0.640869140625,0.1220703125
2.6899999,3.361459255218506,1.558625340461731,-9.114726066589355,-1.251220703125,1.77001953125,-0.1983642578125
2.7099999,3.361459255218506,1.5634137392044067,-9.095572471618652,-0.823974609375,0.9765625,0.091552734375
2.7299999,3.359065055847168,1.577778935432434,-9.107542991638184,-1.1444091796875,-0.732421875,-0.1220703125
2.7499999,3.361459255218506,1.580173134803772,-9.10993766784668,-0.48828125,1.1749267578125,0.244140625
2.7699999,3.361459255218506,1.580173134803772,-9.126696586608887,0.3204345703125,2.197265625,0.457763671875
2.7899999,3.361459255218506,1.5729905366897583,-9.138668060302734,-0.5645751953125,0.335693359375,-0.0762939453125
2.8099999,3.359065055847168,1.5538369417190552,-9.14345645904541,-0.335693359375,-0.1373291015625,0.06103515625
2.8299999,3.361459255218506,1.5394717454910278,-9.14585018157959,-0.0762939453125,1.251220703125,-0.152587890625
2.8499999,3.361459255218506,1.534683346748352,-9.14345645904541,-0.885009765625,2.25830078125,-0.579833984375
2.8699999,3.3638534545898438,1.53707754611969,-9.148244857788086,-1.6937255859375,0.79345703125,-0.3662109375
2.8899999,3.3662476539611816,1.5442601442337036,-9.138668060302734,-1.251220703125,0.42724609375,-0.030517578125
2.9099999,3.3638534545898438,1.556231141090393,-9.136273384094238,-0.5645751953125,1.1444091796875,-0.18310546875
2.9299999,3.361459255218506,1.5610195398330688,-9.129091262817383,-0.4119873046875,1.495361328125,-0.3509521484375
2.9499999,3.361459255218506,1.5753847360610962,-9.129091262817383,-0.8544921875,0.701904296875,-0.457763671875
2.9699999,3.361459255218506,1.5849615335464478,-9.114726066589355,-1.0986328125,0.3509521484375,-0.3814697265625
2.9899999,3.3638534545898438,1.599326729774475,-9.124302864074707,0.2593994140625,0.457763671875,0.0762939453125
3.0099999,3.3686418533325195,1.6065093278884888,-9.126696586608887,1.5716552734375,0.9307861328125,0.0762939453125
3.0299999,3.3710360527038574,1.6041151285171509,-9.14345645904541,0.8392333984375,1.3580322265625,0.213623046875
3.0499999,3.3686418533325195,1.5945383310317993,-9.141061782836914,-1.007080078125,1.129150390625,-0.06103515625
3.0699999,3.3662476539611816,1.5873557329177856,-9.138668060302734,-1.8310546875,1.40380859375,-0.152587890625
3.0899999,3.3638534545898438,1.577778935432434,-9.114726066589355,-1.2664794921875,1.5106201171875,0.2899169921875
3.1099999,3.361459255218506,1.5945383310317993,-9.126696586608887,-0.7476806640625,0.6561279296875,-0.274658203125
3.1299999,3.361459255218506,1.599326729774475,-9.117119789123535,-0.54931640625,1.6937255859375,0.54931640625
3.1499999,3.3638534545898438,1.623268723487854,-9.105149269104004,-0.6103515625,2.4871826171875,0.5340576171875
3.1699999,3.361459255218506,1.6280571222305298,-9.097966194152832,-1.068115234375,0.3814697265625,0.762939453125
3.1899999,3.3638534545898438,1.6208745241165161,-9.0859956741333,-0.244140625,-0.0152587890625,1.190185546875
3.2099999,3.3662476539611816,1.5969325304031372,-9.08838939666748,0.3204345703125,0.9307861328125,0.457763671875
3.2299999,3.3686418533325195,1.5610195398330688,-9.114726066589355,-0.7781982421875,0.9002685546875,0.152587890625
3.2499999,3.3710360527038574,1.53707754611969,-9.131484985351562,-0.2288818359375,0.8697509765625,-0.2899169921875
3.2699999,3.3686418533325195,1.5179238319396973,-9.153033256530762,0.4119873046875,0.152587890625,-0.091552734375
3.2899999,3.3686418533325195,1.5298948287963867,-9.138668060302734,-0.18310546875,1.5869140625,-0.1373291015625
3.3099999,3.3638534545898438,1.534683346748352,-9.119514465332031,-2.1820068359375,1.190185546875,0
3.3299999000000002,3.361459255218506,1.5658079385757446,-9.0859956741333,-1.8310546875,0.06103515625,-0.3509521484375
3.3499999,3.361459255218506,1.601720929145813,-9.071630477905273,-0.823974609375,-0.6561279296875,-0.5645751953125
3.3699999,3.361459255218506,1.6304513216018677,-9.074024200439453,0.732421875,-0.213623046875,0.6256103515625
3.3899999,3.3662476539611816,1.6687586307525635,-9.105149269104004,-0.1983642578125,0.518798828125,0.335693359375
3.4099999,3.3686418533325195,1.680729627609253,-9.150638580322266,-1.068115234375,0.67138671875,0.9765625
3.4299999,3.3686418533325195,1.6855180263519287,-9.165003776550293,0.0457763671875,1.7242431640625,1.2664794921875
3.4499999,3.3638534545898438,1.6519991159439087,-9.174580574035645,1.3275146484375,1.15966796875,1.6632080078125
3.4699999,3.361459255218506,1.623268723487854,-9.174580574035645,-1.2054443359375,0.4425048828125,0.579833984375
3.4899999,3.361459255218506,1.5538369417190552,-9.155426979064941,-1.9378662109375,1.6937255859375,0.640869140625
3.5099999,3.3662476539611816,1.5059528350830078,-9.162610054016113,-0.396728515625,0.91552734375,0.0152587890625
3.5299999,3.3686418533325195,1.4532804489135742,-9.117119789123535,0.67138671875,1.556396484375,-0.640869140625
3.5499999,3.3662476539611816,1.4389152526855469,-9.102754592895508,0.0457763671875,-0.1220703125,-1.3427734375
3.5699999,3.3638534545898438,1.4389152526855469,-9.062053680419922,-1.190185546875,-0.213623046875,-1.5411376953125
3.5899999,3.359065055847168,1.4939818382263184,-9.074024200439453,-2.3345947265625,-0.0762939453125,-2.0751953125
3.6099999,3.359065055847168,1.5514427423477173,-9.105149269104004,-2.38037109375,0.6103515625,-1.2359619140625
3.6299999,3.3638534545898438,1.6304513216018677,-9.136273384094238,-1.89208984375,2.13623046875,-0.8087158203125
3.6499999,3.3638534545898438,1.7118542194366455,-9.162610054016113,-0.9918212890625,0.8697509765625,-0.640869140625
3.6699999,3.3662476539611816,1.7477672100067139,-9.14345645904541,0.30517578125,0.885009765625,0.67138671875
3.6899999,3.3638534545898438,1.766920804977417,-9.126696586608887,0.091552734375,-0.030517578125,0.48828125
3.7099999,3.359065055847168,1.7357962131500244,-9.10993766784668,0.091552734375,0.06103515625,0.2593994140625
3.7299999,3.359065055847168,1.6903064250946045,-9.0859956741333,1.0223388671875,1.129150390625,0.42724609375
3.7499999,3.35667085647583,1.6376339197158813,-9.095572471618652,0.0152587890625,-0.2593994140625,0.2899169921875
3.7699999,3.354276657104492,1.5969325304031372,-9.090784072875977,-1.220703125,-0.48828125,0.18310546875
3.7899999,3.3494882583618164,1.5873557329177856,-9.097966194152832,-0.335693359375,0.335693359375,-0.335693359375
3.8099999,3.3446998596191406,1.5849615335464478,-9.10993766784668,0.79345703125,-0.48828125,0.335693359375
3.8299999000000002,3.3423056602478027,1.5921441316604614,-9.138668060302734,0.7476806640625,-1.0528564453125,0.4119873046875
3.8499999,3.3423056602478027,1.6065093278884888,-9.157821655273438,-0.5035400390625,0.518798828125,-0.335693359375
3.8699999,3.3423056602478027,1.6112977266311646,-9.17936897277832,-0.8697509765625,1.6326904296875,-0.2593994140625
3.8899999,3.3423056602478027,1.6208745241165161,-9.174580574035645,-0.1220703125,0.9002685546875,0.1220703125
3.9099999,3.337517261505127,1.6328455209732056,-9.167398452758789,-0.79345703125,-0.244140625,0.1068115234375
3.9299999,3.332728862762451,1.6400281190872192,-9.136273384094238,-2.3040771484375,0.9765625,-0.0457763671875
3.9499999,3.3303346633911133,1.6663644313812256,-9.131484985351562,-1.4801025390625,1.0833740234375,-0.7476806640625
3.9699999,3.3303346633911133,1.678335428237915,-9.131484985351562,0.18310546875,0.1220703125,0.6866455078125
3.9899999,3.337517261505127,1.702277421951294,-9.131484985351562,0.54931640625,0.8697509765625,1.6021728515625
4.0099999,3.3423056602478027,1.7094600200653076,-9.133879661560059,0.7781982421875,0.6103515625,0.8544921875
4.029999900000001,3.339911460876465,1.6927006244659424,-9.11233139038086,0.9613037109375,0.6256103515625,1.6021728515625
4.0499999,3.335123062133789,1.6711528301239014,-9.102754592895508,0.4425048828125,-0.54931640625,1.129150390625
4.069999900000001,3.3255462646484375,1.6280571222305298,-9.090784072875977,1.0223388671875,0.2593994140625,1.40380859375
4.0899999000000005,3.3231520652770996,1.5849615335464478,-9.100360870361328,0.244140625,0.732421875,0.7171630859375
4.1099999,3.3207578659057617,1.5418659448623657,-9.133879661560059,-1.4190673828125,-0.0457763671875,0.4119873046875
4.1299999000000005,3.3231520652770996,1.5107412338256836,-9.14585018157959,-1.1444091796875,0.762939453125,0.0152587890625
4.1499999,3.3255462646484375,1.4844050407409668,-9.14345645904541,0.6103515625,0.91552734375,-0.79345703125
4.1699999000000005,3.3231520652770996,1.482010841369629,-9.126696586608887,-0.6103515625,-0.3662109375,-1.129150390625
4.1899999,3.3207578659057617,1.5203180313110352,-9.097966194152832,-2.410888671875,-0.91552734375,-2.6397705078125
4.209999900000001,3.315969467163086,1.5538369417190552,-9.097966194152832,-3.082275390625,0.1373291015625,-1.7852783203125
4.2299999,3.313575267791748,1.6376339197158813,-9.131484985351562,-1.4190673828125,0.244140625,-1.64794921875
4.249999900000001,3.31118106842041,1.6927006244659424,-9.141061782836914,0.48828125,1.3885498046875,0.06103515625
4.2699999,3.31118106842041,1.7477672100067139,-9.174580574035645,0.1373291015625,-0.30517578125,0
4.289999900000001,3.313575267791748,1.766920804977417,-9.162610054016113,0.0152587890625,0,0.4119873046875
4.3099999,3.31118106842041,1.7573440074920654,-9.150638580322266,0.732421875,1.2054443359375,0.4119873046875
4.329999900000001,3.315969467163086,1.745373010635376,-9.141061782836914,-0.091552734375,0.6561279296875,0.30517578125
4.3499999,3.313575267791748,1.702277421951294,-9.157821655273438,-1.1138916015625,-0.2593994140625,1.28173828125
4.369999900000001,3.315969467163086,1.6663644313812256,-9.169792175292969,-0.06103515625,1.6632080078125,0.6256103515625
4.3899999,3.313575267791748,1.6112977266311646,-9.198522567749023,1.2054443359375,2.1209716796875,-0.0457763671875
4.409999900000001,3.308786630630493,1.580173134803772,-9.191340446472168,1.007080078125,1.46484375,-0.42724609375
4.4299999,3.31118106842041,1.5682021379470825,-9.17697525024414,-0.457763671875,0.8544921875,-0.2288818359375
4.449999900000001,3.31118106842041,1.5729905366897583,-9.160215377807617,-0.8392333984375,0.54931640625,0.274658203125
4.4699999,3.313575267791748,1.5873557329177856,-9.148244857788086,-0.30517578125,1.8768310546875,0.1220703125
4.489999900000001,3.313575267791748,1.6136919260025024,-9.150638580322266,-0.6256103515625,1.800537109375,-0.9307861328125
4.5099999,3.315969467163086,1.6208745241165161,-9.117119789123535,-0.152587890625,1.9989013671875,-0.2899169921875
4.529999900000001,3.318363666534424,1.6424223184585571,-9.10993766784668,0.640869140625,-0.244140625,-0.091552734375
4.5499999,3.3207578659057617,1.644816517829895,-9.090784072875977,0.1678466796875,-0.1678466796875,-0.0457763671875
4.569999900000001,3.3231520652770996,1.6543933153152466,-9.093177795410156,0.6256103515625,1.3885498046875,-0.42724609375
4.5899999000000005,3.3231520652770996,1.659181833267212,-9.107542991638184,0.732421875,1.190185546875,-0.0762939453125
4.609999900000001,3.3255462646484375,1.6711528301239014,-9.102754592895508,0.1068115234375,0.8697509765625,0.3509521484375
4.6299999000000005,3.3255462646484375,1.680729627609253,-9.097966194152832,-1.190185546875,0.2288818359375,0.1068115234375
4.6499999,3.3231520652770996,1.6759412288665771,-9.102754592895508,-1.007080078125,0.1220703125,0.4730224609375
4.6699999000000005,3.318363666534424,1.6711528301239014,-9.129091262817383,0.4730224609375,0.54931640625,0.4730224609375
4.6899999,3.3207578659057617,1.659181833267212,-9.155426979064941,1.4190673828125,1.4495849609375,0.6866455078125
4.709999900000001,3.318363666534424,1.6496049165725708,-9.198522567749023,0.0152587890625,1.190185546875,0.885009765625
4.7299999,3.3207578659057617,1.6376339197158813,-9.191340446472168,-0.335693359375,1.434326171875,0.640869140625
4.749999900000001,3.318363666534424,1.6208745241165161,-9.181763648986816,0.1220703125,1.0833740234375,0.4119873046875
4.7699999,3.31118106842041,1.6065093278884888,-9.153033256530762,-0.274658203125,0.518798828125,0.030517578125
4.789999900000001,3.308786630630493,1.5921441316604614,-9.129091262817383,0.4425048828125,0.9765625,0.18310546875
4.8099999,3.308786630630493,1.5873557329177856,-9.129091262817383,0.3662109375,0.640869140625,0.152587890625
4.829999900000001,3.315969467163086,1.5849615335464478,-9.14585018157959,-0.3662109375,0.8544921875,-0.0762939453125
4.8499999,3.3255462646484375,1.5945383310317993,-9.172186851501465,-0.0457763671875,1.40380859375,-0.4730224609375
4.869999900000001,3.3303346633911133,1.599326729774475,-9.17697525024414,0.54931640625,1.8463134765625,0.1220703125
4.8899999,3.332728862762451,1.6112977266311646,-9.17936897277832,0.1068115234375,1.129150390625,0.1373291015625
4.909999900000001,3.3279404640197754,1.6184803247451782,-9.14345645904541,-0.4119873046875,1.8463134765625,-0.152587890625
4.9299999,3.3207578659057617,1.623268723487854,-9.100360870361328,-0.4119873046875,1.5869140625,0.0762939453125
4.949999900000001,3.315969467163086,1.6328455209732056,-9.08838939666748,-0.2593994140625,-0.48828125,-0.0152587890625
4.9699999,3.313575267791748,1.6376339197158813,-9.069235801696777,-0.0152587890625,0.8544921875,0.6103515625
4.989999900000001,3.315969467163086,1.644816517829895,-9.097966194152832,-0.1678466796875,1.3580322265625,0.579833984375
5.0099999,3.3207578659057617,1.647210717201233,-9.10993766784668,-0.1678466796875,1.2359619140625,0.5035400390625
5.029999900000001,3.3231520652770996,1.647210717201233,-9.126696586608887,0.0152587890625,0.54931640625,0.732421875
5.0499999,3.3255462646484375,1.6328455209732056,-9.148244857788086,-0.1678466796875,0.2899169921875,0.6561279296875
5.069999900000001,3.3279404640197754,1.623268723487854,-9.155426979064941,0.1983642578125,1.28173828125,0.1220703125
5.0899999000000005,3.3303346633911133,1.5921441316604614,-9.165003776550293,0.79345703125,1.2969970703125,0.3509521484375
5.109999900000001,3.332728862762451,1.577778935432434,-9.167398452758789,0.396728515625,-0.0152587890625,-0.1068115234375
5.1299999000000005,3.3303346633911133,1.5610195398330688,-9.148244857788086,-0.5340576171875,0.9765625,-0.2899169921875
5.1499999,3.3255462646484375,1.556231141090393,-9.14585018157959,-1.7242431640625,1.251220703125,-0.0152587890625
5.1699999000000005,3.3255462646484375,1.580173134803772,-9.133879661560059,-1.28173828125,1.1138916015625,-0.732421875
5.1899999,3.3255462646484375,1.5921441316604614,-9.141061782836914,-0.2593994140625,0.8087158203125,-0.1983642578125
5.209999900000001,3.3303346633911133,1.623268723487854,-9.14345645904541,-0.244140625,1.2664794921875,-0.152587890625
5.2299999,3.335123062133789,1.644816517829895,-9.141061782836914,-0.732421875,1.7242431640625,-0.2288818359375
5.249999900000001,3.335123062133789,1.647210717201233,-9.131484985351562,-0.30517578125,0.8697509765625,0.3662109375
5.2699999,3.332728862762451,1.6543933153152466,-9.114726066589355,0.3662109375,0.5645751953125,-0.0152587890625
5.289999900000001,3.332728862762451,1.644816517829895,-9.095572471618652,0.1220703125,0.5645751953125,-0.1220703125
5.3099999,3.332728862762451,1.6328455209732056,-9.107542991638184,-0.8087158203125,0,0.152587890625
5.329999900000001,3.335123062133789,1.6352397203445435,-9.121908187866211,-0.946044921875,1.1138916015625,-0.3509521484375
5.3499999,3.337517261505127,1.6328455209732056,-9.138668060302734,0.42724609375,1.8310546875,0.06103515625
5.369999900000001,3.339911460876465,1.623268723487854,-9.14585018157959,0.8544921875,1.0223388671875,0.67138671875
5.3899999,3.339911460876465,1.623268723487854,-9.153033256530762,-0.18310546875,-0.152587890625,-0.18310546875
5.409999900000001,3.337517261505127,1.5945383310317993,-9.141061782836914,-0.457763671875,1.1749267578125,0.152587890625
5.4299999,3.332728862762451,1.5753847360610962,-9.148244857788086,-0.701904296875,1.312255859375,-0.2288818359375
5.449999900000001,3.3279404640197754,1.5634137392044067,-9.124302864074707,-1.4495849609375,1.3427734375,-1.0986328125
5.4699999,3.3255462646484375,1.5729905366897583,-9.121908187866211,-1.4801025390625,0.1678466796875,-1.007080078125
5.489999900000001,3.3231520652770996,1.6089035272598267,-9.102754592895508,-0.0457763671875,0.3814697265625,-0.3814697265625
5.5099999,3.3207578659057617,1.647210717201233,-9.11233139038086,-0.48828125,0.9613037109375,0.1068115234375
5.529999900000001,3.3231520652770996,1.6903064250946045,-9.131484985351562,-1.6021728515625,0.67138671875,-0.030517578125
5.5499999,3.3231520652770996,1.7046716213226318,-9.150638580322266,-1.3275146484375,1.2664794921875,0.18310546875
5.569999900000001,3.3231520652770996,1.699883222579956,-9.157821655273438,-0.1373291015625,1.4495849609375,0.3814697265625
5.5899999000000005,3.3255462646484375,1.6687586307525635,-9.160215377807617,1.03759765625,0.823974609375,0.518798828125
5.609999900000001,3.3279404640197754,1.6304513216018677,-9.153033256530762,0.946044921875,0.48828125,0.030517578125
5.6299999000000005,3.3303346633911133,1.5897499322891235,-9.150638580322266,-0.4730224609375,0.91552734375,-0.396728515625
5.6499999,3.335123062133789,1.5729905366897583,-9.150638580322266,-1.6632080078125,1.2664794921875,-0.9002685546875
5.6699999000000005,3.335123062133789,1.599326729774475,-9.119514465332031,-0.8087158203125,1.3580322265625,-0.518798828125
5.6899999,3.332728862762451,1.6328455209732056,-9.093177795410156,-0.8544921875,1.15966796875,-0.18310546875
5.709999900000001,3.3303346633911133,1.6759412288665771,-9.064447402954102,-0.732421875,1.068115234375,0.213623046875
5.7299999,3.3303346633911133,1.7118542194366455,-9.038111686706543,-0.6256103515625,0.762939453125,0.42724609375
5.749999900000001,3.3303346633911133,1.742978811264038,-9.033323287963867,-0.5340576171875,-0.54931640625,0.2899169921875
5.7699999,3.3303346633911133,1.7573440074920654,-9.038111686706543,-0.518798828125,-0.2899169921875,0.396728515625
5.789999900000001,3.332728862762451,1.7717092037200928,-9.057265281677246,-0.8087158203125,0.2593994140625,0.67138671875
5.8099999,3.332728862762451,1.7477672100067139,-9.126696586608887,0.030517578125,-0.67138671875,1.9073486328125
5.829999900000001,3.332728862762451,1.7166426181793213,-9.174580574035645,0.6561279296875,0.54931640625,1.64794921875
5.8499999,3.332728862762451,1.6400281190872192,-9.251194953918457,0.4730224609375,1.190185546875,1.40380859375
5.869999900000001,3.3303346633911133,1.5682021379470825,-9.284713745117188,0.42724609375,1.8310546875,-0.0152587890625
5.8899999,3.3279404640197754,1.5083470344543457,-9.27034854888916,-0.640869140625,2.5177001953125,-0.9002685546875
5.909999900000001,3.3279404640197754,1.4867992401123047,-9.23682975769043,-1.3275146484375,0.762939453125,-1.0528564453125
5.9299999,3.3303346633911133,1.5131354331970215,-9.17936897277832,-0.5035400390625,0.8697509765625,-0.946044921875
5.949999900000001,3.335123062133789,1.5682021379470825,-9.126696586608887,-0.030517578125,2.3040771484375,-0.6866455078125
5.9699999,3.3423056602478027,1.6376339197158813,-9.105149269104004,-0.5645751953125,1.2054443359375,-0.54931640625
5.989999900000001,3.3446998596191406,1.6879122257232666,-9.071630477905273,-0.640869140625,1.1444091796875,0.30517578125
6.0099999,3.3470940589904785,1.7310078144073486,-9.050082206726074,0.5950927734375,1.4190673828125,0.213623046875
6.029999900000001,3.3446998596191406,1.7549498081207275,-9.042900085449219,1.190185546875,1.1138916015625,0.1220703125
6.0499999,3.3423056602478027,1.7573440074920654,-9.059659004211426,-0.6866455078125,0.7171630859375,1.46484375
6.069999900000001,3.3446998596191406,1.7621324062347412,-9.093177795410156,-1.739501953125,0.9307861328125,1.373291015625
6.0899999000000005,3.3494882583618164,1.7381904125213623,-9.119514465332031,-0.4730224609375,1.9073486328125,1.40380859375
6.109999900000001,3.3494882583618164,1.7046716213226318,-9.155426979064941,-0.3204345703125,0.30517578125,1.28173828125
6.1299999000000005,3.3494882583618164,1.659181833267212,-9.148244857788086,0.5035400390625,0.7476806640625,0.762939453125
6.149999900000001,3.3446998596191406,1.6089035272598267,-9.148244857788086,-0.1373291015625,0.8697509765625,0.396728515625
6.1699999000000005,3.3446998596191406,1.5897499322891235,-9.136273384094238,-1.3580322265625,0.7781982421875,-0.3814697265625
6.1899999,3.3446998596191406,1.5873557329177856,-9.126696586608887,-1.15966796875,1.0223388671875,-0.030517578125
6.209999900000001,3.3446998596191406,1.599326729774475,-9.124302864074707,-0.30517578125,0.30517578125,0.732421875
6.2299999,3.3470940589904785,1.625662922859192,-9.124302864074707,0.42724609375,0.946044921875,0
6.249999900000001,3.3446998596191406,1.647210717201233,-9.131484985351562,-0.579833984375,1.1138916015625,-0.67138671875
6.2699999,3.3446998596191406,1.6639702320098877,-9.124302864074707,-0.91552734375,1.556396484375,0.1220703125
6.289999900000001,3.3470940589904785,1.6879122257232666,-9.133879661560059,-0.79345703125,0.4425048828125,0.1220703125
6.3099999,3.3470940589904785,1.6879122257232666,-9.133879661560059,0.030517578125,0.5340576171875,0.6866455078125
6.329999900000001,3.3470940589904785,1.680729627609253,-9.14345645904541,0.5645751953125,1.77001953125,0.1678466796875
6.3499999,3.3494882583618164,1.659181833267212,-9.157821655273438,-0.54931640625,1.373291015625,-0.4119873046875
6.369999900000001,3.3494882583618164,1.644816517829895,-9.148244857788086,-0.5645751953125,1.4801025390625,-0.1983642578125
6.3899999,3.3518824577331543,1.6352397203445435,-9.131484985351562,-0.3814697265625,1.190185546875,0.1373291015625
6.409999900000001,3.354276657104492,1.6376339197158813,-9.097966194152832,-0.8697509765625,1.3275146484375,-0.213623046875
6.4299999,3.354276657104492,1.647210717201233,-9.0859956741333,-1.0986328125,0.0152587890625,-0.579833984375
6.449999900000001,3.354276657104492,1.6519991159439087,-9.066842079162598,-0.244140625,0.8697509765625,0
6.4699999,3.354276657104492,1.6687586307525635,-9.078812599182129,0.396728515625,0.701904296875,-0.1678466796875
6.489999900000001,3.3518824577331543,1.680729627609253,-9.090784072875977,-0.091552734375,0.42724609375,0.0762939453125
6.5099999,3.354276657104492,1.6927006244659424,-9.11233139038086,0.457763671875,0.5340576171875,0.4119873046875
6.529999900000001,3.3518824577331543,1.6903064250946045,-9.119514465332031,0.2593994140625,0.9918212890625,0.701904296875
6.5499999,3.3518824577331543,1.6879122257232666,-9.129091262817383,-0.0762939453125,0.701904296875,0.5340576171875
6.569999900000001,3.3518824577331543,1.6759412288665771,-9.136273384094238,-0.42724609375,0.06103515625,0.1983642578125
6.5899999000000005,3.3494882583618164,1.6543933153152466,-9.14585018157959,-0.762939453125,0.579833984375,0.3204345703125
6.609999900000001,3.3518824577331543,1.6424223184585571,-9.138668060302734,-1.0986328125,2.3040771484375,-0.06103515625
6.6299999000000005,3.3494882583618164,1.6352397203445435,-9.136273384094238,-0.6561279296875,1.1749267578125,-0.4425048828125
6.649999900000001,3.3494882583618164,1.6304513216018677,-9.107542991638184,-0.244140625,0.3662109375,-0.1983642578125
6.6699999000000005,3.3518824577331543,1.6543933153152466,-9.093177795410156,-0.3204345703125,0.244140625,-0.5340576171875
6.6899999,3.3494882583618164,1.6615760326385498,-9.095572471618652,-0.5035400390625,0.8697509765625,0.1678466796875
6.709999900000001,3.3494882583618164,1.6879122257232666,-9.107542991638184,-0.8392333984375,1.52587890625,-0.1220703125
6.7299999,3.3494882583618164,1.6927006244659424,-9.136273384094238,-0.6103515625,0.8392333984375,0.0457763671875
6.749999900000001,3.3470940589904785,1.6879122257232666,-9.136273384094238,0.1678466796875,1.190185546875,0.5340576171875
6.7699999,3.3423056602478027,1.6831238269805908,-9.141061782836914,0.213623046875,1.068115234375,-0.3204345703125
6.789999900000001,3.339911460876465,1.6687586307525635,-9.114726066589355,0.762939453125,0.9613037109375,-0.091552734375
6.8099999,3.3423056602478027,1.6735470294952393,-9.097966194152832,-0.0152587890625,0.18310546875,-0.213623046875
6.829999900000001,3.3423056602478027,1.6687586307525635,-9.105149269104004,-1.4801025390625,-0.48828125,0.518798828125
6.8499999,3.3470940589904785,1.6711528301239014,-9.10993766784668,-0.7781982421875,1.9378662109375,0.0762939453125
6.869999900000001,3.3518824577331543,1.6711528301239014,-9.131484985351562,0.5035400390625,2.044677734375,-0.5950927734375
6.8899999,3.3518824577331543,1.6687586307525635,-9.121908187866211,0.2288818359375,1.1749267578125,-0.244140625
6.909999900000001,3.3518824577331543,1.6735470294952393,-9.102754592895508,-1.0986328125,0.0152587890625,-0.030517578125
6.9299999,3.3518824577331543,1.6855180263519287,-9.0859956741333,-1.2359619140625,0.0457763671875,0.1373291015625
6.949999900000001,3.3494882583618164,1.6950948238372803,-9.08838939666748,0.4730224609375,0.701904296875,0.18310546875
6.9699999,3.3494882583618164,1.7046716213226318,-9.105149269104004,1.190185546875,0.732421875,0.152587890625
6.989999900000001,3.3494882583618164,1.702277421951294,-9.129091262817383,0.2593994140625,0.335693359375,0.1983642578125
7.0099999,3.3470940589904785,1.6927006244659424,-9.138668060302734,-0.6103515625,1.15966796875,0.1678466796875
7.029999900000001,3.3470940589904785,1.678335428237915,-9.150638580322266,-0.6256103515625,1.0528564453125,0.1678466796875
7.0499999,3.3470940589904785,1.6543933153152466,-9.148244857788086,0.0457763671875,1.1749267578125,0.396728515625
7.069999900000001,3.3446998596191406,1.6424223184585571,-9.148244857788086,-0.18310546875,1.15966796875,-0.0457763671875
7.0899999000000005,3.3423056602478027,1.6280571222305298,-9.126696586608887,-0.5950927734375,1.1444091796875,-0.2288818359375
7.109999900000001,3.337517261505127,1.623268723487854,-9.119514465332031,-0.4119873046875,0.2899169921875,-0.213623046875
7.1299999000000005,3.335123062133789,1.6328455209732056,-9.102754592895508,0.579833984375,0.4119873046875,-0.946044921875
7.149999900000001,3.335123062133789,1.644816517829895,-9.107542991638184,0.0762939453125,0.91552734375,-0.5645751953125
7.1699999000000005,3.337517261505127,1.6735470294952393,-9.117119789123535,-1.6326904296875,0.91552734375,-0.3204345703125
7.1899999,3.3518824577331543,1.721431016921997,-9.138668060302734,-1.1138916015625,1.190185546875,-0.18310546875
7.209999900000001,3.354276657104492,1.723825216293335,-9.121908187866211,-0.030517578125,1.6937255859375,0.1373291015625
7.2299999,3.35667085647583,1.7405846118927002,-9.095572471618652,0.3662109375,0.4119873046875,-0.0152587890625
7.249999900000001,3.354276657104492,1.7310078144073486,-9.066842079162598,0.6256103515625,-0.6561279296875,0.67138671875
7.2699999,3.3494882583618164,1.7286136150360107,-9.035717010498047,0.732421875,-0.0152587890625,0.579833984375
7.289999900000001,3.3446998596191406,1.7094600200653076,-9.05487060546875,0.1678466796875,-0.0152587890625,0.4425048828125
7.3099999,3.339911460876465,1.7166426181793213,-9.066842079162598,0.1373291015625,0.5645751953125,0.3814697265625
7.329999900000001,3.337517261505127,1.7310078144073486,-9.08838939666748,0.7476806640625,0.79345703125,1.373291015625
7.3499999,3.339911460876465,1.7573440074920654,-9.119514465332031,2.6702880859375,-0.8544921875,2.532958984375
7.369999900000001,3.339911460876465,1.742978811264038,-9.121908187866211,5.8441162109375,0.1220703125,3.1585693359375
7.3899999,3.339911460876465,1.7070658206939697,-9.131484985351562,5.31005859375,0.1068115234375,1.2969970703125
7.409999900000001,3.332728862762451,1.623268723487854,-9.14345645904541,0.762939453125,-0.823974609375,0.54931640625
7.4299999,3.3255462646484375,1.5538369417190552,-9.150638580322266,-0.640869140625,-0.1373291015625,0.3509521484375
7.449999900000001,3.313575267791748,1.4987702369689941,-9.169792175292969,-0.457763671875,0.6103515625,-0.2288818359375
7.4699999,3.3063924312591553,1.4772224426269531,-9.193734169006348,-1.3580322265625,0.6103515625,-0.3814697265625
7.489999900000001,3.3039982318878174,1.4748282432556152,-9.193734169006348,-0.9307861328125,1.28173828125,-0.7781982421875
7.5099999,3.308786630630493,1.5059528350830078,-9.191340446472168,-1.800537109375,0.9307861328125,-1.5106201171875
7.529999900000001,3.31118106842041,1.556231141090393,-9.155426979064941,-2.838134765625,1.129150390625,-1.2664794921875
7.5499999,3.318363666534424,1.6376339197158813,-9.124302864074707,-1.4495849609375,0.5950927734375,-0.9307861328125
7.569999900000001,3.318363666534424,1.7046716213226318,-9.095572471618652,0.640869140625,0.1983642578125,0.518798828125
7.5899999000000005,3.3231520652770996,1.766920804977417,-9.0859956741333,0.7476806640625,0.3662109375,0.5645751953125
7.609999900000001,3.3231520652770996,1.7836803197860718,-9.102754592895508,-0.0762939453125,0.2593994140625,0.335693359375
7.6299999000000005,3.3231520652770996,1.7884687185287476,-9.107542991638184,0.885009765625,0.885009765625,0.5035400390625
7.649999900000001,3.3231520652770996,1.766920804977417,-9.136273384094238,1.46484375,0.06103515625,1.6937255859375
7.6699999000000005,3.3207578659057617,1.742978811264038,-9.148244857788086,1.8310546875,0.0152587890625,2.2430419921875
7.6899999,3.3207578659057617,1.7070658206939697,-9.184157371520996,0.4730224609375,0.7476806640625,2.044677734375
7.709999900000001,3.3207578659057617,1.6519991159439087,-9.224859237670898,-1.2054443359375,1.678466796875,1.678466796875
7.7299999,3.3207578659057617,1.625662922859192,-9.258378028869629,-1.40380859375,2.4871826171875,0.4730224609375
7.749999900000001,3.3255462646484375,1.5729905366897583,-9.251194953918457,0.1220703125,2.7313232421875,1.4495849609375
7.7699999,3.3207578659057617,1.5490485429763794,-9.244012832641602,-0.1983642578125,0.732421875,1.28173828125
7.789999900000001,3.318363666534424,1.5131354331970215,-9.174580574035645,-0.457763671875,2.166748046875,0.1983642578125
7.8099999,3.308786630630493,1.4748282432556152,-9.114726066589355,-1.708984375,2.6397705078125,-0.579833984375
7.829999900000001,3.308786630630493,1.4676456451416016,-9.035717010498047,-3.265380859375,1.0833740234375,-1.983642578125
7.8499999,3.308786630630493,1.479616641998291,-8.973467826843262,-3.5858154296875,0.18310546875,-1.8310546875
7.869999900000001,3.315969467163086,1.5322890281677246,-8.939949035644531,-2.3040771484375,-0.640869140625,-1.495361328125
7.8899999,3.3255462646484375,1.5969325304031372,-8.96389102935791,-0.5645751953125,-1.251220703125,-1.1444091796875
7.909999900000001,3.3279404640197754,1.6735470294952393,-9.038111686706543,-1.0986328125,-1.0528564453125,-1.495361328125
7.9299999,3.332728862762451,1.742978811264038,-9.119514465332031,-1.0223388671875,1.1749267578125,-0.946044921875
7.949999900000001,3.3303346633911133,1.8100165128707886,-9.198522567749023,0.2593994140625,1.3580322265625,-0.1373291015625
7.9699999,3.3279404640197754,1.843535304069519,-9.229647636413574,-0.2899169921875,0.9765625,1.1444091796875
7.989999900000001,3.3279404640197754,1.8626888990402222,-9.248801231384277,-0.7781982421875,0.3509521484375,1.312255859375
8.0099999,3.3207578659057617,1.8195933103561401,-9.210494041442871,0.0457763671875,2.4566650390625,2.2735595703125
8.0299999,3.313575267791748,1.7573440074920654,-9.17697525024414,1.7547607421875,1.9378662109375,1.800537109375
8.049999900000001,3.308786630630493,1.6615760326385498,-9.10993766784668,0.8697509765625,0.4425048828125,0.5950927734375
8.069999900000001,3.3039982318878174,1.5921441316604614,-9.066842079162598,-0.4730224609375,-0.396728515625,-0.152587890625
8.0899999,3.308786630630493,1.5466543436050415,-9.045293807983398,-0.244140625,-0.48828125,-0.3814697265625
8.1099999,3.313575267791748,1.5490485429763794,-9.083600997924805,0.30517578125,-0.274658203125,-0.152587890625
8.129999900000001,3.318363666534424,1.5682021379470825,-9.117119789123535,0.091552734375,1.1444091796875,0.091552734375
8.149999900000001,3.3207578659057617,1.599326729774475,-9.153033256530762,-0.3814697265625,1.495361328125,-0.3662109375
8.1699999,3.3207578659057617,1.6352397203445435,-9.131484985351562,0.6561279296875,1.15966796875,-0.6561279296875
8.1899999,3.318363666534424,1.6687586307525635,-9.107542991638184,1.64794921875,-0.396728515625,-0.18310546875
8.2099999,3.315969467163086,1.6879122257232666,-9.066842079162598,0.6561279296875,-0.3662109375,0.6866455078125
8.229999900000001,3.315969467163086,1.7046716213226318,-9.059659004211426,-0.213623046875,0.152587890625,0.030517578125
8.2499999,3.31118106842041,1.702277421951294,-9.074024200439453,-0.3814697265625,-0.335693359375,-0.091552734375
8.2699999,3.3063924312591553,1.6903064250946045,-9.102754592895508,0.213623046875,-0.3509521484375,0.67138671875
8.2899999,3.2992098331451416,1.6831238269805908,-9.133879661560059,0.0457763671875,0.1068115234375,0.518798828125
8.309999900000001,3.2968156337738037,1.659181833267212,-9.165003776550293,-0.7781982421875,0.640869140625,0.518798828125
8.3299999,3.294421434402466,1.6376339197158813,-9.196128845214844,-0.9613037109375,0.1983642578125,0.54931640625
8.3499999,3.2968156337738037,1.6160861253738403,-9.21288776397705,-0.732421875,0.9765625,0.1678466796875
8.3699999,3.3016040325164795,1.6184803247451782,-9.21288776397705,0.030517578125,1.373291015625,-0.3204345703125
8.389999900000001,3.3016040325164795,1.6304513216018677,-9.188945770263672,0.091552734375,0.5950927734375,0.6561279296875
8.4099999,3.2992098331451416,1.659181833267212,-9.14585018157959,-0.518798828125,-0.3204345703125,1.007080078125
8.4299999,3.292027235031128,1.6831238269805908,-9.11233139038086,-0.030517578125,-0.1068115234375,0.9613037109375
8.4499999,3.287238836288452,1.7046716213226318,-9.10993766784668,0.5340576171875,0.67138671875,1.068115234375
8.469999900000001,3.287238836288452,1.7094600200653076,-9.124302864074707,0.6256103515625,1.6937255859375,1.373291015625
8.4899999,3.294421434402466,1.7046716213226318,-9.165003776550293,-0.1678466796875,1.1444091796875,1.251220703125
8.5099999,3.3039982318878174,1.6735470294952393,-9.188945770263672,0.06103515625,1.3580322265625,0.946044921875
8.5299999,3.31118106842041,1.6304513216018677,-9.21288776397705,1.007080078125,1.129150390625,0.6561279296875
8.549999900000001,3.31118106842041,1.5849615335464478,-9.193734169006348,2.0294189453125,1.77001953125,-0.1678466796875
8.569999900000001,3.3039982318878174,1.5466543436050415,-9.17697525024414,0.67138671875,0.8697509765625,-0.030517578125
8.5899999,3.2992098331451416,1.5203180313110352,-9.162610054016113,-1.953125,0.0457763671875,-0.518798828125
8.6099999,3.294421434402466,1.5179238319396973,-9.155426979064941,-1.6937255859375,1.800537109375,-0.9307861328125
8.629999900000001,3.2968156337738037,1.5322890281677246,-9.14345645904541,-0.2593994140625,2.9296875,-1.129150390625
8.649999900000001,3.2968156337738037,1.5634137392044067,-9.131484985351562,-1.6937255859375,1.1749267578125,-0.7781982421875
8.6699999,3.3039982318878174,1.623268723487854,-9.08838939666748,-3.082275390625,0.335693359375,-1.1749267578125
8.6899999,3.308786630630493,1.678335428237915,-9.064447402954102,-1.1749267578125,0.06103515625,-0.42724609375
8.709999900000001,3.308786630630493,1.7717092037200928,-9.071630477905273,-1.0223388671875,1.64794921875,0.1678466796875
8.729999900000001,3.3063924312591553,1.778891921043396,-9.114726066589355,-1.800537109375,0.3509521484375,0.7171630859375
8.7499999,3.308786630630493,1.766920804977417,-9.126696586608887,-2.0904541015625,1.0528564453125,0.8392333984375
8.7699999,3.31118106842041,1.7334020137786865,-9.165003776550293,-2.3956298828125,0.6866455078125,0.5035400390625
8.7899999,3.313575267791748,1.6879122257232666,-9.17697525024414,-1.0223388671875,1.1444091796875,0.4119873046875
8.809999900000001,3.313575267791748,1.6496049165725708,-9.17697525024414,0.4425048828125,1.3580322265625,0.457763671875
8.8299999,3.313575267791748,1.6184803247451782,-9.193734169006348,-0.18310546875,-0.762939453125,0.1373291015625
8.8499999,3.3063924312591553,1.5945383310317993,-9.191340446472168,-1.8310546875,0.5035400390625,0.0762939453125
8.8699999,3.3016040325164795,1.5945383310317993,-9.198522567749023,-2.838134765625,2.5787353515625,-0.6103515625
8.889999900000001,3.2968156337738037,1.601720929145813,-9.205705642700195,-1.983642578125,2.349853515625,-0.30517578125
8.9099999,3.2968156337738037,1.6376339197158813,-9.181763648986816,-1.6021728515625,2.0904541015625,-0.48828125
8.9299999,3.3016040325164795,1.6711528301239014,-9.165003776550293,-1.739501953125,1.3885498046875,-0.244140625
8.9499999,3.3063924312591553,1.7046716213226318,-9.133879661560059,-1.1749267578125,1.1138916015625,-0.06103515625
8.969999900000001,3.31118106842041,1.7310078144073486,-9.100360870361328,0.244140625,1.8157958984375,-0.2593994140625
8.9899999,3.31118106842041,1.7357962131500244,-9.081207275390625,-0.274658203125,0.396728515625,-0.1373291015625
9.0099999,3.31118106842041,1.7357962131500244,-9.05487060546875,-1.4801025390625,0.579833984375,-0.1373291015625
9.0299999,3.31118106842041,1.7262194156646729,-9.066842079162598,-2.5634765625,0.6561279296875,-0.396728515625
9.049999900000001,3.318363666534424,1.723825216293335,-9.08838939666748,-1.6326904296875,1.068115234375,-0.0762939453125
9.069999900000001,3.3207578659057617,1.723825216293335,-9.124302864074707,-0.213623046875,1.5411376953125,0.1220703125
9.0899999,3.3303346633911133,1.7405846118927002,-9.126696586608887,1.068115234375,2.0294189453125,0.1983642578125
9.1099999,3.3303346633911133,1.7405846118927002,-9.10993766784668,0.5645751953125,0.8544921875,0.6256103515625
9.129999900000001,3.3279404640197754,1.7477672100067139,-9.08838939666748,-1.800537109375,-0.2899169921875,0.152587890625
9.149999900000001,3.3207578659057617,1.7357962131500244,-9.064447402954102,-2.3651123046875,0.579833984375,-0.244140625
9.1699999,3.315969467163086,1.7166426181793213,-9.07641887664795,-1.312255859375,0.9002685546875,-0.0762939453125
9.1899999,3.31118106842041,1.6927006244659424,-9.107542991638184,-0.3662109375,0.6561279296875,-0.1678466796875
9.209999900000001,3.308786630630493,1.6855180263519287,-9.14345645904541,-0.5340576171875,0.9918212890625,-0.6561279296875
9.229999900000001,3.308786630630493,1.6927006244659424,-9.165003776550293,-1.2664794921875,1.556396484375,-1.0528564453125
9.2499999,3.31118106842041,1.7166426181793213,-9.17936897277832,-1.708984375,0.8544921875,-0.518798828125
9.2699999,3.31118106842041,1.7477672100067139,-9.184157371520996,-1.373291015625,0.5645751953125,-0.1068115234375
9.2899999,3.315969467163086,1.7908629179000854,-9.162610054016113,-0.0457763671875,2.1209716796875,-0.518798828125
9.309999900000001,3.318363666534424,1.8124107122421265,-9.14345645904541,-1.0528564453125,1.77001953125,0.0457763671875
9.3299999,3.3207578659057617,1.8387469053268433,-9.093177795410156,-1.6937255859375,1.4495849609375,0.457763671875
9.3499999,3.3255462646484375,1.8483237028121948,-9.064447402954102,-1.8768310546875,0.2899169921875,0.7781982421875
9.3699999,3.3255462646484375,1.8411411046981812,-9.038111686706543,-0.4119873046875,0.5645751953125,1.0223388671875
9.389999900000001,3.3231520652770996,1.8195933103561401,-9.047688484191895,0.7476806640625,0.79345703125,1.2359619140625
9.4099999,3.3231520652770996,1.7860745191574097,-9.066842079162598,0.4730224609375,0.6561279296875,0.7781982421875
9.4299999,3.3255462646484375,1.7501614093780518,-9.093177795410156,0.1068115234375,0.9765625,0.6256103515625
9.4499999,3.3255462646484375,1.7190368175506592,-9.105149269104004,-0.946044921875,0.9765625,0.48828125
9.469999900000001,3.3255462646484375,1.6974890232086182,-9.119514465332031,-1.0223388671875,0.6561279296875,0.4730224609375
9.4899999,3.3255462646484375,1.6927006244659424,-9.10993766784668,-0.457763671875,0.9765625,0.2288818359375
9.5099999,3.3255462646484375,1.6879122257232666,-9.107542991638184,0.3662109375,0.8087158203125,0.1983642578125
9.5299999,3.3255462646484375,1.6879122257232666,-9.102754592895508,0.885009765625,0.274658203125,-0.091552734375
9.549999900000001,3.3255462646484375,1.6927006244659424,-9.102754592895508,1.495361328125,0.274658203125,-0.7171630859375
9.569999900000001,3.3231520652770996,1.699883222579956,-9.102754592895508,1.312255859375,0.7781982421875,-0.5950927734375
9.5899999,3.318363666534424,1.7142484188079834,-9.102754592895508,0.2899169921875,0.8544921875,-0.335693359375
9.6099999,3.315969467163086,1.7286136150360107,-9.10993766784668,-0.4425048828125,0.2593994140625,-0.2288818359375
9.629999900000001,3.315969467163086,1.7549498081207275,-9.11233139038086,-0.732421875,0.4730224609375,-0.885009765625
9.649999900000001,3.315969467163086,1.766920804977417,-9.129091262817383,-0.1373291015625,0.42724609375,-0.1220703125
9.6699999,3.3207578659057617,1.7836803197860718,-9.150638580322266,-0.5035400390625,0.42724609375,0.1068115234375
9.6899999,3.318363666534424,1.800439715385437,-9.157821655273438,-1.2359619140625,1.3427734375,-0.030517578125
9.709999900000001,3.3207578659057617,1.7980455160140991,-9.165003776550293,-0.67138671875,1.4801025390625,0.5035400390625
9.729999900000001,3.3207578659057617,1.802833914756775,-9.136273384094238,1.0223388671875,1.251220703125,0.3204345703125
9.7499999,3.3207578659057617,1.7884687185287476,-9.100360870361328,1.2969970703125,0.6103515625,0.274658203125
9.7699999,3.315969467163086,1.764526605606079,-9.083600997924805,-0.274658203125,-0.6256103515625,0.30517578125
9.7899999,3.315969467163086,1.7501614093780518,-9.059659004211426,-0.9918212890625,1.3885498046875,-0.1678466796875
9.809999900000001,3.31118106842041,1.7357962131500244,-9.0859956741333,-1.77001953125,1.129150390625,0.030517578125
9.8299999,3.313575267791748,1.721431016921997,-9.126696586608887,-1.4495849609375,0.4425048828125,0.732421875
9.8499999,3.315969467163086,1.723825216293335,-9.157821655273438,-0.0762939453125,1.953125,0.1068115234375
9.8699999,3.3207578659057617,1.7190368175506592,-9.167398452758789,0.0762939453125,2.3956298828125,-0.18310546875
9.889999900000001,3.3207578659057617,1.723825216293335,-9.150638580322266,-0.1068115234375,1.129150390625,-0.091552734375
9.9099999,3.3231520652770996,1.7381904125213623,-9.117119789123535,-0.2593994140625,0.2899169921875,-0.5950927734375
9.9299999,3.3255462646484375,1.745373010635376,-9.093177795410156,0.5645751953125,0.885009765625,-0.3509521484375
9.9499999,3.3255462646484375,1.7573440074920654,-9.078812599182129,2.7313232421875,1.1138916015625,-0.1220703125
9.969999900000001,3.3255462646484375,1.7525556087493896,-9.081207275390625,2.3040771484375,0.2288818359375,0.152587890625
9.9899999,3.3231520652770996,1.7501614093780518,-9.100360870361328,-2.3345947265625,-0.0762939453125,-0.640869140625
10.0099999,3.3207578659057617,1.7573440074920654,-9.10993766784668,-3.1280517578125,1.4190673828125,-0.946044921875
10.0299999,3.3207578659057617,1.766920804977417,-9.141061782836914,-0.91552734375,1.52587890625,0.213623046875
10.049999900000001,3.3231520652770996,1.7884687185287476,-9.160215377807617,-0.48828125,0.79345703125,0.457763671875
10.069999900000001,3.3255462646484375,1.800439715385437,-9.157821655273438,0.213623046875,1.373291015625,0.3509521484375
10.0899999,3.3255462646484375,1.7836803197860718,-9.148244857788086,-0.67138671875,1.373291015625,0.4730224609375
10.1099999,3.3231520652770996,1.7597382068634033,-9.117119789123535,-1.617431640625,1.373291015625,-0.0762939453125
10.129999900000001,3.3207578659057617,1.7310078144073486,-9.08838939666748,-0.885009765625,0.946044921875,-0.8544921875
10.149999900000001,3.318363666534424,1.7142484188079834,-9.074024200439453,0.0457763671875,0.1373291015625,-0.6561279296875
10.1699999,3.318363666534424,1.7094600200653076,-9.069235801696777,-1.0833740234375,1.190185546875,-0.4425048828125
10.1899999,3.318363666534424,1.7310078144073486,-9.095572471618652,-2.532958984375,0.946044921875,-1.220703125
10.209999900000001,3.318363666534424,1.742978811264038,-9.105149269104004,-2.3345947265625,1.8310546875,-0.5340576171875
10.229999900000001,3.3231520652770996,1.800439715385437,-9.10993766784668,-1.739501953125,0.7781982421875,-0.2288818359375
10.2499999,3.3255462646484375,1.8267759084701538,-9.102754592895508,-2.8533935546875,0.3509521484375,-0.8544921875
10.2699999,3.3255462646484375,1.8363527059555054,-9.097966194152832,-2.5787353515625,1.0986328125,-0.91552734375
10.2899999,3.3255462646484375,1.845929503440857,-9.093177795410156,-0.42724609375,1.5869140625,-0.0457763671875
10.309999900000001,3.3279404640197754,1.843535304069519,-9.11233139038086,1.312255859375,0.152587890625,0.1983642578125
10.3299999,3.3255462646484375,1.8291701078414917,-9.11233139038086,-0.0762939453125,1.556396484375,0.335693359375
10.3499999,3.3231520652770996,1.821987509727478,-9.121908187866211,-1.4190673828125,1.739501953125,-0.5035400390625
10.3699999,3.3231520652770996,1.8052281141281128,-9.11233139038086,-0.244140625,1.0986328125,-0.0762939453125
10.389999900000001,3.3231520652770996,1.800439715385437,-9.10993766784668,0.0152587890625,0.1983642578125,0.2288818359375
10.4099999,3.3255462646484375,1.800439715385437,-9.102754592895508,-1.2664794921875,1.3580322265625,-0.274658203125
10.4299999,3.332728862762451,1.8124107122421265,-9.107542991638184,-1.46484375,1.89208984375,-0.5950927734375
10.4499999,3.337517261505127,1.821987509727478,-9.105149269104004,0.2899169921875,1.28173828125,0.030517578125
10.469999900000001,3.337517261505127,1.8339585065841675,-9.105149269104004,0.1220703125,0.2899169921875,0.18310546875
10.4899999,3.339911460876465,1.8483237028121948,-9.095572471618652,-0.9002685546875,1.3427734375,-0.244140625
10.5099999,3.337517261505127,1.8555063009262085,-9.095572471618652,-0.9307861328125,1.7852783203125,0.091552734375
10.5299999,3.337517261505127,1.8555063009262085,-9.100360870361328,-0.30517578125,1.2969970703125,0.6103515625
10.549999900000001,3.337517261505127,1.8602946996688843,-9.078812599182129,-0.640869140625,1.9378662109375,0.244140625
10.569999900000001,3.335123062133789,1.86508309841156,-9.062053680419922,-1.1444091796875,0.823974609375,0.1068115234375
10.5899999,3.3446998596191406,1.886630892753601,-9.026140213012695,-0.9002685546875,0.3204345703125,0.3509521484375
10.6099999,3.3638534545898438,1.9560627937316895,-9.009381294250488,0.3662109375,0.1983642578125,0.7171630859375
10.629999900000001,3.3949780464172363,2.1092917919158936,-8.980650901794434,0.8087158203125,1.4801025390625,1.3427734375
10.649999900000001,3.426102638244629,2.3343467712402344,-8.937555313110352,0.2899169921875,1.5411376953125,4.3487548828125
10.6699999,3.421314239501953,2.5929205417633057,-8.916007041931152,2.1514892578125,-0.8087158203125,8.819580078125
10.6899999,3.383007049560547,2.75812029838562,-8.89445972442627,2.3956298828125,-2.2735595703125,13.824462890625
10.709999900000001,3.354276657104492,2.853888511657715,-8.954314231872559,-0.0457763671875,-2.5177001953125,13.397216796875
10.729999900000001,3.35667085647583,2.8562827110290527,-9.047688484191895,-2.9296875,-2.105712890625,14.617919921875
10.7499999,3.406949043273926,2.806004285812378,-9.208099365234375,-2.197265625,-1.129150390625,19.8974609375
10.7699999,3.4787750244140625,2.786850690841675,-9.334992408752441,2.1514892578125,0.885009765625,23.3306884765625
10.7899999,3.5410242080688477,2.7222073078155518,-9.457097053527832,5.4473876953125,2.288818359375,26.6571044921875
10.809999900000001,3.584120035171509,2.5785553455352783,-9.497797966003418,5.7373046875,2.9449462890625,29.4036865234375
10.8299999,3.641580820083618,2.3774423599243164,-9.478644371032715,3.448486328125,4.7149658203125,27.83203125
10.8499999,3.7205893993377686,2.1739351749420166,-9.433155059814453,-1.0223388671875,3.692626953125,25.2532958984375
10.8699999,3.8139634132385254,1.8722656965255737,-9.41639518737793,1.7852783203125,4.69970703125,30.059814453125
10.889999900000001,3.9240965843200684,1.5298948287963867,-9.461885452270508,7.904052734375,8.1634521484375,31.1431884765625
10.9099999,4.01268196105957,1.0678139925003052,-9.53849983215332,6.744384765625,13.2598876953125,22.3846435546875
10.9299999,4.084507942199707,0.4357447028160095,-9.696516990661621,-1.617431640625,11.7950439453125,14.984130859375
10.9499999,4.158728122711182,-0.15083470940589905,-9.725247383117676,-9.0484619140625,16.1895751953125,2.4261474609375
10.969999900000001,4.244919776916504,-0.629675030708313,-9.68694019317627,-10.2691650390625,19.5770263671875,-8.880615234375
10.9899999,4.352658748626709,-0.8547300100326538,-9.473855972290039,-4.4708251953125,17.181396484375,-13.7481689453125
11.0099999,4.484339714050293,-1.036689281463623,-8.978256225585938,6.3323974609375,19.073486328125,-12.786865234375
11.0299999,4.563348293304443,-1.2521674633026123,-8.492233276367188,13.092041015625,7.2174072265625,-19.866943359375
11.049999900000001,4.513070106506348,-1.6663644313812256,-7.91283655166626,5.7830810546875,3.875732421875,-35.0799560546875
11.069999900000001,4.264073371887207,-2.0470423698425293,-7.627926826477051,-8.7127685546875,-0.1983642578125,-53.28369140625
11.0899999,3.7900211811065674,-2.2002713680267334,-7.922413349151611,-22.7813720703125,-19.012451171875,-62.7899169921875
11.1099999,3.1531636714935303,-2.013523578643799,-8.746018409729004,-18.1884765625,-11.5814208984375,-60.8673095703125
11.129999900000001,2.4827871322631836,-1.3742717504501343,-9.746794700622559,-5.55419921875,13.6566162109375,-66.22314453125
11.149999900000001,1.9033904075622559,-0.7445967197418213,-10.63743782043457,2.25830078125,19.6075439453125,-60.638427734375
11.1699999,1.4772224426269531,-0.07422025501728058,-11.03248119354248,5.0201416015625,6.988525390625,-57.6171875
11.1899999,1.235408067703247,0.38307225704193115,-10.771512985229492,2.288818359375,13.427734375,-57.5103759765625
11.209999900000001,1.1037269830703735,0.768538773059845,-10.307038307189941,-9.9945068359375,8.056640625,-59.783935546875
11.229999900000001,1.0007762908935547,1.1252747774124146,-9.715670585632324,-22.705078125,-1.0528564453125,-59.2498779296875
11.2499999,0.8858546018600464,1.6855180263519287,-9.155426979064941,-44.189453125,-3.0517578125,-60.2264404296875
11.2699999,0.7134721279144287,2.4803929328918457,-8.793902397155762,-59.1888427734375,-9.429931640625,-59.814453125
11.2899999,0.5530605912208557,3.5745432376861572,-8.664615631103516,-40.374755859375,-14.2669677734375,-47.271728515625
11.309999900000001,0.45010992884635925,4.73573112487793,-8.609549522399902,-10.5438232421875,-5.31005859375,-25.6805419921875
11.3299999,0.3926490843296051,5.758055210113525,-8.485051155090332,5.79833984375,3.448486328125,-5.0048828125
11.3499999,0.45250412821769714,6.344634532928467,-8.209717750549316,-8.5906982421875,-9.521484375,2.4261474609375
11.3699999,0.6344634294509888,6.653486728668213,-7.709329605102539,-34.2254638671875,-24.3377685546875,-2.5482177734375
11.389999900000001,0.8738836050033569,6.830657482147217,-7.364564418792725,-28.350830078125,-32.1502685546875,1.6632080078125
11.4099999,1.2330138683319092,6.754043102264404,-7.163451671600342,5.340576171875,-28.533935546875,30.5023193359375
11.4299999,1.6711528301239014,6.782773494720459,-7.089231014251709,27.618408203125,-18.0816650390625,36.651611328125
11.4499999,2.056619167327881,6.562506675720215,-7.240066051483154,21.7132568359375,-34.9884033203125,36.1480712890625
11.469999900000001,2.425326347351074,6.332663536071777,-7.3454108238220215,7.7972412109375,-40.8477783203125,45.379638671875
11.4899999,2.695871114730835,6.141127586364746,-7.608773231506348,17.059326171875,-38.2843017578125,53.3447265625
11.5099999,2.9448680877685547,5.920860767364502,-7.805097579956055,27.1148681640625,-30.487060546875,65.2313232421875
11.5299999,3.2154128551483154,5.7772088050842285,-7.943961143493652,9.124755859375,-34.1949462890625,64.51416015625
11.549999900000001,3.5458126068115234,5.683835029602051,-8.039729118347168,-10.43701171875,-45.4864501953125,67.19970703125
11.569999900000001,3.9408559799194336,5.652710437774658,-8.042123794555664,1.800537109375,-38.238525390625,79.40673828125
11.5899999,4.369418144226074,5.583278179168701,-8.24084186553955,13.2904052734375,-34.271240234375,91.949462890625
11.6099999,4.8267107009887695,5.214571475982666,-8.60236644744873,22.5677490234375,-35.09521484375,96.832275390625
11.629999900000001,5.2911858558654785,4.659116744995117,-9.006986618041992,30.1055908203125,-21.3165283203125,87.2802734375
11.649999900000001,5.731719017028809,3.797203779220581,-9.308655738830566,33.75244140625,-5.7373046875,89.569091796875
11.6699999,6.100425720214844,2.937685489654541,-9.265560150146484,31.43310546875,-1.5869140625,94.696044921875
11.6899999,6.327875137329102,1.6376339197158813,-9.117119789123535,23.7884521484375,-21.8963623046875,103.94287109375
11.709999900000001,6.3973069190979,0.3064578175544739,-9.035717010498047,0.335693359375,-33.8592529296875,82.183837890625
11.729999900000001,6.311115741729736,-0.9864110946655273,-9.071630477905273,-35.58349609375,-13.336181640625,46.2493896484375
11.7499999,6.064512729644775,-1.821987509727478,-9.349357604980469,-34.820556640625,-1.2969970703125,38.6505126953125
11.7699999,5.3342814445495605,-1.9369091987609863,-9.897629737854004,2.8228759765625,-4.0283203125,36.1175537109375
11.7899999,4.9152960777282715,-1.8387469053268433,-10.180145263671875,-0.79345703125,2.655029296875,17.425537109375
11.809999900000001,4.467580318450928,-1.802833914756775,-10.488997459411621,-5.279541015625,-0.9613037109375,-1.5411376953125
11.8299999,3.971980571746826,-1.8267759084701538,-10.797849655151367,5.5084228515625,2.74658203125,-15.472412109375
11.8499999,3.3949780464172363,-1.8626888990402222,-10.979808807373047,12.6800537109375,11.3372802734375,-23.7274169921875
11.8699999,2.741360902786255,-1.8794482946395874,-10.896012306213379,6.8359375,17.9901123046875,-35.9649658203125
11.889999900000001,2.054224967956543,-1.5466543436050415,-10.836156845092773,-13.031005859375,4.638671875,-55.8319091796875
11.9099999,1.3623007535934448,-1.3910311460494995,-10.673351287841797,-6.65283203125,6.2103271484375,-49.041748046875
11.9299999,0.7589619159698486,-1.1994950771331787,-10.54406452178955,2.5787353515625,24.658203125,-44.7235107421875
11.9499999,0.2298433631658554,-1.37906014919281,-10.481815338134766,-24.0020751953125,21.5911865234375,-63.8427734375
11.969999900000001,-0.19871874153614044,-1.7070658206939697,-10.381258964538574,-79.193115234375,10.31494140625,-89.17236328125
11.9899999,-0.5339069962501526,-1.5466543436050415,-10.512939453125,-84.320068359375,5.9051513671875,-107.8338623046875
12.0099999,-0.8092401623725891,-1.1875240802764893,-10.6709566116333,-48.8128662109375,23.956298828125,-81.9549560546875
12.0299999,-0.9864110946655273,-0.2513911724090576,-10.855310440063477,-36.773681640625,36.4837646484375,-73.211669921875
12.049999900000001,-1.0821791887283325,0.4620809257030487,-10.809821128845215,-40.5426025390625,24.444580078125,-75.439453125
12.069999900000001,-1.0845733880996704,1.0271124839782715,-10.338163375854492,-31.18896484375,25.0396728515625,-75.1495361328125
12.0899999,-1.036689281463623,1.2856862545013428,-9.691728591918945,-14.22119140625,26.4434814453125,-66.6351318359375
12.1099999,-0.9624691009521484,1.4293384552001953,-9.033323287963867,-14.4195556640625,19.5770263671875,-59.112548828125
12.129999900000001,-0.9002198576927185,1.5873557329177856,-8.489839553833008,-27.7252197265625,14.3585205078125,-67.6422119140625
12.149999900000001,-0.8643068075180054,1.802833914756775,-8.180987358093262,-46.8292236328125,11.6729736328125,-70.9381103515625
12.1699999,-0.8475474119186401,2.365471363067627,-8.202534675598145,-54.50439453125,9.002685546875,-68.5272216796875
12.1899999,-0.8259995579719543,3.3303346633911133,-8.406042098999023,-51.20849609375,15.5487060546875,-59.2803955078125
12.209999900000001,-0.7805097699165344,4.5154643058776855,-8.578424453735352,-46.5240478515625,26.9775390625,-40.191650390625
12.229999900000001,-0.6631938815116882,5.674258232116699,-8.791508674621582,-27.9388427734375,20.6451416015625,-21.2554931640625
12.2499999,-0.4908113479614258,6.5481414794921875,-8.604761123657227,-16.66259765625,23.956298828125,-9.765625
12.2699999,-0.24660277366638184,7.122750282287598,-8.022970199584961,-23.193359375,30.6243896484375,-11.4898681640625
12.289999900000002,0.05506663769483566,7.4986395835876465,-7.493851184844971,-29.449462890625,-5.4779052734375,-11.6119384765625
12.309999900000001,0.4644751250743866,7.709329605102539,-6.959944248199463,-19.0277099609375,-21.087646484375,5.584716796875
12.3299999,0.9385270476341248,8.056488990783691,-6.627150535583496,5.0201416015625,1.3885498046875,12.7410888671875
12.3499999,1.4197616577148438,8.054094314575195,-6.574477672576904,24.8870849609375,1.434326171875,31.1279296875
12.3699999,1.8507179021835327,7.908048152923584,-6.543353080749512,13.0615234375,-16.937255859375,38.5894775390625
12.389999900000001,2.161964178085327,7.687781810760498,-6.658275127410889,-10.0555419921875,-32.3486328125,26.397705078125
12.4099999,2.341529369354248,7.479485988616943,-6.9695210456848145,-3.021240234375,-29.0679931640625,32.4859619140625
12.4299999,2.4396915435791016,7.405265808105469,-7.546523571014404,28.9459228515625,-20.2484130859375,52.764892578125
12.4499999,2.5258827209472656,7.374141216278076,-7.975085735321045,52.06298828125,-6.9427490234375,65.0634765625
12.469999900000001,2.6599581241607666,7.134721279144287,-8.35336971282959,39.2913818359375,-13.3209228515625,63.0950927734375
12.4899999,2.896984100341797,6.67982292175293,-8.650250434875488,16.9219970703125,-26.3519287109375,56.4422607421875
12.5099999,3.227383852005005,6.251260757446289,-8.724471092224121,14.068603515625,-5.9967041015625,53.52783203125
12.5299999,3.5625722408294678,5.899312973022461,-8.645462036132812,21.575927734375,8.575439453125,61.5386962890625
12.549999900000001,3.8379054069519043,5.6455278396606445,-8.276755332946777,28.5491943359375,-4.180908203125,70.1446533203125
12.569999900000001,4.034229755401611,5.513846397399902,-7.673416614532471,21.4996337890625,-16.8914794921875,65.36865234375
12.5899999,4.177882194519043,5.415684223175049,-7.005434036254883,16.632080078125,-16.7694091796875,63.873291015625
12.6099999,4.32871675491333,5.360617637634277,-6.50025749206543,21.881103515625,-17.7764892578125,75.2105712890625
12.629999900000001,4.484339714050293,5.178658485412598,-6.390124320983887,23.0560302734375,-33.111572265625,90.6524658203125
12.649999900000001,4.685452938079834,4.771644115447998,-6.603208065032959,24.6124267578125,-37.7197265625,93.292236328125
12.6699999,4.917690277099609,4.077325344085693,-7.146692276000977,21.575927734375,-25.3143310546875,85.3424072265625
12.6899999,5.171475887298584,3.332728862762451,-7.800309181213379,9.246826171875,-21.9879150390625,81.3446044921875
12.709999900000001,5.394136428833008,2.669534921646118,-8.245630264282227,10.4522705078125,-24.23095703125,87.2039794921875
12.729999900000001,5.499481201171875,2.1068975925445557,-8.556877136230469,24.47509765625,-32.2418212890625,95.8709716796875
12.7499999,5.451597213745117,1.460463047027588,-8.971074104309082,25.8026123046875,-36.2548828125,93.4600830078125
12.7699999,5.279214859008789,0.8547300100326538,-9.30386734008789,13.00048828125,-10.7421875,74.8443603515625
12.789999900000002,5.027823448181152,0.2753331959247589,-9.694122314453125,11.1236572265625,1.1749267578125,62.652587890625
12.809999900000001,4.774038314819336,-0.10295066982507706,-10.062829971313477,14.34326171875,-9.1094970703125,64.3157958984375
12.8299999,4.534617900848389,-0.49799394607543945,-10.273519515991211,3.2958984375,1.8768310546875,67.0318603515625
12.8499999,4.3191399574279785,-0.9528923034667969,-10.180145263671875,-22.552490234375,29.4036865234375,44.86083984375
12.8699999,4.077325344085693,-1.5610195398330688,-9.962273597717285,-68.8934326171875,19.195556640625,10.3302001953125
12.889999900000001,3.8355112075805664,-1.7094600200653076,-9.871294021606445,-88.4552001953125,-16.387939453125,-23.13232421875
12.9099999,3.56017804145813,-1.6184803247451782,-9.648633003234863,-81.2530517578125,1.52587890625,-24.505615234375
12.9299999,3.2609026432037354,-0.9864110946655273,-9.823410034179688,-61.5081787109375,23.4375,-21.05712890625
12.9499999,2.9688100814819336,-0.2992752194404602,-9.8784761428833,-37.3687744140625,19.500732421875,-32.9742431640625
12.969999900000001,2.655169725418091,-0.12210428714752197,-9.660603523254395,-56.8389892578125,20.0653076171875,-37.1856689453125
12.9899999,2.346317768096924,0.07182604819536209,-9.732429504394531,-110.6414794921875,-2.3193359375,-72.296142578125
13.0099999,2.0446481704711914,0.35673606395721436,-9.931148529052734,-101.3641357421875,12.7410888671875,-97.5494384765625
13.0299999,1.742978811264038,0.9481038451194763,-10.319009780883789,-23.5137939453125,42.8466796875,-75.68359375
13.049999900000001,1.403002142906189,1.3551181554794312,-10.304644584655762,-5.7830810546875,52.6885986328125,-50.384521484375
13.069999900000001,1.05105459690094,1.9800047874450684,-9.979032516479492,-79.498291015625,19.561767578125,-89.1265869140625
13.0899999,0.6440402865409851,2.3918075561523438,-9.713275909423828,-105.987548828125,-6.2103271484375,-119.2169189453125
13.1099999,0.23702596127986908,3.141192674636841,-9.691728591918945,-42.724609375,21.5301513671875,-90.88134765625
13.129999900000001,-0.11013327538967133,4.098873138427734,-9.622296333312988,10.2081298828125,66.3604736328125,-58.53271484375
13.149999900000001,-0.3687070608139038,5.173870086669922,-9.605537414550781,-12.115478515625,38.2537841796875,-61.279296875
13.1699999,-0.49799394607543945,6.0190229415893555,-9.275136947631836,-31.707763671875,1.1749267578125,-66.558837890625
13.1899999,-0.49320554733276367,6.557718276977539,-8.973467826843262,17.4102783203125,18.49365234375,-41.351318359375
13.209999900000001,-0.40701428055763245,6.715735912322998,-8.927978515625,63.5833740234375,36.1328125,-16.8609619140625
13.229999900000001,-0.2537853717803955,6.517016887664795,-8.944737434387207,65.185546875,27.89306640625,-22.0794677734375
13.2499999,-0.11013327538967133,5.837063789367676,-8.820239067077637,60.3790283203125,12.51220703125,-29.571533203125
13.2699999,0.12689268589019775,4.101267337799072,-8.858546257019043,20.5078125,28.6407470703125,-22.6593017578125
13.289999900000002,0.2944868206977844,3.8331170082092285,-8.901641845703125,70.1141357421875,45.257568359375,-29.3731689453125
13.309999900000001,0.4620809257030487,3.7205893993377686,-8.482656478881836,126.6326904296875,54.5806884765625,-10.3912353515625
13.3299999,0.6009446382522583,3.950432777404785,-7.805097579956055,111.328125,16.4794921875,-1.800537109375
13.3499999,0.6224924325942993,4.201824188232422,-7.113173484802246,84.0911865234375,-29.0374755859375,-24.322509765625
13.3699999,0.5554547905921936,4.223371982574463,-6.976703643798828,110.4583740234375,-34.2864990234375,-33.172607421875
13.389999900000001,0.4692635238170624,4.395754337310791,-7.448361396789551,162.29248046875,-13.1988525390625,-31.7230224609375
13.4099999,0.4381389021873474,4.266467571258545,-7.8745293617248535,157.1807861328125,12.176513671875,-6.04248046875
13.4299999,0.49799394607543945,4.039018154144287,-8.243236541748047,104.156494140625,-11.962890625,2.716064453125
13.4499999,0.6703764796257019,3.6080620288848877,-8.429984092712402,59.326171875,-36.6668701171875,-10.80322265625
13.469999900000001,0.9624691009521484,3.248931646347046,-8.322244644165039,33.3099365234375,-6.3934326171875,-9.1705322265625
13.4899999,1.3048399686813354,3.1459810733795166,-8.413225173950195,36.9720458984375,-1.77001953125,3.0517578125
13.5099999,1.6376339197158813,3.315969467163086,-8.458714485168457,37.109375,-32.8521728515625,18.280029296875
13.5299999,1.8291701078414917,3.73016619682312,-8.482656478881836,37.078857421875,-38.4521484375,14.007568359375
13.549999900000001,1.8507179021835327,3.998316764831543,-8.932766914367676,38.0706787109375,-38.4979248046875,20.93505859375
13.569999900000001,1.7262194156646729,4.180276393890381,-9.701305389404297,52.6123046875,-29.1595458984375,32.04345703125
13.5899999,1.5849615335464478,4.261679172515869,-10.512939453125,61.5386962890625,-7.7972412109375,37.4603271484375
13.6099999,1.534683346748352,4.273650169372559,-10.934319496154785,73.1658935546875,6.3629150390625,34.6221923828125
13.629999900000001,1.6735470294952393,4.106055736541748,-10.831368446350098,57.2662353515625,0.030517578125,47.2869873046875
13.649999900000001,1.9608511924743652,4.005499362945557,-10.575188636779785,24.3377685546875,-26.67236328125,51.33056640625
13.6699999,2.38462495803833,3.7708675861358643,-10.180145263671875,22.7508544921875,-16.0369873046875,53.253173828125
13.6899999,2.8586769104003906,3.754108190536499,-9.986215591430664,33.5235595703125,4.364013671875,50.0640869140625
13.709999900000001,3.292027235031128,3.624821424484253,-9.983820915222168,27.4658203125,-4.33349609375,65.4144287109375
13.729999900000001,3.7014358043670654,3.313575267791748,-9.947908401489258,20.9197998046875,-8.0108642578125,85.4644775390625
13.7499999,4.0749311447143555,2.7557260990142822,-9.890447616577148,15.44189453125,4.0435791015625,77.8045654296875
13.7699999,4.390965938568115,1.8770540952682495,-9.950302124023438,12.3443603515625,5.7830810546875,72.0977783203125
13.789999900000002,4.644751071929932,0.9265560507774353,-9.897629737854004,14.6636962890625,6.591796875,79.986572265625
13.809999900000001,4.8051629066467285,-0.038307227194309235,-9.823410034179688,24.505615234375,7.537841796875,87.4786376953125
13.8299999,4.831499099731445,-1.1037269830703735,-9.892841339111328,21.3470458984375,1.4495849609375,87.0208740234375
13.8499999,4.73573112487793,-2.1380221843719482,-10.02691650390625,0.9307861328125,10.467529296875,70.2362060546875
13.8699999,4.541800498962402,-3.0885202884674072,-10.017339706420898,-7.537841796875,33.3404541015625,58.1817626953125
13.889999900000001,4.292803764343262,-3.7708675861358643,-9.854534149169922,-11.505126953125,28.1982421875,54.26025390625
13.9099999,4.036623954772949,-4.129997730255127,-9.636661529541016,-17.1356201171875,3.5400390625,43.670654296875
13.9299999,3.7876269817352295,-4.37420654296875,-9.478644371032715,-18.2647705078125,6.4544677734375,31.2347412109375
13.9499999,3.5960910320281982,-4.412513732910156,-9.59596061706543,-4.4403076171875,24.35302734375,15.411376953125
13.969999900000001,3.469198226928711,-4.486733913421631,-9.653421401977539,4.9285888671875,35.15625,5.950927734375
13.9899999,3.4189200401306152,-4.448426723480225,-9.409213066101074,-8.0413818359375,23.86474609375,-3.265380859375
14.0099999,3.3470940589904785,-4.508281707763672,-8.992621421813965,-34.576416015625,-1.1444091796875,-14.9383544921875
14.0299999,3.1866824626922607,-4.520252704620361,-8.769960403442383,-43.701171875,-11.0626220703125,-30.70068359375
14.049999900000001,2.9161376953125,-4.4292731285095215,-8.710105895996094,-7.049560546875,10.2081298828125,-48.0499267578125
14.069999900000001,2.535459518432617,-4.153939723968506,-8.427590370178223,1.8310546875,27.496337890625,-54.5806884765625
14.0899999,2.10210919380188,-3.5721490383148193,-8.073247909545898,-53.6651611328125,-17.1356201171875,-62.4847412109375
14.1099999,1.599326729774475,-2.918531894683838,-7.706935405731201,-99.884033203125,-63.3544921875,-65.3076171875
14.129999900000001,1.0654197931289673,-2.2194249629974365,-8.121131896972656,-38.848876953125,-55.8013916015625,-66.4215087890625
14.149999900000001,0.5219359993934631,-1.5873557329177856,-8.774748802185059,47.088623046875,1.7852783203125,-67.5506591796875
14.1699999,0.014365210197865963,-1.3192051649093628,-9.289502143859863,29.3426513671875,19.3328857421875,-60.2264404296875
14.1899999,-0.42616790533065796,-1.0773907899856567,-9.660603523254395,-51.4678955078125,-52.764892578125,-71.6552734375
14.209999900000001,-0.8451532125473022,-1.1540051698684692,-9.86889934539795,-75.469970703125,-71.4874267578125,-75.1800537109375
14.229999900000001,-1.216254472732544,-1.0223240852355957,-10.517727851867676,-11.7034912109375,-18.9056396484375,-79.620361328125
14.2499999,-1.5418659448623657,-0.8954314589500427,-11.15697956085205,23.0712890625,27.0843505859375,-75.13427734375
14.2699999,-1.7717092037200928,-0.5889736413955688,-11.772290229797363,-9.979248046875,-1.64794921875,-71.3043212890625
14.289999900000002,-1.889025092124939,-0.3256114423274994,-11.736376762390137,-30.8990478515625,-17.7154541015625,-71.1822509765625
14.309999900000001,-1.9177556037902832,-0.1364694982767105,-11.611878395080566,-15.0909423828125,5.584716796875,-68.6798095703125
14.3299999,-1.8962076902389526,-0.031124621629714966,-11.511322021484375,6.1492919921875,24.1851806640625,-68.5882568359375
14.3499999,-1.8363527059555054,-0.014365210197865963,-11.202469825744629,3.662109375,31.3262939453125,-65.7958984375
14.3699999,-1.7381904125213623,0.12689268589019775,-10.788272857666016,-20.0347900390625,20.08056640625,-70.6329345703125
14.389999900000001,-1.6160861253738403,0.26096799969673157,-10.266336441040039,-30.8074951171875,19.10400390625,-66.6961669921875
14.4099999,-1.4891934394836426,0.5530605912208557,-9.782708168029785,-19.1650390625,32.470703125,-61.2945556640625
14.4299999,-1.3239935636520386,0.9648633003234863,-9.461885452270508,-17.7764892578125,34.149169921875,-61.7828369140625
14.4499999,-1.1348515748977661,1.4484920501708984,-9.11233139038086,-18.8446044921875,30.0750732421875,-56.09130859375
14.469999900000001,-0.9265560507774353,2.0015525817871094,-8.741230010986328,-16.1895751953125,30.21240234375,-48.9349365234375
14.4899999,-0.7015010714530945,2.3295583724975586,-8.556877136230469,-15.68603515625,20.9503173828125,-37.2772216796875
14.5099999,-0.44532153010368347,2.782062292098999,-8.310274124145508,-13.214111328125,26.7486572265625,-44.036865234375
14.5299999,-0.2322375625371933,3.028665065765381,-8.14028549194336,-13.1683349609375,27.3590087890625,-39.3218994140625
14.549999900000001,-0.031124621629714966,3.445256233215332,-8.094796180725098,-18.5089111328125,8.209228515625,-26.6571044921875
14.569999900000001,0.14365209639072418,3.9671921730041504,-8.135497093200684,-14.0380859375,4.852294921875,-21.728515625
14.5899999,0.3256114423274994,4.5394062995910645,-8.248024940490723,9.2620849609375,18.2952880859375,-11.077880859375
14.6099999,0.5578489899635315,5.1595048904418945,-8.252813339233398,14.2974853515625,22.88818359375,1.9073486328125
14.629999900000001,0.7924807667732239,5.781997203826904,-8.152256965637207,4.2724609375,1.1444091796875,15.68603515625
14.649999900000001,1.01753568649292,6.279991149902344,-8.01339340209961,6.744384765625,-17.974853515625,32.3333740234375
14.6699999,1.2234370708465576,6.57926607131958,-8.044517517089844,20.904541015625,-12.847900390625,44.12841796875
14.6899999,1.3862427473068237,6.45476770401001,-8.255207061767578,34.5916748046875,-4.45556640625,57.6171875
14.709999900000001,1.5849615335464478,6.023811340332031,-8.559270858764648,29.052734375,-11.1541748046875,60.8062744140625
14.729999900000001,1.8339585065841675,5.310339450836182,-8.7268648147583,17.333984375,-17.0135498046875,60.699462890625
14.7499999,2.164358377456665,4.644751071929932,-8.96389102935791,1.6021728515625,-22.64404296875,62.7593994140625
14.7699999,2.540247917175293,4.173093795776367,-9.193734169006348,-5.126953125,-18.9971923828125,66.619873046875
14.789999900000002,3.421314239501953,3.5482068061828613,-9.821015357971191,12.847900390625,-18.768310546875,84.77783203125
14.809999900000001,3.8379054069519043,3.0334534645080566,-10.129867553710938,4.486083984375,-19.0582275390625,80.1544189453125
14.8299999,4.20421838760376,2.4588451385498047,-10.371682167053223,-7.7667236328125,-8.2855224609375,66.009521484375
14.8499999,4.508281707763672,1.9081788063049316,-10.587160110473633,-15.3961181640625,-4.7760009765625,67.291259765625
14.8699999,4.738125324249268,1.6424223184585571,-10.572794914245605,-6.2255859375,-2.1514892578125,74.9664306640625
14.889999900000001,4.867412090301514,1.5969325304031372,-10.395624160766602,5.462646484375,-1.6021728515625,79.132080078125
14.9099999,4.888959884643555,1.5945383310317993,-9.986215591430664,5.9814453125,-1.7852783203125,82.9620361328125
14.9299999,4.793191909790039,1.4772224426269531,-9.440337181091309,1.0223388671875,-6.927490234375,88.104248046875
14.9499999,4.5825018882751465,1.1659762859344482,-8.937555313110352,-3.9520263671875,-18.585205078125,90.0115966796875
14.969999900000001,4.280832767486572,0.7924807667732239,-8.655038833618164,-1.15966796875,-24.4598388671875,83.80126953125
14.9899999,3.9240965843200684,0.33518823981285095,-8.7268648147583,12.14599609375,-19.0582275390625,80.0933837890625
15.0099999,3.5697548389434814,-0.11013327538967133,-9.078812599182129,20.355224609375,-9.4757080078125,83.0535888671875
15.0299999,3.2824504375457764,-0.6033388376235962,-9.509769439697266,13.12255859375,-6.4544677734375,78.369140625
15.049999900000001,3.0861260890960693,-1.1659762859344482,-9.962273597717285,4.8980712890625,-10.7879638671875,64.94140625
15.069999900000001,2.964021682739258,-2.0159177780151367,-10.556035041809082,7.7972412109375,-13.4429931640625,54.1229248046875
15.0899999,2.889801502227783,-2.9472622871398926,-11.013327598571777,13.97705078125,12.2222900390625,37.078857421875
15.1099999,2.7892448902130127,-3.8714241981506348,-11.3269681930542,12.7716064453125,28.6102294921875,12.054443359375
15.129999900000001,2.647987127304077,-4.54419469833374,-11.240777015686035,-0.7171630859375,15.7928466796875,-10.5743408203125
15.149999900000001,2.3942017555236816,-4.944026470184326,-10.8720703125,-21.5606689453125,1.739501953125,-23.4375
15.1699999,1.9728221893310547,-5.0876784324646,-10.649409294128418,-45.379638671875,0.79345703125,-38.543701171875
15.1899999,1.4413094520568848,-4.611232280731201,-10.572794914245605,-12.481689453125,24.017333984375,-68.572998046875
15.209999900000001,0.8451532125473022,-4.127603530883789,-10.237606048583984,28.4576416015625,45.10498046875,-70.4498291015625
15.229999900000001,0.2777273952960968,-3.1316158771514893,-9.821015357971191,-1.2664794921875,13.2598876953125,-70.98388671875
15.2499999,-0.22744916379451752,-2.3798365592956543,-9.081207275390625,-56.70166015625,-16.41845703125,-76.3702392578125
15.2699999,-0.6727706789970398,-1.6304513216018677,-8.777143478393555,-74.89013671875,-13.6566162109375,-85.6170654296875
15.289999900000002,-1.036689281463623,-0.9720458984375,-8.99740982055664,-10.3302001953125,-0.8087158203125,-92.28515625
15.309999900000001,-1.3215993642807007,-0.5626373887062073,-8.966285705566406,37.353515625,31.6619873046875,-68.6187744140625
15.3299999,-1.4676456451416016,-0.014365210197865963,-9.282320022583008,-7.87353515625,-11.7950439453125,-73.4100341796875
15.3499999,-1.5394717454910278,0.06224924325942993,-9.246406555175781,-51.7425537109375,-32.928466796875,-72.75390625
15.3699999,-1.5155296325683594,0.20111294090747833,-9.464279174804688,-35.0799560546875,-1.7852783203125,-75.164794921875
15.389999900000001,-1.4437036514282227,0.181959331035614,-9.854534149169922,2.3040771484375,16.6778564453125,-72.0062255859375
15.4099999,-1.3096283674240112,0.22505496442317963,-10.002974510192871,-0.5645751953125,19.0887451171875,-62.835693359375
15.4299999,-1.1252747774124146,0.4118026793003082,-10.129867553710938,-24.5513916015625,-2.7313232421875,-71.746826171875
15.4499999,-0.9481038451194763,0.4189853072166443,-10.165780067443848,-27.1148681640625,1.3580322265625,-66.680908203125
15.469999900000001,-0.7757213711738586,0.6536170840263367,-10.393229484558105,-14.862060546875,23.0865478515625,-71.319580078125
15.4899999,-0.6105214357376099,0.9097966551780701,-10.493785858154297,-18.2647705078125,35.064697265625,-72.1588134765625
15.5099999,-0.4572925269603729,1.5275006294250488,-10.572794914245605,-31.707763671875,20.355224609375,-70.5413818359375
15.5299999,-0.3519476354122162,2.248155355453491,-10.3549222946167,-28.0609130859375,17.547607421875,-59.26513671875
15.549999900000001,-0.30885201692581177,2.980781078338623,-10.273519515991211,-21.0113525390625,23.5137939453125,-47.0428466796875
15.569999900000001,-0.3280056416988373,3.5889084339141846,-10.333374977111816,-20.01953125,26.9775390625,-47.0428466796875
15.5899999,-0.40222588181495667,3.9839515686035156,-10.271124839782715,-12.359619140625,40.1153564453125,-42.694091796875
15.6099999,-0.49799394607543945,4.182670593261719,-10.089165687561035,-9.124755859375,39.520263671875,-31.3873291015625
15.629999900000001,-0.5482721924781799,4.390965938568115,-9.579200744628906,-15.2740478515625,32.9742431640625,-27.8472900390625
15.649999900000001,-0.5434837937355042,4.800374507904053,-8.803479194641113,-21.3165283203125,29.9835205078125,-26.06201171875
15.6699999,-0.4596867263317108,5.135562419891357,-8.169015884399414,-7.843017578125,16.2811279296875,-3.5400390625
15.6899999,-0.2992752194404602,5.451597213745117,-7.630321025848389,20.416259765625,11.3372802734375,14.862060546875
15.709999900000001,-0.13407529890537262,5.43723201751709,-7.326257228851318,19.0887451171875,12.0697021484375,16.3726806640625
15.729999900000001,0.08619125932455063,5.231330871582031,-7.328651428222656,-4.7760009765625,-5.0811767578125,7.9803466796875
15.7499999,0.30885201692581177,5.104437828063965,-7.513004779815674,-4.82177734375,-15.3045654296875,9.5672607421875
15.7699999,0.545877993106842,5.106832027435303,-7.862558364868164,22.125244140625,-11.6119384765625,29.7393798828125
15.789999900000002,0.8188169598579407,5.384559631347656,-8.1139497756958,32.8826904296875,-2.197265625,39.154052734375
15.809999900000001,1.170764684677124,5.762843608856201,-8.47547435760498,14.2364501953125,-18.157958984375,41.6412353515625
15.8299999,1.5945383310317993,6.189011573791504,-8.678980827331543,15.228271484375,-22.1099853515625,53.9398193359375
15.8499999,2.1308395862579346,6.471527099609375,-8.786720275878906,40.6951904296875,-5.279541015625,77.1331787109375
15.869999900000002,2.762908697128296,6.593631267547607,-8.793902397155762,48.614501953125,-3.875732421875,85.174560546875
15.889999900000001,3.3662476539611816,6.066906929016113,-8.767566680908203,37.4298095703125,-19.1650390625,91.2933349609375
15.9099999,3.9887399673461914,5.327098846435547,-8.753201484680176,17.1661376953125,-25.604248046875,85.3424072265625
15.9299999,4.517858505249023,4.3861775398254395,-8.978256225585938,12.237548828125,-17.0745849609375,81.146240234375
15.9499999,4.994304656982422,3.7397429943084717,-9.246406555175781,15.3656005859375,-3.84521484375,87.9669189453125
15.969999900000001,5.365406036376953,3.318363666534424,-9.57441234588623,18.4783935546875,-5.5084228515625,98.5107421875
15.9899999,5.6455278396606445,2.693476915359497,-9.90241813659668,25.5584716796875,-10.4827880859375,114.6240234375
16.0099999,5.861005783081055,1.8938134908676147,-10.074800491333008,18.218994140625,7.3699951171875,107.8948974609375
16.0299999,5.995080947875977,0.8667010068893433,-10.144232749938965,0.4730224609375,18.951416015625,90.27099609375
16.0499999,6.007051944732666,-0.014365210197865963,-9.96945571899414,-15.3656005859375,8.4228515625,86.8072509765625
16.0699999,5.880159378051758,-0.3974374830722809,-9.466673851013184,-21.484375,1.03759765625,86.395263671875
16.089999900000002,5.57370138168335,-0.3711012601852417,-8.925583839416504,-17.913818359375,-1.8768310546875,87.95166015625
16.109999900000002,5.130774021148682,-0.20111294090747833,-8.62391471862793,-2.655029296875,-9.7808837890625,89.05029296875
16.1299999,4.63517427444458,-0.10773907601833344,-8.501810073852539,11.932373046875,-4.7149658203125,84.3658447265625
16.1499999,4.180276393890381,-0.24420857429504395,-8.542511940002441,15.8538818359375,-0.579833984375,79.3914794921875
16.1699999,3.825934410095215,-0.7374141216278076,-8.621520042419434,14.617919921875,-11.322021484375,75.4852294921875
16.1899999,3.533841609954834,-1.5275006294250488,-8.841787338256836,4.2877197265625,-21.2249755859375,64.788818359375
16.2099999,3.2848446369171143,-2.6647465229034424,-9.318233489990234,-3.84521484375,-18.5546875,47.1038818359375
16.2299999,3.066972494125366,-3.7612907886505127,-9.816226959228516,21.8658447265625,11.04736328125,18.0206298828125
16.249999900000002,2.846705913543701,-4.639962673187256,-10.232817649841309,35.7666015625,13.9923095703125,-4.2877197265625
16.269999900000002,2.5713725090026855,-5.152322292327881,-10.311826705932617,4.8675537109375,-3.570556640625,-14.6484375
16.2899999,2.212242364883423,-5.20978307723999,-10.304644584655762,-41.8701171875,-18.2342529296875,-34.8968505859375
16.3099999,1.2210428714752197,-3.9049429893493652,-10.472238540649414,63.0340576171875,20.416259765625,-64.3310546875
16.3299999,0.7374141216278076,-3.050212860107422,-10.012551307678223,61.8743896484375,26.5960693359375,-50.1556396484375
16.3499999,0.30885201692581177,-2.1811177730560303,-9.519346237182617,-7.2784423828125,-24.0631103515625,-63.4307861328125
16.3699999,-0.10055647045373917,-1.920149803161621,-8.9064302444458,-57.952880859375,-40.130615234375,-74.1119384765625
16.3899999,-0.48602294921875,-1.800439715385437,-8.69334602355957,-44.1436767578125,-6.6375732421875,-84.3505859375
16.4099999,-0.8188169598579407,-1.6304513216018677,-9.006986618041992,-10.9405517578125,-6.134033203125,-91.583251953125
16.429999900000002,-1.1037269830703735,-1.5131354331970215,-9.229647636413574,-18.707275390625,-11.7645263671875,-78.5064697265625
16.4499999,-1.3192051649093628,-1.278503656387329,-9.701305389404297,-57.220458984375,-33.0657958984375,-83.3740234375
16.4699999,-1.4915876388549805,-1.0223240852355957,-10.24000072479248,-66.58935546875,-19.622802734375,-100.311279296875
16.4899999,-1.6041151285171509,-0.6967126727104187,-10.876858711242676,-15.5181884765625,12.176513671875,-100.006103515625
16.5099999,-1.6543933153152466,-0.26336219906806946,-11.140220642089844,6.40869140625,28.8543701171875,-85.8001708984375
16.5299999,-1.623268723487854,0.44771572947502136,-11.173739433288574,-21.148681640625,4.9285888671875,-86.822509765625
16.5499999,-1.5538369417190552,1.0199298858642578,-10.845733642578125,-36.68212890625,-0.946044921875,-82.9620361328125
16.5699999,-1.45806884765625,1.577778935432434,-10.654197692871094,-12.63427734375,19.2718505859375,-74.3560791015625
16.589999900000002,-1.338358759880066,1.9153614044189453,-10.503362655639648,11.4593505859375,34.4696044921875,-66.1468505859375
16.609999900000002,-1.170764684677124,2.1045033931732178,-10.235212326049805,-6.4239501953125,33.99658203125,-66.0858154296875
16.6299999,-0.9696516990661621,2.322375535964966,-9.804255485534668,-29.5562744140625,17.51708984375,-72.357177734375
16.6499999,-0.8092401623725891,2.580949544906616,-9.39245319366455,-28.076171875,15.07568359375,-64.483642578125
16.6699999,-0.6847416758537292,3.0142998695373535,-9.184157371520996,-15.8843994140625,23.6663818359375,-50.201416015625
16.6899999,-0.5770025849342346,3.689464807510376,-8.959102630615234,-12.2833251953125,37.3992919921875,-45.745849609375
16.7099999,-0.507570743560791,4.371812343597412,-8.712499618530273,-15.106201171875,29.5257568359375,-37.7044677734375
16.7299999,-0.35913026332855225,4.874594688415527,-8.29830265045166,-18.798828125,8.697509765625,-19.927978515625
16.749999900000002,-0.08140286058187485,5.406107425689697,-7.876923561096191,-6.8359375,7.1258544921875,-22.125244140625
16.769999900000002,0.33279404044151306,5.4875102043151855,-7.675810813903809,17.2271728515625,10.5133056640625,-9.27734375
16.7899999,0.8690952062606812,5.1595048904418945,-7.711723804473877,16.9219970703125,9.490966796875,7.2479248046875
16.8099999,1.5418659448623657,4.548983097076416,-7.920019149780273,-6.927490234375,2.349853515625,-2.227783203125
16.8299999,2.2912509441375732,3.737348794937134,-8.121131896972656,-25.604248046875,3.7841796875,-16.2506103515625
16.8499999,3.0837318897247314,3.1699230670928955,-8.303091049194336,-23.8189697265625,4.4708251953125,-19.500732421875
16.8699999,3.9240965843200684,2.8347349166870117,-8.530540466308594,-10.2691650390625,-1.9683837890625,-9.674072265625
16.8899999,4.733336925506592,2.806004285812378,-8.678980827331543,-9.2926025390625,4.425048828125,-10.7421875
16.9099999,5.418078422546387,2.7533318996429443,-8.93037223815918,-20.263671875,7.5836181640625,-17.7154541015625
16.929999900000002,5.92325496673584,2.8395233154296875,-9.114726066589355,-27.2979736328125,8.8653564453125,-27.801513671875
16.9499999,6.155492782592773,3.0885202884674072,-9.215282440185547,-23.1475830078125,7.4920654296875,-29.35791015625
16.9699999,6.074089527130127,3.622427225112915,-9.2033109664917,-17.2119140625,5.67626953125,-26.3519287109375
16.9899999,5.70777702331543,4.41969633102417,-9.313444137573242,-20.08056640625,-3.96728515625,-25.4058837890625
17.0099999,5.154716491699219,5.360617637634277,-9.452308654785156,-14.16015625,1.556396484375,-19.561767578125
17.0299999,4.541800498962402,6.066906929016113,-9.63187313079834,3.9825439453125,14.83154296875,-1.7852783203125
17.0499999,4.0078935623168945,6.440402507781982,-9.62947940826416,18.7530517578125,17.1051025390625,7.6446533203125
17.0699999,3.579331636428833,6.260837554931641,-9.454702377319336,8.148193359375,6.256103515625,3.6468505859375
17.089999900000002,3.2345664501190186,5.681440830230713,-9.241618156433105,-10.92529296875,0.5340576171875,0.0457763671875
17.109999900000002,2.9328970909118652,5.023035049438477,-9.02135181427002,-15.9454345703125,12.8021240234375,-0.79345703125
17.1299999,2.63362193107605,4.730942726135254,-8.951920509338379,-2.960205078125,22.735595703125,1.8768310546875
17.1499999,2.274491548538208,4.618414878845215,-8.7268648147583,-5.1727294921875,22.03369140625,18.6920166015625
17.1699999,1.8818424940109253,4.707000732421875,-8.461109161376953,-5.18798828125,12.176513671875,27.64892578125
17.1899999,1.482010841369629,4.912901878356934,-8.339004516601562,-12.237548828125,-3.2196044921875,13.9923095703125
17.2099999,1.1085153818130493,5.073313236236572,-8.38449478149414,-11.9476318359375,5.9356689453125,22.64404296875
17.2299999,0.790086567401886,5.351040840148926,-8.707711219787598,-1.52587890625,16.754150390625,41.6107177734375
17.249999900000002,0.5339069962501526,5.65031623840332,-9.011775016784668,-2.6702880859375,17.6239013671875,60.1654052734375
17.269999900000002,0.3232172429561615,5.906495571136475,-9.378087997436523,-13.092041015625,4.6234130859375,63.9801025390625
17.2899999,0.15801730751991272,5.904101371765137,-9.569623947143555,-6.16455078125,6.011962890625,77.7740478515625
17.3099999,0.06224924325942993,5.626373767852783,-9.718064308166504,-3.5247802734375,15.9149169921875,88.8671875
17.3299999,-0.0071826050989329815,5.07570743560791,-9.732429504394531,-14.6026611328125,9.2315673828125,92.9412841796875
17.3499999,-0.07182604819536209,4.580107688903809,-9.330204010009766,-28.74755859375,6.622314453125,87.005615234375
17.3699999,-0.15801730751991272,4.2975921630859375,-8.918401718139648,-36.590576171875,-11.90185546875,91.9036865234375
17.3899999,-0.3064578175544739,3.825934410095215,-8.932766914367676,-20.1873779296875,-35.46142578125,124.3438720703125
17.409999900000003,-0.4118026793003082,3.533841609954834,-8.80587387084961,-11.53564453125,-3.2501220703125,124.8321533203125
17.429999900000002,-0.5147533416748047,2.8993782997131348,-8.80587387084961,-35.7818603515625,4.608154296875,111.5264892578125
17.4499999,-0.5195417404174805,2.676717519760132,-8.449137687683105,-44.1131591796875,-33.8134765625,107.1624755859375
17.4699999,-0.5410895943641663,2.585737943649292,-7.872135162353516,-17.578125,-53.6346435546875,130.3863525390625
17.4899999,-0.5841852426528931,2.473210334777832,-7.757213592529297,8.1787109375,-59.9365234375,159.60693359375
17.5099999,-0.6440402865409851,1.9488801956176758,-7.965508937835693,-5.2032470703125,-44.1131591796875,143.9971923828125
17.5299999,-0.6655880808830261,1.070208191871643,-8.485051155090332,-46.3714599609375,-44.281005859375,110.9771728515625
17.5499999,-0.5530605912208557,0.3208230137825012,-8.731653213500977,-47.05810546875,-58.7158203125,95.6878662109375
17.5699999,-0.3495534360408783,-0.10055647045373917,-8.908824920654297,4.57763671875,-74.3408203125,107.879638671875
17.589999900000002,-0.0933738648891449,-0.35434186458587646,-8.939949035644531,32.0281982421875,-70.6634521484375,114.959716796875
17.609999900000002,0.14604631066322327,-0.7158663272857666,-9.287108421325684,15.3350830078125,-62.9425048828125,93.1243896484375
17.6299999,0.395043283700943,-1.3263877630233765,-9.512163162231445,-24.1546630859375,-50.750732421875,64.056396484375
17.6499999,0.6512228846549988,-1.8363527059555054,-9.818621635437012,-35.247802734375,-51.7120361328125,45.1202392578125
17.6699999,0.9481038451194763,-2.0231003761291504,-10.144232749938965,-9.033203125,-59.8297119140625,33.294677734375
17.6899999,1.2665326595306396,-2.164358377456665,-10.591948509216309,4.638671875,-47.0428466796875,28.4576416015625
17.7099999,1.5945383310317993,-2.2840683460235596,-10.99656867980957,6.927490234375,-21.8353271484375,4.8828125
17.7299999,1.9752163887023926,-2.52109432220459,-11.403582572937012,-12.63427734375,-14.9688720703125,-29.9835205078125
17.749999900000002,2.406172752380371,-2.583343744277954,-11.511322021484375,-33.4930419921875,-16.7999267578125,-52.9327392578125
17.769999900000002,2.8586769104003906,-2.363077163696289,-11.23598861694336,5.31005859375,-0.91552734375,-59.295654296875
17.7899999,3.270479440689087,-1.9608511924743652,-10.666168212890625,44.49462890625,0.5645751953125,-63.8580322265625
17.8099999,3.60566782951355,-1.644816517829895,-10.005369186401367,18.8140869140625,-18.12744140625,-78.7200927734375
17.8299999,3.9240965843200684,-1.2737152576446533,-9.121908187866211,-55.6640625,-20.3857421875,-101.3946533203125
17.8499999,3.931279182434082,-0.9217676520347595,-9.3828763961792,-46.0205078125,-10.711669921875,-108.9324951171875
17.8699999,3.8570590019226074,-0.2753331959247589,-10.002974510192871,-20.01953125,1.3427734375,-118.9117431640625
17.8899999,3.754108190536499,0.5099649429321289,-10.697293281555176,-18.5089111328125,17.1051025390625,-106.62841796875
17.909999900000003,3.7229835987091064,1.6879122257232666,-11.420342445373535,-33.935546875,25.5279541015625,-103.8055419921875
17.929999900000002,3.7636849880218506,2.671929121017456,-11.978191375732422,-27.34375,36.9110107421875,-89.935302734375
17.9499999,3.8594532012939453,3.31118106842041,-12.224793434143066,16.0369873046875,64.1021728515625,-70.5413818359375
17.9699999,3.9887399673461914,3.383007049560547,-11.793837547302246,53.8787841796875,83.6334228515625,-72.6470947265625
17.9899999,4.065354347229004,2.7964274883270264,-10.788272857666016,33.2183837890625,63.9495849609375,-85.1593017578125
18.0099999,4.022258758544922,2.056619167327881,-9.500192642211914,-10.528564453125,28.6407470703125,-106.62841796875
18.0299999,3.864241600036621,1.7070658206939697,-8.607154846191406,5.889892578125,19.8822021484375,-119.8577880859375
18.0499999,3.5721490383148193,1.821987509727478,-8.068459510803223,42.9229736328125,48.5076904296875,-102.23388671875
18.0699999,3.2154128551483154,2.4229321479797363,-7.718906402587891,28.7322998046875,54.62646484375,-88.1805419921875
18.089999900000002,2.808398485183716,3.2106244564056396,-7.527369976043701,-17.63916015625,2.9296875,-95.9930419921875
18.109999900000002,2.389413356781006,4.089296340942383,-7.807491779327393,-17.9901123046875,-30.2276611328125,-102.3406982421875
18.1299999,2.0015525817871094,4.874594688415527,-8.334216117858887,58.7310791015625,20.2789306640625,-81.4971923828125
18.1499999,1.6352397203445435,5.341464042663574,-8.743624687194824,75.01220703125,68.8018798828125,-56.060791015625
18.1699999,1.3239935636520386,5.621585369110107,-9.133879661560059,-14.8773193359375,3.4942626953125,-71.1669921875
18.1899999,1.0223240852355957,5.770026206970215,-9.378087997436523,-64.3157958984375,-47.79052734375,-88.5162353515625
18.2099999,0.7541735172271729,5.980715751647949,-10.055646896362305,0.091552734375,-3.875732421875,-65.3533935546875
18.2299999,0.5434837937355042,6.349422931671143,-10.711658477783203,57.861328125,73.2879638671875,-35.8123779296875
18.249999900000002,0.4165911078453064,6.7492547035217285,-11.21444034576416,17.9595947265625,54.7332763671875,-32.6080322265625
18.269999900000002,0.33758243918418884,6.94079065322876,-10.939107894897461,-34.6832275390625,4.45556640625,-37.017822265625
18.2899999,0.2585737705230713,7.041347026824951,-10.196905136108398,-26.092529296875,14.129638671875,-23.9715576171875
18.3099999,0.12928688526153564,7.433996200561523,-9.742006301879883,24.8565673828125,28.2745361328125,-12.8021240234375
18.3299999,-0.0694318488240242,7.7428483963012695,-9.265560150146484,30.33447265625,37.6739501953125,19.1497802734375
18.3499999,-0.2801215946674347,8.178592681884766,-8.959102630615234,3.936767578125,19.989013671875,38.02490234375
18.3699999,-0.5003881454467773,8.250418663024902,-8.489839553833008,0.9307861328125,8.7738037109375,51.81884765625
18.3899999,-0.7038952708244324,8.010998725891113,-8.180987358093262,15.44189453125,10.650634765625,67.2760009765625
18.409999900000003,-0.8978256583213806,7.702147006988525,-8.109161376953125,25.299072265625,4.0435791015625,72.32666015625
18.429999900000002,-1.0534487962722778,7.067683219909668,-8.015787124633789,32.53173828125,12.63427734375,99.2584228515625
18.4499999,-1.2018892765045166,6.3733649253845215,-8.111555099487305,22.369384765625,6.378173828125,116.2109375
18.4699999,-1.338358759880066,5.370194435119629,-8.209717750549316,0,-3.9520263671875,117.37060546875
18.4899999,-1.4652514457702637,4.352658748626709,-8.449137687683105,-11.3677978515625,-1.7852783203125,109.588623046875
18.5099999,-1.599326729774475,3.579331636428833,-8.583212852478027,-2.5787353515625,8.3770751953125,109.7869873046875
18.5299999,-1.7310078144073486,3.071760892868042,-8.7268648147583,-3.11279296875,6.4849853515625,127.9754638671875
18.5499999,-1.8914192914962769,2.5498247146606445,-8.992621421813965,-21.17919921875,-13.8702392578125,144.8974609375
18.5699999,-2.013523578643799,2.185906171798706,-9.150638580322266,-36.1480712890625,-6.1492919921875,127.1209716796875
18.589999900000002,-2.0853497982025146,1.7908629179000854,-9.126696586608887,-35.6597900390625,12.8021240234375,116.88232421875
18.609999900000002,-2.121262788772583,1.644816517829895,-8.89685344696045,-17.181396484375,-8.544921875,133.392333984375
18.6299999,-2.1380221843719482,1.5466543436050415,-8.429984092712402,-11.6729736328125,-38.6505126953125,156.219482421875
18.6499999,-2.1930887699127197,1.556231141090393,-7.91283655166626,-25.0396728515625,-41.93115234375,146.1029052734375
18.6699999,-2.255337953567505,1.2234370708465576,-7.735665798187256,-35.70556640625,-48.7823486328125,141.0369873046875
18.6899999,-2.2840683460235596,0.9002198576927185,-7.836222171783447,-20.6146240234375,-59.0667724609375,142.0745849609375
18.7099999,-2.27209734916687,0.2753331959247589,-8.094796180725098,9.185791015625,-64.453125,149.4903564453125
18.7299999,-2.2002713680267334,-0.6200982332229614,-8.604761123657227,19.256591796875,-62.9425048828125,139.58740234375
18.749999900000002,-2.0374655723571777,-1.9129672050476074,-9.035717010498047,-3.1890869140625,-59.417724609375,106.8878173828125
18.769999900000002,-1.7334020137786865,-2.942473888397217,-9.440337181091309,-40.0390625,-60.4095458984375,68.9849853515625
18.7899999,-1.3024457693099976,-3.8355112075805664,-9.813833236694336,-66.4215087890625,-72.540283203125,62.3779296875
18.8099999,-0.7613561153411865,-4.469974517822266,-10.433931350708008,-36.6363525390625,-69.9920654296875,62.408447265625
18.8299999,-0.20350714027881622,-4.944026470184326,-11.310209274291992,20.8892822265625,-45.3948974609375,25.665283203125
18.8499999,0.35673606395721436,-5.451597213745117,-12.073959350585938,12.5579833984375,-11.474609375,-15.7623291015625
18.8699999,0.933738648891449,-5.657498836517334,-12.753912925720215,-49.1943359375,-12.9852294921875,-36.68212890625
18.8899999,1.4891934394836426,-5.549759387969971,-13.275848388671875,-64.4683837890625,-23.98681640625,-49.1943359375
18.909999900000003,1.9560627937316895,-5.17626428604126,-13.75708293914795,-14.46533203125,8.1329345703125,-66.314697265625
18.929999900000002,2.2816741466522217,-4.807557106018066,-14.147337913513184,13.4124755859375,51.8035888671875,-94.8638916015625
18.9499999,2.454056739807129,-4.393360137939453,-13.965378761291504,5.6915283203125,73.8525390625,-118.3319091796875
18.9699999,2.4899697303771973,-3.754108190536499,-13.117831230163574,-25.115966796875,57.1441650390625,-138.641357421875
18.9899999,2.4875755310058594,-2.6862943172454834,-11.712434768676758,-58.6090087890625,47.3480224609375,-151.79443359375
19.0099999,2.494758129119873,-1.3479355573654175,-10.553641319274902,-49.835205078125,46.630859375,-152.3284912109375
19.0299999,2.6001031398773193,0.21547815203666687,-9.81143856048584,7.2784423828125,60.85205078125,-148.7274169921875
19.0499999,2.853888511657715,1.5753847360610962,-9.306262016296387,28.594970703125,76.0498046875,-140.411376953125
19.0699999,3.246537446975708,2.760514497756958,-9.042900085449219,10.1318359375,56.0760498046875,-137.6190185546875
19.089999900000002,3.7469255924224854,3.734954595565796,-8.913613319396973,-20.20263671875,31.9366455078125,-134.429931640625
19.109999900000002,4.264073371887207,4.534617900848389,-8.887276649475098,-17.1051025390625,44.7998046875,-118.1488037109375
19.1299999,4.72376012802124,5.190629482269287,-9.078812599182129,30.2734375,61.2945556640625,-98.876953125
19.1499999,5.063736438751221,5.43723201751709,-9.136273384094238,54.351806640625,58.319091796875,-84.075927734375
19.1699999,5.252878665924072,5.305551052093506,-8.7268648147583,30.5023193359375,50.2777099609375,-81.695556640625
19.1899999,5.243301868438721,4.821922302246094,-8.051700592041016,-18.12744140625,29.0374755859375,-84.7930908203125
19.2099999,5.054159641265869,4.5825018882751465,-7.757213592529297,-25.7110595703125,3.4637451171875,-90.6219482421875
19.2299999,4.69024133682251,4.596867084503174,-7.5968017578125,42.29736328125,31.646728515625,-75.8056640625
19.249999900000002,4.259284973144531,4.881777286529541,-7.378929615020752,49.1485595703125,63.262939453125,-51.69677734375
19.269999900000002,3.7660791873931885,5.329493045806885,-7.194576263427734,-20.6451416015625,17.27294921875,-55.5267333984375
19.2899999,3.265691041946411,5.832275390625,-6.94079065322876,-59.63134765625,-32.470703125,-62.103271484375
19.3099999,2.779668092727661,6.368576526641846,-7.082048416137695,-4.6539306640625,-13.5345458984375,-48.9349365234375
19.3299999,2.3056161403656006,6.864176273345947,-7.479485988616943,63.3392333984375,27.6336669921875,-19.6380615234375
19.3499999,1.4939818382263184,6.722918510437012,-7.994239330291748,-26.4434814453125,-25.81787109375,-24.6124267578125
19.3699999,1.161187767982483,6.514622688293457,-8.197746276855469,-26.5960693359375,-35.33935546875,-37.0330810546875
19.3899999,0.8571242094039917,6.435614109039307,-8.583212852478027,47.54638671875,0.1983642578125,-5.67626953125
19.409999900000003,0.5889736413955688,6.5912370681762695,-8.882488250732422,68.7103271484375,27.374267578125,29.205322265625
19.429999900000002,0.3208230137825012,6.473921298980713,-9.090784072875977,25.0396728515625,-11.1236572265625,31.646728515625
19.4499999,0.031124621629714966,6.1530985832214355,-8.949525833129883,-7.4310302734375,-31.9671630859375,16.4031982421875
19.4699999,-0.30885201692581177,5.861005783081055,-9.05487060546875,-2.9449462890625,-19.0582275390625,15.7928466796875
19.4899999,-0.7254431247711182,5.808333396911621,-9.445125579833984,25.1617431640625,-1.861572265625,44.2657470703125
19.5099999,-1.194706678390503,5.791574001312256,-10.012551307678223,34.088134765625,-1.52587890625,72.20458984375
19.5299999,-1.656787633895874,5.987898349761963,-10.500968933105469,21.5301513671875,-8.1024169921875,61.553955078125
19.5499999,-2.0207061767578125,6.095637321472168,-10.615890502929688,1.3427734375,3.5400390625,62.6068115234375
19.5699999,-2.2457611560821533,6.172252178192139,-10.486603736877441,8.636474609375,7.26318359375,101.7913818359375
19.589999900000002,-2.3367409706115723,6.026205539703369,-10.20887565612793,29.205322265625,-4.0435791015625,132.2174072265625
19.609999900000002,-2.3295583724975586,5.298368453979492,-9.773131370544434,26.5350341796875,-2.1820068359375,137.7716064453125
19.6299999,-2.300827741622925,4.211400985717773,-9.313444137573242,9.2620849609375,4.94384765625,119.1253662109375
19.6499999,-2.2697031497955322,2.942473888397217,-8.899248123168945,-6.256103515625,-0.7781982421875,121.9940185546875
19.6699999,-2.2218191623687744,2.0207061767578125,-8.516175270080566,-14.6331787109375,-9.002685546875,134.4451904296875
19.6899999,-2.1763293743133545,1.2401964664459229,-8.324639320373535,-13.8092041015625,-13.12255859375,140.869140625
19.7099999,-2.1116859912872314,0.7206547260284424,-8.224082946777344,-9.9945068359375,-8.60595703125,132.14111328125
19.7299999,-2.054224967956543,0.395043283700943,-8.248024940490723,-19.8822021484375,-16.021728515625,122.3297119140625
19.749999900000002,-2.0207061767578125,-0.033518824726343155,-8.497021675109863,-26.06201171875,-34.9884033203125,137.451171875
19.769999900000002,-2.0254945755004883,-0.2992752194404602,-9.081207275390625,-19.2413330078125,-40.9698486328125,134.490966796875
19.7899999,-2.032677173614502,-0.7469909191131592,-9.691728591918945,-26.519775390625,-13.671875,116.6839599609375
19.8099999,-1.944091796875,-0.9792284965515137,-10.187328338623047,-40.5120849609375,-5.2337646484375,101.8829345703125
19.8299999,-1.7717092037200928,-1.091755986213684,-10.144232749938965,-32.7301025390625,-24.2462158203125,104.5684814453125
19.8499999,-1.534683346748352,-1.158793568611145,-10.101137161254883,-1.708984375,-44.5556640625,111.0382080078125
19.8699999,-1.2880805730819702,-1.3527239561080933,-9.883264541625977,6.8206787109375,-28.656005859375,96.9390869140625
19.8899999,-1.0534487962722778,-1.6950948238372803,-10.002974510192871,-12.1612548828125,-7.6751708984375,70.648193359375
19.909999900000003,-0.751779317855835,-1.8818424940109253,-9.99100399017334,-48.919677734375,-19.8516845703125,56.5032958984375
19.929999900000002,-0.3758896589279175,-1.7070658206939697,-9.816226959228516,-38.6810302734375,-29.510498046875,55.908203125
19.9499999,0.06703764945268631,-1.2689268589019775,-9.57441234588623,11.65771484375,-38.8946533203125,57.9376220703125
19.9699999,0.507570743560791,-1.137245774269104,-9.428366661071777,40.6341552734375,-32.3638916015625,53.3294677734375
19.9899999,0.9576807022094727,-1.53707754611969,-9.612719535827637,11.1083984375,-33.172607421875,35.2020263671875
20.0099999,1.381454348564148,-2.612074136734009,-10.189722061157227,-17.5323486328125,-37.8265380859375,6.89697265625
20.0299999,1.8052281141281128,-4.000710964202881,-10.78348445892334,-27.923583984375,-15.869140625,-25.238037109375
20.0499999,2.1547815799713135,-5.272032260894775,-11.255142211914062,-31.8756103515625,3.7689208984375,-57.952880859375
20.0699999,2.38462495803833,-6.04775333404541,-11.710040092468262,-29.0679931640625,-10.5438232421875,-87.371826171875
20.089999900000002,2.516305923461914,-6.124367713928223,-11.801020622253418,-33.7677001953125,-0.762939453125,-111.2213134765625
20.109999900000002,2.5474305152893066,-5.537788391113281,-11.860875129699707,-46.0205078125,22.5067138671875,-128.2806396484375
20.1299999,2.5330653190612793,-4.441244125366211,-11.81299114227295,-54.8858642578125,30.1666259765625,-140.655517578125
20.1499999,2.5234885215759277,-2.8850131034851074,-11.647790908813477,-53.40576171875,27.7252197265625,-152.2369384765625
20.1699999,2.5713725090026855,-1.05105459690094,-11.113883972167969,-39.2913818359375,40.2679443359375,-154.144287109375
20.1899999,2.7006595134735107,0.8188169598579407,-10.460267066955566,-19.71435546875,44.677734375,-135.9710693359375
20.2099999,2.935291290283203,2.5450363159179688,-9.732429504394531,-13.7939453125,31.25,-119.81201171875
20.2299999,3.205836057662964,3.847482204437256,-9.167398452758789,-23.49853515625,25.6500244140625,-107.5286865234375
20.249999900000002,3.4763808250427246,4.786009311676025,-8.865729331970215,-47.393798828125,32.806396484375,-99.578857421875
20.269999900000002,3.6942532062530518,5.449203014373779,-9.002198219299316,-48.126220703125,36.3922119140625,-88.07373046875
20.2899999,3.869029998779297,5.9519853591918945,-9.411606788635254,-7.5225830078125,31.55517578125,-72.6318359375
20.3099999,4.005499362945557,6.081272125244141,-9.80904483795166,35.2783203125,40.7257080078125,-53.466796875
20.3299999,4.101267337799072,5.781997203826904,-10.347740173339844,44.98291015625,40.3900146484375,-49.3011474609375
20.3499999,4.175487995147705,5.013458251953125,-10.512939453125,26.641845703125,50.7049560546875,-54.473876953125
20.3699999,4.216189384460449,3.928884983062744,-10.29746150970459,-7.171630859375,59.173583984375,-57.2052001953125
20.3899999,4.223371982574463,3.1220390796661377,-9.725247383117676,-3.570556640625,42.388916015625,-66.2078857421875
20.409999900000003,4.151545524597168,2.607285737991333,-9.244012832641602,27.4200439453125,26.6265869140625,-65.3228759765625
20.429999900000002,3.993528366088867,2.561795711517334,-8.595184326171875,22.4151611328125,50.1556396484375,-59.7076416015625
20.4499999,3.734954595565796,2.8227639198303223,-8.078036308288574,-20.050048828125,56.45751953125,-62.5152587890625
