# Time (seconds),Accel_X,Accel_Y,Accel_Z,Gyro_X,Gyro_Y,Gyro_Z
0.0099999,1.2545616626739502,-9.634267807006836,2.0446481704711914,0.0762939453125,-1.28173828125,-0.091552734375
0.029999900000000003,1.2545616626739502,-9.634267807006836,2.0422539710998535,0.0457763671875,-1.312255859375,-0.1220703125
0.0499999,1.256955862045288,-9.636661529541016,2.0422539710998535,0.1068115234375,-1.312255859375,-0.1068115234375
0.0699999,1.259350061416626,-9.636661529541016,2.0422539710998535,0.0457763671875,-1.312255859375,-0.152587890625
0.08999990000000001,1.2617442607879639,-9.634267807006836,2.0398597717285156,0,-1.3427734375,-0.18310546875
0.10999990000000001,1.2617442607879639,-9.63187313079834,2.0398597717285156,0.0762939453125,-1.28173828125,-0.1678466796875
0.1299999,1.259350061416626,-9.62947940826416,2.0374655723571777,-0.0152587890625,-1.312255859375,-0.152587890625
0.14999990000000002,1.256955862045288,-9.62947940826416,2.0398597717285156,0.06103515625,-1.3275146484375,-0.1678466796875
0.1699999,1.256955862045288,-9.62947940826416,2.0398597717285156,0,-1.3275146484375,-0.1220703125
0.1899999,1.256955862045288,-9.63187313079834,2.0422539710998535,0.0762939453125,-1.3580322265625,-0.18310546875
0.20999990000000002,1.259350061416626,-9.634267807006836,2.0422539710998535,0.0457763671875,-1.3427734375,-0.1373291015625
0.2299999,1.259350061416626,-9.636661529541016,2.0446481704711914,0,-1.251220703125,-0.091552734375
0.2499999,1.2617442607879639,-9.641449928283691,2.0446481704711914,0.1220703125,-1.28173828125,-0.1068115234375
0.2699999,1.2617442607879639,-9.641449928283691,2.0470423698425293,0,-1.312255859375,-0.1678466796875
0.28999990000000003,1.259350061416626,-9.639056205749512,2.0470423698425293,0.091552734375,-1.373291015625,-0.1373291015625
0.3099999,1.256955862045288,-9.639056205749512,2.0470423698425293,0.030517578125,-1.312255859375,-0.2899169921875
0.3299999,1.2521674633026123,-9.636661529541016,2.0446481704711914,0.0457763671875,-1.312255859375,-0.1983642578125
0.34999990000000003,1.2521674633026123,-9.636661529541016,2.0422539710998535,-0.0152587890625,-1.312255859375,-0.1678466796875
0.3699999,1.2521674633026123,-9.634267807006836,2.0422539710998535,0.0457763671875,-1.2969970703125,-0.1678466796875
0.3899999,1.2545616626739502,-9.636661529541016,2.0422539710998535,0.1068115234375,-1.3885498046875,-0.1068115234375
0.40999990000000003,1.256955862045288,-9.636661529541016,2.0422539710998535,0,-1.3275146484375,-0.1220703125
0.4299999,1.2617442607879639,-9.639056205749512,2.0446481704711914,0.152587890625,-1.3275146484375,-0.18310546875
0.4499999,1.2617442607879639,-9.639056205749512,2.0446481704711914,-0.0152587890625,-1.3580322265625,-0.18310546875
0.4699999,1.2617442607879639,-9.636661529541016,2.049436569213867,0.06103515625,-1.3580322265625,-0.06103515625
0.4899999,1.259350061416626,-9.634267807006836,2.049436569213867,-0.1068115234375,-1.312255859375,-0.152587890625
0.5099999,1.259350061416626,-9.634267807006836,2.051830768585205,0.0762939453125,-1.2969970703125,-0.152587890625
0.5299999,1.256955862045288,-9.634267807006836,2.051830768585205,0.06103515625,-1.2664794921875,-0.1068115234375
0.5499999,1.259350061416626,-9.634267807006836,2.051830768585205,0.030517578125,-1.3580322265625,-0.0762939453125
0.5699999,1.2617442607879639,-9.63187313079834,2.049436569213867,0.0457763671875,-1.373291015625,-0.1220703125
0.5899998999999999,1.2641384601593018,-9.63187313079834,2.0470423698425293,0,-1.2664794921875,-0.18310546875
0.6099998999999999,1.2617442607879639,-9.62947940826416,2.0470423698425293,0.1220703125,-1.220703125,-0.152587890625
0.6299999,1.2617442607879639,-9.63187313079834,2.0470423698425293,0.0457763671875,-1.220703125,-0.1373291015625
0.6499999,1.259350061416626,-9.63187313079834,2.049436569213867,-0.030517578125,-1.3275146484375,-0.1678466796875
0.6699999,1.256955862045288,-9.63187313079834,2.049436569213867,0.06103515625,-1.3580322265625,-0.2288818359375
0.6899999,1.256955862045288,-9.634267807006836,2.049436569213867,0.0457763671875,-1.3275146484375,-0.18310546875
0.7099999,1.259350061416626,-9.634267807006836,2.049436569213867,0.1220703125,-1.2359619140625,-0.1373291015625
0.7299998999999999,1.259350061416626,-9.636661529541016,2.0470423698425293,-0.0762939453125,-1.40380859375,-0.1373291015625
0.7499998999999999,1.2617442607879639,-9.636661529541016,2.0470423698425293,0.0762939453125,-1.3580322265625,-0.152587890625
0.7699999,1.2617442607879639,-9.639056205749512,2.0470423698425293,-0.0152587890625,-1.2359619140625,-0.18310546875
0.7899999,1.2617442607879639,-9.641449928283691,2.049436569213867,0.0762939453125,-1.3427734375,-0.1678466796875
0.8099999,1.259350061416626,-9.641449928283691,2.049436569213867,0.091552734375,-1.373291015625,-0.1678466796875
0.8299999,1.2617442607879639,-9.641449928283691,2.051830768585205,0.030517578125,-1.312255859375,-0.152587890625
0.8499998999999999,1.256955862045288,-9.641449928283691,2.051830768585205,0.06103515625,-1.3580322265625,-0.1373291015625
0.8699998999999999,1.256955862045288,-9.639056205749512,2.049436569213867,-0.030517578125,-1.3275146484375,-0.1983642578125
0.8899999,1.2545616626739502,-9.639056205749512,2.051830768585205,0.091552734375,-1.3275146484375,-0.1220703125
0.9099999,1.2521674633026123,-9.636661529541016,2.051830768585205,0,-1.3275146484375,-0.213623046875
0.9299999,1.2545616626739502,-9.639056205749512,2.051830768585205,0.0762939453125,-1.3275146484375,-0.1373291015625
0.9499999,1.256955862045288,-9.636661529541016,2.051830768585205,0.0152587890625,-1.312255859375,-0.1678466796875
0.9699998999999999,1.259350061416626,-9.636661529541016,2.051830768585205,0.1068115234375,-1.2969970703125,-0.2288818359375
0.9899998999999999,1.2617442607879639,-9.634267807006836,2.049436569213867,0.1373291015625,-1.3580322265625,-0.213623046875
1.0099999,1.2641384601593018,-9.634267807006836,2.049436569213867,0.0152587890625,-1.312255859375,-0.1983642578125
1.0299999,1.2641384601593018,-9.634267807006836,2.049436569213867,0.0457763671875,-1.312255859375,-0.1220703125
1.0499999,1.2641384601593018,-9.634267807006836,2.051830768585205,-0.091552734375,-1.28173828125,-0.1373291015625
1.0699999,1.2617442607879639,-9.634267807006836,2.051830768585205,0.0762939453125,-1.2664794921875,-0.1373291015625
1.0899999,1.259350061416626,-9.634267807006836,2.051830768585205,0.0457763671875,-1.2664794921875,-0.1220703125
1.1099999,1.256955862045288,-9.634267807006836,2.049436569213867,0.06103515625,-1.3275146484375,-0.1983642578125
1.1299999,1.2545616626739502,-9.636661529541016,2.049436569213867,-0.0152587890625,-1.2969970703125,-0.1983642578125
1.1499999,1.256955862045288,-9.634267807006836,2.049436569213867,0,-1.28173828125,-0.1678466796875
1.1699998999999999,1.259350061416626,-9.636661529541016,2.049436569213867,0.030517578125,-1.3885498046875,-0.1983642578125
1.1899998999999999,1.2617442607879639,-9.636661529541016,2.051830768585205,0.0152587890625,-1.373291015625,-0.152587890625
1.2099999,1.2641384601593018,-9.636661529541016,2.054224967956543,-0.0152587890625,-1.373291015625,-0.1678466796875
1.2299999,1.2641384601593018,-9.634267807006836,2.056619167327881,-0.030517578125,-1.312255859375,-0.1678466796875
1.2499999,1.2641384601593018,-9.636661529541016,2.056619167327881,0,-1.3580322265625,-0.18310546875
1.2699999,1.259350061416626,-9.636661529541016,2.054224967956543,0.0762939453125,-1.28173828125,-0.1678466796875
1.2899999,1.256955862045288,-9.636661529541016,2.051830768585205,0.0457763671875,-1.2969970703125,-0.152587890625
1.3099999,1.2545616626739502,-9.639056205749512,2.054224967956543,0.1220703125,-1.3580322265625,-0.1983642578125
1.3299999,1.2521674633026123,-9.636661529541016,2.054224967956543,0,-1.28173828125,-0.152587890625
1.3499999,1.2545616626739502,-9.636661529541016,2.056619167327881,0.0152587890625,-1.3275146484375,-0.2288818359375
1.3699999,1.2545616626739502,-9.636661529541016,2.056619167327881,0.1220703125,-1.3885498046875,-0.1678466796875
1.3899999,1.256955862045288,-9.634267807006836,2.051830768585205,-0.0457763671875,-1.312255859375,-0.152587890625
1.4099999,1.256955862045288,-9.636661529541016,2.049436569213867,0.0762939453125,-1.373291015625,-0.18310546875
1.4299998999999999,1.256955862045288,-9.636661529541016,2.0470423698425293,0.1220703125,-1.3580322265625,-0.18310546875
1.4499999,1.256955862045288,-9.636661529541016,2.0470423698425293,0,-1.28173828125,-0.152587890625
1.4699999,1.256955862045288,-9.639056205749512,2.049436569213867,0,-1.3427734375,-0.1373291015625
1.4899999,1.2545616626739502,-9.636661529541016,2.051830768585205,0.0457763671875,-1.2664794921875,-0.1220703125
1.5099999,1.2545616626739502,-9.639056205749512,2.054224967956543,0.0457763671875,-1.312255859375,-0.1373291015625
1.5299999,1.2545616626739502,-9.636661529541016,2.054224967956543,0.030517578125,-1.3275146484375,-0.1678466796875
1.5499999,1.2545616626739502,-9.636661529541016,2.054224967956543,0.06103515625,-1.3275146484375,-0.18310546875
1.5699999,1.2545616626739502,-9.636661529541016,2.054224967956543,0.030517578125,-1.2664794921875,-0.1678466796875
1.5899999,1.256955862045288,-9.634267807006836,2.054224967956543,0.091552734375,-1.3427734375,-0.1068115234375
1.6099999,1.259350061416626,-9.63187313079834,2.054224967956543,0.06103515625,-1.251220703125,-0.1220703125
1.6299999,1.259350061416626,-9.63187313079834,2.054224967956543,0.06103515625,-1.2664794921875,-0.1068115234375
1.6499999,1.2617442607879639,-9.62947940826416,2.054224967956543,0.0457763671875,-1.2664794921875,-0.0762939453125
1.6699999,1.259350061416626,-9.63187313079834,2.051830768585205,-0.06103515625,-1.28173828125,-0.152587890625
1.6899998999999999,1.259350061416626,-9.63187313079834,2.049436569213867,0.091552734375,-1.2969970703125,-0.244140625
1.7099999,1.256955862045288,-9.63187313079834,2.051830768585205,0.0457763671875,-1.3427734375,-0.1220703125
1.7299999,1.256955862045288,-9.634267807006836,2.051830768585205,0.06103515625,-1.28173828125,-0.0762939453125
1.7499999,1.256955862045288,-9.634267807006836,2.054224967956543,0,-1.2969970703125,-0.1220703125
1.7699999,1.256955862045288,-9.636661529541016,2.054224967956543,0.0152587890625,-1.312255859375,-0.1373291015625
1.7899999,1.256955862045288,-9.634267807006836,2.054224967956543,0.1068115234375,-1.251220703125,-0.091552734375
1.8099999,1.256955862045288,-9.63187313079834,2.054224967956543,0.030517578125,-1.2969970703125,-0.152587890625
1.8299999,1.256955862045288,-9.63187313079834,2.054224967956543,0.030517578125,-1.28173828125,-0.18310546875
1.8499999,1.2545616626739502,-9.62947940826416,2.056619167327881,-0.0457763671875,-1.312255859375,-0.152587890625
1.8699999,1.256955862045288,-9.63187313079834,2.054224967956543,0.030517578125,-1.28173828125,-0.1678466796875
1.8899999,1.2545616626739502,-9.63187313079834,2.054224967956543,-0.0152587890625,-1.28173828125,-0.152587890625
1.9099999,1.2545616626739502,-9.634267807006836,2.054224967956543,-0.0457763671875,-1.2969970703125,-0.1068115234375
1.9299998999999999,1.2545616626739502,-9.639056205749512,2.054224967956543,0,-1.373291015625,-0.213623046875
1.9499999,1.2521674633026123,-9.641449928283691,2.054224967956543,-0.030517578125,-1.3885498046875,-0.1373291015625
1.9699999,1.2521674633026123,-9.643844604492188,2.056619167327881,0.0457763671875,-1.312255859375,-0.213623046875
1.9899999,1.2545616626739502,-9.643844604492188,2.056619167327881,-0.0152587890625,-1.3580322265625,-0.1983642578125
2.0099999,1.2545616626739502,-9.641449928283691,2.0590133666992188,-0.0152587890625,-1.28173828125,-0.0762939453125
2.0299999,1.256955862045288,-9.641449928283691,2.0590133666992188,-0.0152587890625,-1.312255859375,-0.152587890625
2.0499999,1.259350061416626,-9.639056205749512,2.0590133666992188,0,-1.251220703125,-0.152587890625
2.0699999,1.2617442607879639,-9.636661529541016,2.056619167327881,0.091552734375,-1.2969970703125,-0.1373291015625
2.0899999,1.2617442607879639,-9.634267807006836,2.056619167327881,0,-1.2969970703125,-0.18310546875
2.1099999,1.259350061416626,-9.63187313079834,2.056619167327881,-0.030517578125,-1.251220703125,-0.152587890625
2.1299999,1.256955862045288,-9.62947940826416,2.0590133666992188,-0.030517578125,-1.312255859375,-0.1068115234375
2.1499999,1.2545616626739502,-9.62947940826416,2.0590133666992188,0.030517578125,-1.3427734375,-0.152587890625
2.1699999,1.2545616626739502,-9.63187313079834,2.0590133666992188,0.06103515625,-1.28173828125,-0.152587890625
2.1899999,1.2545616626739502,-9.634267807006836,2.056619167327881,-0.030517578125,-1.3427734375,-0.1068115234375
2.2099999,1.256955862045288,-9.634267807006836,2.051830768585205,0.0457763671875,-1.3427734375,-0.1220703125
2.2299999,1.259350061416626,-9.636661529541016,2.051830768585205,0.06103515625,-1.2969970703125,-0.18310546875
2.2499999,1.259350061416626,-9.636661529541016,2.051830768585205,0.0762939453125,-1.312255859375,-0.1373291015625
2.2699999,1.259350061416626,-9.634267807006836,2.054224967956543,0.06103515625,-1.3580322265625,-0.1373291015625
2.2899999,1.2617442607879639,-9.634267807006836,2.056619167327881,-0.0457763671875,-1.373291015625,-0.18310546875
2.3099999,1.2617442607879639,-9.63187313079834,2.0590133666992188,-0.0152587890625,-1.3580322265625,-0.213623046875
2.3299999,1.2641384601593018,-9.63187313079834,2.056619167327881,0.0152587890625,-1.251220703125,-0.1983642578125
2.3499999,1.2641384601593018,-9.63187313079834,2.056619167327881,0.091552734375,-1.28173828125,-0.152587890625
2.3699999,1.2641384601593018,-9.63187313079834,2.054224967956543,0.0152587890625,-1.3427734375,-0.1220703125
2.3899999,1.2617442607879639,-9.634267807006836,2.056619167327881,-0.030517578125,-1.2664794921875,-0.1373291015625
2.4099999,1.259350061416626,-9.636661529541016,2.0614075660705566,-0.030517578125,-1.312255859375,-0.152587890625
2.4299999,1.2545616626739502,-9.636661529541016,2.0614075660705566,-0.0457763671875,-1.3427734375,-0.152587890625
2.4499999,1.2545616626739502,-9.639056205749512,2.0614075660705566,0.1068115234375,-1.312255859375,-0.1678466796875
2.4699999,1.2497732639312744,-9.636661529541016,2.0590133666992188,-0.0152587890625,-1.312255859375,-0.152587890625
2.4899999,1.2497732639312744,-9.634267807006836,2.056619167327881,0,-1.3427734375,-0.213623046875
2.5099999,1.2497732639312744,-9.634267807006836,2.056619167327881,-0.0457763671875,-1.312255859375,-0.152587890625
2.5299999,1.2521674633026123,-9.63187313079834,2.054224967956543,0.0152587890625,-1.28173828125,-0.2288818359375
2.5499999,1.2521674633026123,-9.63187313079834,2.054224967956543,0.030517578125,-1.28173828125,-0.152587890625
2.5699999,1.2521674633026123,-9.63187313079834,2.054224967956543,-0.030517578125,-1.373291015625,-0.1068115234375
2.5899999,1.2545616626739502,-9.634267807006836,2.056619167327881,0.0457763671875,-1.3580322265625,-0.1068115234375
2.6099999,1.2545616626739502,-9.639056205749512,2.054224967956543,0,-1.2359619140625,-0.1373291015625
2.6299999,1.256955862045288,-9.639056205749512,2.056619167327881,0.152587890625,-1.312255859375,-0.1068115234375
2.6499999,1.259350061416626,-9.641449928283691,2.054224967956543,-0.091552734375,-1.312255859375,-0.1373291015625
2.6699999,1.259350061416626,-9.641449928283691,2.056619167327881,0.0457763671875,-1.3580322265625,-0.1220703125
2.6899999,1.259350061416626,-9.641449928283691,2.056619167327881,0,-1.28173828125,-0.213623046875
2.7099999,1.259350061416626,-9.641449928283691,2.056619167327881,-0.030517578125,-1.251220703125,-0.152587890625
2.7299999,1.256955862045288,-9.639056205749512,2.056619167327881,0.0762939453125,-1.2664794921875,-0.091552734375
2.7499999,1.256955862045288,-9.636661529541016,2.056619167327881,-0.030517578125,-1.312255859375,-0.1983642578125
2.7699999,1.2545616626739502,-9.634267807006836,2.056619167327881,0.0762939453125,-1.2664794921875,-0.1678466796875
2.7899999,1.2545616626739502,-9.63187313079834,2.056619167327881,-0.18310546875,-1.2664794921875,-0.1678466796875
2.8099999,1.2521674633026123,-9.63187313079834,2.0590133666992188,0.091552734375,-1.2664794921875,-0.152587890625
2.8299999,1.2521674633026123,-9.63187313079834,2.0614075660705566,-0.0152587890625,-1.3275146484375,-0.152587890625
2.8499999,1.2545616626739502,-9.634267807006836,2.0614075660705566,0.0762939453125,-1.3427734375,-0.18310546875
2.8699999,1.2545616626739502,-9.636661529541016,2.0614075660705566,0.0457763671875,-1.40380859375,-0.1373291015625
2.8899999,1.256955862045288,-9.636661529541016,2.0614075660705566,-0.06103515625,-1.3427734375,-0.1068115234375
2.9099999,1.256955862045288,-9.636661529541016,2.0614075660705566,0,-1.3275146484375,-0.18310546875
2.9299999,1.256955862045288,-9.634267807006836,2.0590133666992188,0.0152587890625,-1.28173828125,-0.18310546875
2.9499999,1.259350061416626,-9.634267807006836,2.056619167327881,0.0152587890625,-1.28173828125,-0.1373291015625
2.9699999,1.256955862045288,-9.634267807006836,2.054224967956543,0.091552734375,-1.312255859375,-0.091552734375
2.9899999,1.259350061416626,-9.634267807006836,2.054224967956543,0.0457763671875,-1.3275146484375,-0.1220703125
3.0099999,1.256955862045288,-9.634267807006836,2.054224967956543,0.06103515625,-1.220703125,-0.152587890625
3.0299999,1.256955862045288,-9.63187313079834,2.054224967956543,-0.0457763671875,-1.190185546875,-0.1373291015625
3.0499999,1.256955862045288,-9.63187313079834,2.056619167327881,0.0457763671875,-1.3427734375,-0.1220703125
3.0699999,1.256955862045288,-9.63187313079834,2.056619167327881,0.0457763671875,-1.2969970703125,-0.1678466796875
3.0899999,1.256955862045288,-9.62947940826416,2.0590133666992188,-0.0152587890625,-1.2664794921875,-0.1983642578125
3.1099999,1.256955862045288,-9.62947940826416,2.0590133666992188,0.0152587890625,-1.312255859375,-0.2288818359375
3.1299999,1.256955862045288,-9.63187313079834,2.0590133666992188,-0.0152587890625,-1.28173828125,-0.091552734375
3.1499999,1.256955862045288,-9.63187313079834,2.0590133666992188,0.0152587890625,-1.2969970703125,-0.1220703125
3.1699999,1.2545616626739502,-9.634267807006836,2.0590133666992188,-0.06103515625,-1.28173828125,-0.213623046875
3.1899999,1.2545616626739502,-9.634267807006836,2.0590133666992188,0.06103515625,-1.2969970703125,-0.1678466796875
3.2099999,1.2545616626739502,-9.634267807006836,2.054224967956543,-0.06103515625,-1.251220703125,-0.152587890625
3.2299999,1.256955862045288,-9.634267807006836,2.054224967956543,-0.0457763671875,-1.28173828125,-0.1678466796875
3.2499999,1.256955862045288,-9.634267807006836,2.051830768585205,0.06103515625,-1.312255859375,-0.1983642578125
3.2699999,1.256955862045288,-9.634267807006836,2.051830768585205,-0.0762939453125,-1.2664794921875,-0.152587890625
3.2899999,1.256955862045288,-9.634267807006836,2.054224967956543,-0.1068115234375,-1.2664794921875,-0.213623046875
3.3099999,1.259350061416626,-9.634267807006836,2.054224967956543,-0.0457763671875,-1.312255859375,-0.2593994140625
3.3299999000000002,1.259350061416626,-9.634267807006836,2.056619167327881,0.1678466796875,-1.3275146484375,-0.1678466796875
3.3499999,1.256955862045288,-9.63187313079834,2.0590133666992188,0,-1.2969970703125,-0.091552734375
3.3699999,1.256955862045288,-9.63187313079834,2.0638017654418945,0.0457763671875,-1.2969970703125,-0.1068115234375
3.3899999,1.256955862045288,-9.62947940826416,2.0638017654418945,-0.030517578125,-1.28173828125,-0.213623046875
3.4099999,1.256955862045288,-9.63187313079834,2.0614075660705566,-0.0457763671875,-1.312255859375,-0.2288818359375
3.4299999,1.2545616626739502,-9.634267807006836,2.0590133666992188,0.06103515625,-1.312255859375,-0.213623046875
3.4499999,1.2545616626739502,-9.636661529541016,2.056619167327881,0,-1.251220703125,-0.1373291015625
3.4699999,1.2545616626739502,-9.639056205749512,2.054224967956543,-0.0152587890625,-1.2359619140625,-0.1068115234375
3.4899999,1.256955862045288,-9.639056205749512,2.054224967956543,0.030517578125,-1.3427734375,-0.18310546875
3.5099999,1.256955862045288,-9.636661529541016,2.056619167327881,0.030517578125,-1.312255859375,-0.1678466796875
3.5299999,1.256955862045288,-9.636661529541016,2.054224967956543,-0.030517578125,-1.3275146484375,-0.0762939453125
3.5499999,1.2545616626739502,-9.634267807006836,2.054224967956543,0.0152587890625,-1.2969970703125,-0.1678466796875
3.5699999,1.2521674633026123,-9.63187313079834,2.054224967956543,0.0457763671875,-1.2359619140625,-0.213623046875
3.5899999,1.2521674633026123,-9.63187313079834,2.056619167327881,-0.030517578125,-1.28173828125,-0.2288818359375
3.6099999,1.2545616626739502,-9.63187313079834,2.056619167327881,0.0152587890625,-1.312255859375,-0.18310546875
3.6299999,1.259350061416626,-9.634267807006836,2.056619167327881,0.030517578125,-1.28173828125,-0.213623046875
3.6499999,1.2617442607879639,-9.634267807006836,2.056619167327881,0.0152587890625,-1.312255859375,-0.152587890625
3.6699999,1.2665326595306396,-9.634267807006836,2.056619167327881,-0.030517578125,-1.312255859375,-0.091552734375
3.6899999,1.2665326595306396,-9.634267807006836,2.056619167327881,-0.0152587890625,-1.312255859375,-0.1373291015625
3.7099999,1.2641384601593018,-9.634267807006836,2.056619167327881,0.030517578125,-1.3580322265625,-0.1678466796875
3.7299999,1.2617442607879639,-9.634267807006836,2.056619167327881,-0.0152587890625,-1.40380859375,-0.1068115234375
3.7499999,1.259350061416626,-9.634267807006836,2.056619167327881,0.06103515625,-1.3885498046875,-0.1068115234375
3.7699999,1.259350061416626,-9.634267807006836,2.056619167327881,-0.0762939453125,-1.28173828125,-0.152587890625
3.7899999,1.256955862045288,-9.63187313079834,2.056619167327881,0.030517578125,-1.2969970703125,-0.1678466796875
3.8099999,1.256955862045288,-9.63187313079834,2.056619167327881,-0.06103515625,-1.28173828125,-0.152587890625
3.8299999000000002,1.256955862045288,-9.62947940826416,2.056619167327881,0.0762939453125,-1.2359619140625,-0.18310546875
3.8499999,1.256955862045288,-9.62947940826416,2.0590133666992188,0,-1.3580322265625,-0.2593994140625
3.8699999,1.256955862045288,-9.62947940826416,2.0590133666992188,0.06103515625,-1.3885498046875,-0.1678466796875
3.8899999,1.259350061416626,-9.62947940826416,2.0590133666992188,0.0457763671875,-1.2969970703125,-0.0762939453125
3.9099999,1.259350061416626,-9.62947940826416,2.0590133666992188,0.091552734375,-1.3427734375,-0.0762939453125
3.9299999,1.256955862045288,-9.63187313079834,2.0590133666992188,-0.030517578125,-1.3580322265625,-0.1678466796875
3.9499999,1.256955862045288,-9.634267807006836,2.0590133666992188,0.030517578125,-1.251220703125,-0.1068115234375
3.9699999,1.2545616626739502,-9.636661529541016,2.0614075660705566,-0.06103515625,-1.2359619140625,-0.1983642578125
3.9899999,1.2545616626739502,-9.639056205749512,2.0614075660705566,0.06103515625,-1.3427734375,-0.152587890625
4.0099999,1.2545616626739502,-9.641449928283691,2.0614075660705566,0.06103515625,-1.3275146484375,-0.152587890625
4.029999900000001,1.2545616626739502,-9.641449928283691,2.0590133666992188,0.030517578125,-1.28173828125,-0.152587890625
4.0499999,1.256955862045288,-9.641449928283691,2.0614075660705566,0.0457763671875,-1.312255859375,-0.1068115234375
4.069999900000001,1.256955862045288,-9.639056205749512,2.0614075660705566,-0.030517578125,-1.3275146484375,-0.152587890625
4.0899999000000005,1.256955862045288,-9.636661529541016,2.0614075660705566,0,-1.28173828125,-0.1678466796875
4.1099999,1.256955862045288,-9.634267807006836,2.0614075660705566,-0.06103515625,-1.251220703125,-0.1220703125
4.1299999000000005,1.259350061416626,-9.63187313079834,2.056619167327881,0.0152587890625,-1.312255859375,-0.1068115234375
4.1499999,1.259350061416626,-9.63187313079834,2.054224967956543,-0.0762939453125,-1.2969970703125,-0.18310546875
4.1699999000000005,1.259350061416626,-9.63187313079834,2.051830768585205,0.030517578125,-1.312255859375,-0.1983642578125
4.1899999,1.259350061416626,-9.62947940826416,2.051830768585205,-0.091552734375,-1.28173828125,-0.2288818359375
4.209999900000001,1.256955862045288,-9.63187313079834,2.056619167327881,0.06103515625,-1.2969970703125,-0.1983642578125
4.2299999,1.2545616626739502,-9.63187313079834,2.056619167327881,0.030517578125,-1.3275146484375,-0.1220703125
4.249999900000001,1.2521674633026123,-9.634267807006836,2.0590133666992188,0,-1.28173828125,-0.1983642578125
4.2699999,1.2497732639312744,-9.634267807006836,2.0614075660705566,0.06103515625,-1.28173828125,-0.1983642578125
4.289999900000001,1.2473790645599365,-9.634267807006836,2.0590133666992188,-0.0762939453125,-1.2969970703125,-0.1220703125
4.3099999,1.2473790645599365,-9.634267807006836,2.0590133666992188,0.0762939453125,-1.3427734375,-0.06103515625
4.329999900000001,1.2497732639312744,-9.634267807006836,2.056619167327881,-0.06103515625,-1.251220703125,-0.152587890625
4.3499999,1.2521674633026123,-9.63187313079834,2.054224967956543,0.030517578125,-1.28173828125,-0.1678466796875
4.369999900000001,1.2521674633026123,-9.63187313079834,2.054224967956543,-0.091552734375,-1.28173828125,-0.18310546875
4.3899999,1.2521674633026123,-9.62947940826416,2.051830768585205,0,-1.3275146484375,-0.1220703125
4.409999900000001,1.2545616626739502,-9.62947940826416,2.054224967956543,0.091552734375,-1.312255859375,-0.1678466796875
4.4299999,1.2545616626739502,-9.627084732055664,2.051830768585205,-0.0762939453125,-1.312255859375,-0.1373291015625
4.449999900000001,1.256955862045288,-9.634267807006836,2.0590133666992188,0.1068115234375,-1.3580322265625,-0.152587890625
4.4699999,1.259350061416626,-9.617507934570312,2.054224967956543,-0.2899169921875,-1.312255859375,-0.244140625
4.489999900000001,1.256955862045288,-9.643844604492188,2.073378562927246,0.30517578125,-1.3275146484375,-0.244140625
4.5099999,1.259350061416626,-9.610325813293457,2.0638017654418945,1.8768310546875,-1.373291015625,-3.11279296875
4.529999900000001,1.2617442607879639,-9.682151794433594,2.0853497982025146,5.9661865234375,-0.3814697265625,-3.3416748046875
4.5499999,1.2665326595306396,-9.634267807006836,2.0901381969451904,4.9285888671875,-0.5950927734375,-7.8582763671875
4.569999900000001,1.2952631711959839,-9.679757118225098,2.0685901641845703,11.1236572265625,-0.762939453125,-8.6822509765625
4.5899999000000005,1.3000515699386597,-9.62947940826416,2.1045033931732178,-0.1678466796875,-1.0528564453125,-0.0457763671875
4.609999900000001,1.3263877630233765,-9.612719535827637,2.0877439975738525,-1.7547607421875,-1.64794921875,-0.3509521484375
4.6299999000000005,1.3287819623947144,-9.586383819580078,2.121262788772583,1.7852783203125,-1.4801025390625,-0.67138671875
4.6499999,1.3335703611373901,-9.576807022094727,2.1380221843719482,0.274658203125,-1.220703125,-0.213623046875
4.6699999000000005,1.3335703611373901,-9.567230224609375,2.164358377456665,0.30517578125,-1.2359619140625,-0.244140625
4.6899999,1.335964560508728,-9.57441234588623,2.1787235736846924,-1.678466796875,-1.2969970703125,-0.6561279296875
4.709999900000001,1.3455413579940796,-9.581595420837402,2.1763293743133545,-2.3651123046875,-1.617431640625,-0.48828125
4.7299999,1.3503297567367554,-9.593565940856934,2.161964178085327,2.44140625,-1.3427734375,-0.1373291015625
4.749999900000001,1.3527239561080933,-9.615114212036133,2.126051187515259,-0.5035400390625,-1.1138916015625,-0.2593994140625
4.7699999,1.3503297567367554,-9.619902610778809,2.1140801906585693,1.1444091796875,-1.220703125,-0.1068115234375
4.789999900000001,1.3455413579940796,-9.624691009521484,2.099714994430542,-1.7547607421875,-1.3427734375,-0.3509521484375
4.8099999,1.3455413579940796,-9.619902610778809,2.1116859912872314,0.4730224609375,-1.434326171875,-0.1373291015625
4.829999900000001,1.3503297567367554,-9.615114212036133,2.1140801906585693,0.396728515625,-1.3580322265625,-0.1068115234375
4.8499999,1.3479355573654175,-9.610325813293457,2.121262788772583,0.4730224609375,-1.2054443359375,-0.091552734375
4.869999900000001,1.3407529592514038,-9.605537414550781,2.1332337856292725,1.0223388671875,-1.220703125,-0.1220703125
4.8899999,1.335964560508728,-9.603142738342285,2.142810583114624,-1.3580322265625,-1.373291015625,-0.2593994140625
4.909999900000001,1.3335703611373901,-9.600749015808105,2.1547815799713135,0.0152587890625,-1.40380859375,-0.18310546875
4.9299999,1.338358759880066,-9.600749015808105,2.1499931812286377,-0.396728515625,-1.3580322265625,-0.274658203125
4.949999900000001,1.3407529592514038,-9.59835433959961,2.1499931812286377,1.312255859375,-1.2664794921875,-0.152587890625
4.9699999,1.338358759880066,-9.600749015808105,2.140416383743286,-0.640869140625,-1.220703125,-0.30517578125
4.989999900000001,1.338358759880066,-9.603142738342285,2.1380221843719482,-0.9918212890625,-1.40380859375,-0.274658203125
5.0099999,1.338358759880066,-9.603142738342285,2.1284453868865967,-0.4119873046875,-1.3885498046875,-0.213623046875
5.029999900000001,1.338358759880066,-9.605537414550781,2.1284453868865967,0.3509521484375,-1.3580322265625,-0.2288818359375
5.0499999,1.338358759880066,-9.600749015808105,2.1308395862579346,0.3204345703125,-1.3275146484375,-0.3204345703125
5.069999900000001,1.3335703611373901,-9.59835433959961,2.1380221843719482,-1.220703125,-1.3885498046875,-0.457763671875
5.0899999000000005,1.3287819623947144,-9.593565940856934,2.1499931812286377,-0.6103515625,-1.434326171875,-0.3814697265625
5.109999900000001,1.3311761617660522,-9.59596061706543,2.1475989818573,-0.6256103515625,-1.3885498046875,-0.3814697265625
5.1299999000000005,1.338358759880066,-9.600749015808105,2.140416383743286,0.213623046875,-1.3427734375,-0.2593994140625
5.1499999,1.3455413579940796,-9.612719535827637,2.123656988143921,-0.1220703125,-1.434326171875,-0.213623046875
5.1699999000000005,1.3479355573654175,-9.619902610778809,2.1116859912872314,-0.335693359375,-1.3275146484375,-0.213623046875
5.1899999,1.3455413579940796,-9.622296333312988,2.099714994430542,-0.2288818359375,-1.312255859375,-0.2288818359375
5.209999900000001,1.3431471586227417,-9.624691009521484,2.099714994430542,0.0457763671875,-1.373291015625,-0.1678466796875
5.2299999,1.3407529592514038,-9.619902610778809,2.1068975925445557,0.5035400390625,-1.2969970703125,-0.1068115234375
5.249999900000001,1.3407529592514038,-9.612719535827637,2.118868589401245,-0.0152587890625,-1.3275146484375,-0.1678466796875
5.2699999,1.3431471586227417,-9.607931137084961,2.1356279850006104,-0.2899169921875,-1.3275146484375,-0.244140625
5.289999900000001,1.3455413579940796,-9.600749015808105,2.142810583114624,-0.6103515625,-1.46484375,-0.2899169921875
5.3099999,1.3503297567367554,-9.600749015808105,2.1475989818573,-0.030517578125,-1.3885498046875,-0.2899169921875
5.329999900000001,1.3503297567367554,-9.603142738342285,2.142810583114624,-0.1373291015625,-1.3427734375,-0.244140625
5.3499999,1.3479355573654175,-9.605537414550781,2.1356279850006104,-0.1068115234375,-1.3885498046875,-0.2288818359375
5.369999900000001,1.3431471586227417,-9.610325813293457,2.123656988143921,-0.3662109375,-1.40380859375,-0.274658203125
5.3899999,1.338358759880066,-9.615114212036133,2.1116859912872314,-0.2899169921875,-1.28173828125,-0.2288818359375
5.409999900000001,1.338358759880066,-9.617507934570312,2.099714994430542,0.1373291015625,-1.251220703125,-0.152587890625
5.4299999,1.3407529592514038,-9.617507934570312,2.099714994430542,0.1983642578125,-1.2664794921875,-0.1373291015625
5.449999900000001,1.3431471586227417,-9.615114212036133,2.1045033931732178,0.1068115234375,-1.3275146484375,-0.1678466796875
5.4699999,1.3455413579940796,-9.610325813293457,2.1140801906585693,-0.3509521484375,-1.2969970703125,-0.2288818359375
5.489999900000001,1.3455413579940796,-9.605537414550781,2.126051187515259,-0.152587890625,-1.2664794921875,-0.244140625
5.5099999,1.3431471586227417,-9.603142738342285,2.1308395862579346,-0.1220703125,-1.373291015625,-0.1983642578125
5.529999900000001,1.3455413579940796,-9.603142738342285,2.1332337856292725,0,-1.3275146484375,-0.274658203125
5.5499999,1.3479355573654175,-9.603142738342285,2.1332337856292725,-0.4119873046875,-1.251220703125,-0.18310546875
5.569999900000001,1.3503297567367554,-9.605537414550781,2.1308395862579346,-0.06103515625,-1.3885498046875,-0.244140625
5.5899999000000005,1.3527239561080933,-9.612719535827637,2.126051187515259,-0.244140625,-1.3580322265625,-0.274658203125
5.609999900000001,1.3527239561080933,-9.617507934570312,2.118868589401245,-0.030517578125,-1.373291015625,-0.18310546875
5.6299999000000005,1.3479355573654175,-9.622296333312988,2.1068975925445557,0.0152587890625,-1.3275146484375,-0.2288818359375
5.6499999,1.3407529592514038,-9.627084732055664,2.097320795059204,0.06103515625,-1.312255859375,-0.1983642578125
5.6699999000000005,1.335964560508728,-9.627084732055664,2.094926595687866,0.030517578125,-1.2969970703125,-0.1373291015625
5.6899999,1.335964560508728,-9.622296333312988,2.097320795059204,-0.0457763671875,-1.3275146484375,-0.152587890625
5.709999900000001,1.3407529592514038,-9.619902610778809,2.1092917919158936,0.06103515625,-1.3427734375,-0.1678466796875
5.7299999,1.3455413579940796,-9.612719535827637,2.1164743900299072,0.2288818359375,-1.373291015625,-0.1373291015625
5.749999900000001,1.3479355573654175,-9.610325813293457,2.123656988143921,0.1068115234375,-1.2969970703125,-0.1068115234375
5.7699999,1.3455413579940796,-9.610325813293457,2.123656988143921,-0.1373291015625,-1.28173828125,-0.1068115234375
5.789999900000001,1.3431471586227417,-9.610325813293457,2.123656988143921,0.091552734375,-1.2054443359375,-0.1220703125
5.8099999,1.3431471586227417,-9.610325813293457,2.123656988143921,0.2593994140625,-1.2359619140625,-0.1983642578125
5.829999900000001,1.3455413579940796,-9.607931137084961,2.121262788772583,0.3662109375,-1.2969970703125,-0.274658203125
5.8499999,1.3503297567367554,-9.605537414550781,2.121262788772583,0.1678466796875,-1.2359619140625,-0.213623046875
5.869999900000001,1.3503297567367554,-9.603142738342285,2.121262788772583,-0.0762939453125,-1.2969970703125,-0.213623046875
5.8899999,1.3503297567367554,-9.603142738342285,2.121262788772583,-0.244140625,-1.3427734375,-0.213623046875
5.909999900000001,1.3503297567367554,-9.603142738342285,2.118868589401245,-0.1678466796875,-1.373291015625,-0.213623046875
5.9299999,1.3527239561080933,-9.605537414550781,2.1164743900299072,0.2593994140625,-1.40380859375,-0.1068115234375
5.949999900000001,1.3551181554794312,-9.610325813293457,2.1140801906585693,0.1678466796875,-1.3580322265625,-0.1373291015625
5.9699999,1.357512354850769,-9.610325813293457,2.1116859912872314,-0.1373291015625,-1.312255859375,-0.1678466796875
5.989999900000001,1.3527239561080933,-9.612719535827637,2.1092917919158936,0.0457763671875,-1.251220703125,-0.152587890625
6.0099999,1.3479355573654175,-9.612719535827637,2.1092917919158936,0.1068115234375,-1.28173828125,-0.1068115234375
6.029999900000001,1.3455413579940796,-9.612719535827637,2.1116859912872314,0.3509521484375,-1.3427734375,-0.1220703125
6.0499999,1.3455413579940796,-9.610325813293457,2.1164743900299072,0.0762939453125,-1.312255859375,-0.091552734375
6.069999900000001,1.3455413579940796,-9.610325813293457,2.126051187515259,-0.0457763671875,-1.312255859375,-0.1373291015625
6.0899999000000005,1.3431471586227417,-9.607931137084961,2.1308395862579346,-0.06103515625,-1.3275146484375,-0.091552734375
6.109999900000001,1.3455413579940796,-9.607931137084961,2.1380221843719482,-0.0457763671875,-1.312255859375,-0.244140625
6.1299999000000005,1.3479355573654175,-9.605537414550781,2.1380221843719482,0.1068115234375,-1.3275146484375,-0.18310546875
6.149999900000001,1.3527239561080933,-9.605537414550781,2.1356279850006104,0.213623046875,-1.3427734375,-0.1068115234375
6.1699999000000005,1.3527239561080933,-9.605537414550781,2.1308395862579346,-0.030517578125,-1.3275146484375,-0.1678466796875
6.1899999,1.3503297567367554,-9.603142738342285,2.126051187515259,-0.2899169921875,-1.3427734375,-0.1983642578125
6.209999900000001,1.3479355573654175,-9.603142738342285,2.121262788772583,-0.1220703125,-1.2664794921875,-0.244140625
6.2299999,1.3455413579940796,-9.605537414550781,2.118868589401245,0.1373291015625,-1.2969970703125,-0.274658203125
6.249999900000001,1.3455413579940796,-9.607931137084961,2.118868589401245,0,-1.3580322265625,-0.1983642578125
6.2699999,1.3479355573654175,-9.607931137084961,2.1164743900299072,-0.1220703125,-1.373291015625,-0.152587890625
6.289999900000001,1.3479355573654175,-9.612719535827637,2.1140801906585693,-0.1220703125,-1.3427734375,-0.18310546875
6.3099999,1.3479355573654175,-9.612719535827637,2.1140801906585693,-0.06103515625,-1.3275146484375,-0.1678466796875
6.329999900000001,1.3503297567367554,-9.615114212036133,2.1116859912872314,0.06103515625,-1.373291015625,-0.1678466796875
6.3499999,1.3479355573654175,-9.617507934570312,2.1116859912872314,0.244140625,-1.312255859375,-0.1983642578125
6.369999900000001,1.3479355573654175,-9.617507934570312,2.1140801906585693,0.1678466796875,-1.251220703125,-0.1068115234375
6.3899999,1.3479355573654175,-9.619902610778809,2.118868589401245,-0.091552734375,-1.220703125,-0.18310546875
6.409999900000001,1.3455413579940796,-9.617507934570312,2.118868589401245,-0.1983642578125,-1.2969970703125,-0.18310546875
6.4299999,1.3479355573654175,-9.617507934570312,2.121262788772583,0.244140625,-1.312255859375,-0.2288818359375
6.449999900000001,1.3479355573654175,-9.612719535827637,2.121262788772583,0.3509521484375,-1.312255859375,-0.1983642578125
6.4699999,1.3503297567367554,-9.610325813293457,2.123656988143921,-0.030517578125,-1.3885498046875,-0.1678466796875
6.489999900000001,1.3455413579940796,-9.610325813293457,2.123656988143921,-0.3662109375,-1.3580322265625,-0.213623046875
6.5099999,1.3431471586227417,-9.610325813293457,2.123656988143921,-0.1220703125,-1.312255859375,-0.1983642578125
6.529999900000001,1.3431471586227417,-9.612719535827637,2.118868589401245,0.244140625,-1.2969970703125,-0.1220703125
6.5499999,1.3479355573654175,-9.612719535827637,2.1116859912872314,0.3662109375,-1.3275146484375,-0.091552734375
6.569999900000001,1.3527239561080933,-9.615114212036133,2.1092917919158936,0.1678466796875,-1.2054443359375,-0.152587890625
6.5899999000000005,1.3527239561080933,-9.612719535827637,2.1116859912872314,-0.091552734375,-1.28173828125,-0.18310546875
6.609999900000001,1.3527239561080933,-9.607931137084961,2.121262788772583,-0.030517578125,-1.312255859375,-0.1068115234375
6.6299999000000005,1.3503297567367554,-9.603142738342285,2.1284453868865967,0.030517578125,-1.2969970703125,-0.1678466796875
6.649999900000001,1.3503297567367554,-9.603142738342285,2.1356279850006104,0.1678466796875,-1.3427734375,-0.18310546875
6.6699999000000005,1.3479355573654175,-9.605537414550781,2.1356279850006104,-0.1220703125,-1.3580322265625,-0.1373291015625
6.6899999,1.3479355573654175,-9.607931137084961,2.1308395862579346,-0.18310546875,-1.312255859375,-0.091552734375
6.709999900000001,1.3479355573654175,-9.610325813293457,2.123656988143921,-0.1678466796875,-1.2969970703125,-0.06103515625
6.7299999,1.3503297567367554,-9.612719535827637,2.118868589401245,0.2899169921875,-1.2969970703125,-0.1068115234375
6.749999900000001,1.3503297567367554,-9.612719535827637,2.1164743900299072,0.18310546875,-1.2969970703125,-0.1983642578125
6.7699999,1.3503297567367554,-9.612719535827637,2.1164743900299072,0.0152587890625,-1.3427734375,-0.0762939453125
6.789999900000001,1.3479355573654175,-9.610325813293457,2.121262788772583,-0.091552734375,-1.28173828125,-0.1373291015625
6.8099999,1.3455413579940796,-9.607931137084961,2.123656988143921,0,-1.3275146484375,-0.152587890625
6.829999900000001,1.3431471586227417,-9.607931137084961,2.1284453868865967,0.06103515625,-1.3275146484375,-0.18310546875
6.8499999,1.3455413579940796,-9.605537414550781,2.1308395862579346,0.1373291015625,-1.2664794921875,-0.1678466796875
6.869999900000001,1.3479355573654175,-9.605537414550781,2.1332337856292725,-0.0152587890625,-1.3427734375,-0.1373291015625
6.8899999,1.3503297567367554,-9.605537414550781,2.1308395862579346,-0.1983642578125,-1.3275146484375,-0.152587890625
6.909999900000001,1.3503297567367554,-9.607931137084961,2.1284453868865967,-0.091552734375,-1.3427734375,-0.091552734375
6.9299999,1.3479355573654175,-9.610325813293457,2.123656988143921,0.1220703125,-1.2664794921875,-0.18310546875
6.949999900000001,1.3455413579940796,-9.612719535827637,2.118868589401245,0.18310546875,-1.2359619140625,-0.1373291015625
6.9699999,1.3431471586227417,-9.610325813293457,2.118868589401245,-0.0457763671875,-1.373291015625,-0.091552734375
6.989999900000001,1.3455413579940796,-9.607931137084961,2.123656988143921,-0.1373291015625,-1.373291015625,-0.1068115234375
7.0099999,1.3455413579940796,-9.605537414550781,2.126051187515259,-0.1220703125,-1.3275146484375,-0.1373291015625
7.029999900000001,1.3479355573654175,-9.600749015808105,2.1308395862579346,0.0457763671875,-1.28173828125,-0.152587890625
7.0499999,1.3479355573654175,-9.603142738342285,2.1308395862579346,0.030517578125,-1.3580322265625,-0.1678466796875
7.069999900000001,1.3455413579940796,-9.600749015808105,2.1284453868865967,-0.030517578125,-1.3580322265625,-0.1373291015625
7.0899999000000005,1.3455413579940796,-9.603142738342285,2.126051187515259,-0.091552734375,-1.28173828125,-0.1373291015625
7.109999900000001,1.3431471586227417,-9.605537414550781,2.121262788772583,-0.0762939453125,-1.312255859375,-0.1678466796875
7.1299999000000005,1.3455413579940796,-9.607931137084961,2.121262788772583,0.030517578125,-1.3275146484375,-0.1373291015625
7.149999900000001,1.3455413579940796,-9.607931137084961,2.121262788772583,0.091552734375,-1.2359619140625,-0.1983642578125
7.1699999000000005,1.3455413579940796,-9.607931137084961,2.126051187515259,0.030517578125,-1.28173828125,-0.1983642578125
7.1899999,1.3455413579940796,-9.607931137084961,2.126051187515259,-0.1678466796875,-1.3275146484375,-0.18310546875
7.209999900000001,1.3479355573654175,-9.610325813293457,2.126051187515259,-0.0762939453125,-1.3427734375,-0.1678466796875
7.2299999,1.3479355573654175,-9.610325813293457,2.118868589401245,0.1220703125,-1.3580322265625,-0.1373291015625
7.249999900000001,1.3479355573654175,-9.607931137084961,2.1164743900299072,0.0457763671875,-1.373291015625,-0.18310546875
7.2699999,1.3503297567367554,-9.607931137084961,2.1140801906585693,-0.030517578125,-1.28173828125,-0.2288818359375
7.289999900000001,1.3479355573654175,-9.607931137084961,2.1164743900299072,-0.1983642578125,-1.3275146484375,-0.1983642578125
7.3099999,1.3503297567367554,-9.603142738342285,2.118868589401245,-0.0457763671875,-1.3427734375,-0.1983642578125
7.329999900000001,1.3503297567367554,-9.603142738342285,2.121262788772583,0.1068115234375,-1.2359619140625,-0.152587890625
7.3499999,1.3479355573654175,-9.603142738342285,2.126051187515259,0.1220703125,-1.2664794921875,-0.06103515625
7.369999900000001,1.3479355573654175,-9.603142738342285,2.126051187515259,0.030517578125,-1.2969970703125,-0.1220703125
7.3899999,1.3455413579940796,-9.603142738342285,2.1308395862579346,-0.1678466796875,-1.251220703125,-0.1678466796875
7.409999900000001,1.3455413579940796,-9.605537414550781,2.1308395862579346,-0.18310546875,-1.3275146484375,-0.1678466796875
7.4299999,1.3455413579940796,-9.605537414550781,2.1284453868865967,-0.030517578125,-1.3275146484375,-0.18310546875
7.449999900000001,1.3479355573654175,-9.607931137084961,2.123656988143921,0.1983642578125,-1.28173828125,-0.1220703125
7.4699999,1.3479355573654175,-9.610325813293457,2.121262788772583,0.0762939453125,-1.2664794921875,-0.1220703125
7.489999900000001,1.3479355573654175,-9.610325813293457,2.118868589401245,-0.152587890625,-1.3275146484375,-0.1220703125
7.5099999,1.3479355573654175,-9.607931137084961,2.121262788772583,-0.0762939453125,-1.3580322265625,-0.06103515625
7.529999900000001,1.3479355573654175,-9.607931137084961,2.126051187515259,0.1678466796875,-1.312255859375,-0.0457763671875
7.5499999,1.3503297567367554,-9.605537414550781,2.1308395862579346,0.091552734375,-1.3427734375,-0.1220703125
7.569999900000001,1.3527239561080933,-9.603142738342285,2.1332337856292725,-0.1373291015625,-1.3275146484375,-0.1220703125
7.5899999000000005,1.3503297567367554,-9.603142738342285,2.1332337856292725,-0.1373291015625,-1.3427734375,-0.213623046875
7.609999900000001,1.3503297567367554,-9.603142738342285,2.1284453868865967,-0.0152587890625,-1.2664794921875,-0.18310546875
7.6299999000000005,1.3503297567367554,-9.605537414550781,2.123656988143921,0.1068115234375,-1.2969970703125,-0.1678466796875
7.649999900000001,1.3527239561080933,-9.607931137084961,2.118868589401245,0.06103515625,-1.2969970703125,-0.152587890625
7.6699999000000005,1.3551181554794312,-9.607931137084961,2.118868589401245,0.1220703125,-1.312255859375,-0.1373291015625
7.6899999,1.3551181554794312,-9.607931137084961,2.121262788772583,-0.0762939453125,-1.312255859375,-0.1373291015625
7.709999900000001,1.3527239561080933,-9.605537414550781,2.123656988143921,-0.0457763671875,-1.3275146484375,-0.091552734375
7.7299999,1.3503297567367554,-9.603142738342285,2.126051187515259,-0.030517578125,-1.312255859375,-0.213623046875
7.749999900000001,1.3503297567367554,-9.603142738342285,2.126051187515259,0.06103515625,-1.251220703125,-0.1983642578125
7.7699999,1.3479355573654175,-9.600749015808105,2.126051187515259,0,-1.2969970703125,-0.18310546875
7.789999900000001,1.3479355573654175,-9.603142738342285,2.123656988143921,-0.06103515625,-1.3427734375,-0.06103515625
7.8099999,1.3503297567367554,-9.603142738342285,2.123656988143921,-0.1068115234375,-1.2969970703125,-0.18310546875
7.829999900000001,1.3503297567367554,-9.605537414550781,2.123656988143921,0,-1.2969970703125,-0.152587890625
7.8499999,1.3527239561080933,-9.605537414550781,2.121262788772583,0.18310546875,-1.312255859375,-0.06103515625
7.869999900000001,1.3551181554794312,-9.607931137084961,2.118868589401245,0.1983642578125,-1.3275146484375,-0.18310546875
7.8899999,1.3551181554794312,-9.607931137084961,2.118868589401245,0.0762939453125,-1.3580322265625,-0.18310546875
7.909999900000001,1.3551181554794312,-9.605537414550781,2.118868589401245,-0.06103515625,-1.3580322265625,-0.1220703125
7.9299999,1.3551181554794312,-9.603142738342285,2.126051187515259,0.0762939453125,-1.3275146484375,-0.2288818359375
7.949999900000001,1.3551181554794312,-9.600749015808105,2.1308395862579346,0.030517578125,-1.3580322265625,-0.1983642578125
7.9699999,1.3527239561080933,-9.600749015808105,2.1332337856292725,-0.0152587890625,-1.2969970703125,-0.152587890625
7.989999900000001,1.3527239561080933,-9.603142738342285,2.1332337856292725,-0.0762939453125,-1.2969970703125,-0.2288818359375
8.0099999,1.3503297567367554,-9.603142738342285,2.1284453868865967,-0.0152587890625,-1.3275146484375,-0.152587890625
8.0299999,1.3503297567367554,-9.605537414550781,2.121262788772583,0.0457763671875,-1.3275146484375,-0.1983642578125
8.049999900000001,1.3503297567367554,-9.605537414550781,2.1164743900299072,0.1068115234375,-1.3580322265625,-0.18310546875
8.069999900000001,1.3527239561080933,-9.605537414550781,2.1164743900299072,0.0457763671875,-1.2969970703125,-0.1678466796875
8.0899999,1.3527239561080933,-9.605537414550781,2.118868589401245,0.1068115234375,-1.28173828125,-0.1220703125
8.1099999,1.3503297567367554,-9.605537414550781,2.123656988143921,0.0152587890625,-1.3275146484375,-0.1373291015625
8.129999900000001,1.3455413579940796,-9.603142738342285,2.1284453868865967,-0.030517578125,-1.3427734375,-0.1678466796875
8.149999900000001,1.3431471586227417,-9.605537414550781,2.1284453868865967,-0.0152587890625,-1.3885498046875,-0.1373291015625
8.1699999,1.3431471586227417,-9.603142738342285,2.1284453868865967,0.1678466796875,-1.373291015625,-0.1220703125
8.1899999,1.3455413579940796,-9.605537414550781,2.1284453868865967,0.030517578125,-1.3580322265625,-0.18310546875
8.2099999,1.3479355573654175,-9.607931137084961,2.126051187515259,-0.0457763671875,-1.28173828125,-0.1220703125
8.229999900000001,1.3503297567367554,-9.607931137084961,2.126051187515259,-0.1373291015625,-1.2969970703125,-0.152587890625
8.2499999,1.3479355573654175,-9.607931137084961,2.126051187515259,0.0762939453125,-1.3885498046875,-0.1983642578125
8.2699999,1.3455413579940796,-9.607931137084961,2.126051187515259,0.1220703125,-1.312255859375,-0.1068115234375
8.2899999,1.3455413579940796,-9.607931137084961,2.1284453868865967,0.0762939453125,-1.2969970703125,-0.1220703125
8.309999900000001,1.3455413579940796,-9.607931137084961,2.1308395862579346,-0.0457763671875,-1.2969970703125,-0.18310546875
8.3299999,1.3455413579940796,-9.607931137084961,2.1356279850006104,-0.1373291015625,-1.28173828125,-0.1068115234375
8.3499999,1.3479355573654175,-9.605537414550781,2.1356279850006104,0.091552734375,-1.3580322265625,-0.1220703125
8.3699999,1.3479355573654175,-9.605537414550781,2.1332337856292725,0.1220703125,-1.312255859375,-0.18310546875
8.389999900000001,1.3479355573654175,-9.605537414550781,2.1308395862579346,0.030517578125,-1.3275146484375,-0.1373291015625
8.4099999,1.3455413579940796,-9.605537414550781,2.1284453868865967,-0.0457763671875,-1.28173828125,-0.1678466796875
8.4299999,1.3431471586227417,-9.605537414550781,2.126051187515259,-0.1068115234375,-1.2664794921875,-0.1068115234375
8.4499999,1.3455413579940796,-9.603142738342285,2.1284453868865967,0.0762939453125,-1.251220703125,-0.091552734375
8.469999900000001,1.3479355573654175,-9.603142738342285,2.1284453868865967,0.0762939453125,-1.3580322265625,-0.1220703125
8.4899999,1.3503297567367554,-9.603142738342285,2.1332337856292725,0.0152587890625,-1.2969970703125,-0.1983642578125
8.5099999,1.3503297567367554,-9.605537414550781,2.1332337856292725,-0.0762939453125,-1.2969970703125,-0.1678466796875
8.5299999,1.3503297567367554,-9.607931137084961,2.1332337856292725,-0.0762939453125,-1.2969970703125,-0.213623046875
8.549999900000001,1.3479355573654175,-9.607931137084961,2.1308395862579346,0.0762939453125,-1.2664794921875,-0.18310546875
8.569999900000001,1.3479355573654175,-9.607931137084961,2.1284453868865967,0.1983642578125,-1.312255859375,-0.213623046875
8.5899999,1.3503297567367554,-9.607931137084961,2.1284453868865967,0.030517578125,-1.3580322265625,-0.1373291015625
8.6099999,1.3479355573654175,-9.607931137084961,2.1308395862579346,-0.152587890625,-1.3275146484375,-0.2593994140625
8.629999900000001,1.3455413579940796,-9.607931137084961,2.1284453868865967,-0.1373291015625,-1.312255859375,-0.18310546875
8.649999900000001,1.3407529592514038,-9.610325813293457,2.123656988143921,0.1068115234375,-1.2969970703125,-0.1373291015625
8.6699999,1.3431471586227417,-9.610325813293457,2.118868589401245,0.2899169921875,-1.2969970703125,-0.1068115234375
8.6899999,1.3455413579940796,-9.607931137084961,2.1164743900299072,-0.091552734375,-1.2664794921875,-0.1373291015625
8.709999900000001,1.3503297567367554,-9.605537414550781,2.1164743900299072,-0.2899169921875,-1.373291015625,-0.18310546875
8.729999900000001,1.3527239561080933,-9.603142738342285,2.1164743900299072,-0.091552734375,-1.3580322265625,-0.244140625
8.7499999,1.3503297567367554,-9.603142738342285,2.1164743900299072,0.335693359375,-1.3275146484375,-0.152587890625
8.7699999,1.3503297567367554,-9.605537414550781,2.1164743900299072,0.2899169921875,-1.2664794921875,-0.1068115234375
8.7899999,1.3479355573654175,-9.605537414550781,2.118868589401245,0.06103515625,-1.312255859375,-0.091552734375
8.809999900000001,1.3479355573654175,-9.603142738342285,2.123656988143921,-0.1373291015625,-1.28173828125,-0.152587890625
8.8299999,1.3503297567367554,-9.603142738342285,2.1284453868865967,-0.030517578125,-1.3275146484375,-0.213623046875
8.8499999,1.3527239561080933,-9.603142738342285,2.1308395862579346,0.1983642578125,-1.312255859375,-0.18310546875
8.8699999,1.3527239561080933,-9.605537414550781,2.1284453868865967,0.2593994140625,-1.312255859375,-0.152587890625
8.889999900000001,1.3503297567367554,-9.610325813293457,2.1284453868865967,0,-1.3885498046875,-0.1068115234375
8.9099999,1.3479355573654175,-9.610325813293457,2.1284453868865967,-0.244140625,-1.312255859375,-0.152587890625
8.9299999,1.3503297567367554,-9.610325813293457,2.1284453868865967,-0.18310546875,-1.28173828125,-0.18310546875
8.9499999,1.3503297567367554,-9.610325813293457,2.123656988143921,0.274658203125,-1.2969970703125,-0.18310546875
8.969999900000001,1.3527239561080933,-9.607931137084961,2.121262788772583,0.2288818359375,-1.312255859375,-0.1983642578125
8.9899999,1.3527239561080933,-9.607931137084961,2.121262788772583,-0.091552734375,-1.2969970703125,-0.1373291015625
9.0099999,1.3503297567367554,-9.605537414550781,2.126051187515259,-0.244140625,-1.3275146484375,-0.0762939453125
9.0299999,1.3503297567367554,-9.605537414550781,2.1308395862579346,-0.0457763671875,-1.3275146484375,-0.152587890625
9.049999900000001,1.3479355573654175,-9.605537414550781,2.1356279850006104,0.1983642578125,-1.3427734375,-0.1220703125
9.069999900000001,1.3455413579940796,-9.605537414550781,2.1356279850006104,0.091552734375,-1.373291015625,-0.213623046875
9.0899999,1.3407529592514038,-9.607931137084961,2.1332337856292725,-0.1373291015625,-1.3275146484375,-0.152587890625
9.1099999,1.3407529592514038,-9.607931137084961,2.1284453868865967,-0.1068115234375,-1.2969970703125,-0.091552734375
9.129999900000001,1.3431471586227417,-9.607931137084961,2.123656988143921,0.091552734375,-1.3885498046875,-0.152587890625
9.149999900000001,1.3455413579940796,-9.607931137084961,2.123656988143921,0.2288818359375,-1.312255859375,-0.1220703125
9.1699999,1.3503297567367554,-9.607931137084961,2.121262788772583,0.1678466796875,-1.3580322265625,-0.1068115234375
9.1899999,1.3527239561080933,-9.605537414550781,2.123656988143921,0.0457763671875,-1.2969970703125,-0.1220703125
9.209999900000001,1.3551181554794312,-9.603142738342285,2.126051187515259,-0.1373291015625,-1.312255859375,-0.1220703125
9.229999900000001,1.3527239561080933,-9.600749015808105,2.1284453868865967,-0.030517578125,-1.312255859375,-0.1373291015625
9.2499999,1.3551181554794312,-9.603142738342285,2.1284453868865967,0.0762939453125,-1.312255859375,-0.152587890625
9.2699999,1.3503297567367554,-9.605537414550781,2.126051187515259,0.1373291015625,-1.3275146484375,-0.152587890625
9.2899999,1.3503297567367554,-9.610325813293457,2.123656988143921,0.030517578125,-1.2969970703125,-0.2288818359375
9.309999900000001,1.3479355573654175,-9.612719535827637,2.121262788772583,-0.030517578125,-1.312255859375,-0.18310546875
9.3299999,1.3503297567367554,-9.612719535827637,2.121262788772583,0.0762939453125,-1.3427734375,-0.1678466796875
9.3499999,1.3503297567367554,-9.612719535827637,2.121262788772583,0.0762939453125,-1.3580322265625,-0.1678466796875
9.3699999,1.3527239561080933,-9.610325813293457,2.121262788772583,0.1678466796875,-1.312255859375,-0.18310546875
9.389999900000001,1.3527239561080933,-9.612719535827637,2.118868589401245,0.1678466796875,-1.3275146484375,-0.1220703125
9.4099999,1.3527239561080933,-9.612719535827637,2.1164743900299072,0.0762939453125,-1.2359619140625,-0.1678466796875
9.4299999,1.3551181554794312,-9.612719535827637,2.118868589401245,0.48828125,-1.251220703125,-0.0762939453125
9.4499999,1.359906554222107,-9.610325813293457,2.123656988143921,0.3204345703125,-1.251220703125,-0.091552734375
9.469999900000001,1.359906554222107,-9.605537414550781,2.1308395862579346,0.2899169921875,-1.2359619140625,-0.030517578125
9.4899999,1.359906554222107,-9.600749015808105,2.140416383743286,-0.18310546875,-1.220703125,-0.152587890625
9.5099999,1.357512354850769,-9.600749015808105,2.142810583114624,-0.0152587890625,-1.2359619140625,-0.18310546875
9.5299999,1.3503297567367554,-9.603142738342285,2.1380221843719482,0.30517578125,-1.2969970703125,-0.1068115234375
9.549999900000001,1.3455413579940796,-9.607931137084961,2.1284453868865967,0.1983642578125,-1.2969970703125,-0.06103515625
9.569999900000001,1.3407529592514038,-9.612719535827637,2.121262788772583,0.2899169921875,-1.28173828125,-0.06103515625
9.5899999,1.3407529592514038,-9.615114212036133,2.121262788772583,-0.091552734375,-1.312255859375,-0.091552734375
9.6099999,1.3407529592514038,-9.615114212036133,2.126051187515259,0.1373291015625,-1.3275146484375,-0.06103515625
9.629999900000001,1.338358759880066,-9.612719535827637,2.1308395862579346,0.091552734375,-1.3427734375,-0.1220703125
9.649999900000001,1.338358759880066,-9.610325813293457,2.1332337856292725,0.1983642578125,-1.28173828125,-0.1373291015625
9.6699999,1.338358759880066,-9.610325813293457,2.1356279850006104,-0.0152587890625,-1.28173828125,-0.1373291015625
9.6899999,1.3407529592514038,-9.610325813293457,2.1356279850006104,-0.06103515625,-1.3275146484375,-0.1220703125
9.709999900000001,1.3455413579940796,-9.610325813293457,2.1332337856292725,-0.1068115234375,-1.2969970703125,-0.18310546875
9.729999900000001,1.3503297567367554,-9.612719535827637,2.1308395862579346,0.244140625,-1.3580322265625,-0.1068115234375
9.7499999,1.3527239561080933,-9.615114212036133,2.123656988143921,0.42724609375,-1.3275146484375,-0.091552734375
9.7699999,1.3479355573654175,-9.617507934570312,2.121262788772583,0.2899169921875,-1.2969970703125,-0.1220703125
9.7899999,1.3431471586227417,-9.615114212036133,2.121262788772583,0.030517578125,-1.3427734375,-0.1068115234375
9.809999900000001,1.3407529592514038,-9.610325813293457,2.123656988143921,0.274658203125,-1.312255859375,-0.1068115234375
9.8299999,1.3407529592514038,-9.607931137084961,2.1284453868865967,0.5035400390625,-1.2969970703125,0
9.8499999,1.3431471586227417,-9.603142738342285,2.1332337856292725,0.3814697265625,-1.251220703125,-0.06103515625
9.8699999,1.3479355573654175,-9.600749015808105,2.140416383743286,0.3509521484375,-1.2664794921875,-0.1220703125
9.889999900000001,1.3479355573654175,-9.593565940856934,2.1499931812286377,-0.1220703125,-1.3275146484375,-0.213623046875
9.9099999,1.3503297567367554,-9.591172218322754,2.1547815799713135,-0.030517578125,-1.312255859375,-0.1678466796875
9.9299999,1.3503297567367554,-9.591172218322754,2.1523873805999756,0.1678466796875,-1.28173828125,-0.1678466796875
9.9499999,1.3503297567367554,-9.59596061706543,2.145204782485962,0.396728515625,-1.2969970703125,-0.06103515625
9.969999900000001,1.3455413579940796,-9.59835433959961,2.140416383743286,0.091552734375,-1.2969970703125,-0.091552734375
9.9899999,1.3407529592514038,-9.603142738342285,2.1356279850006104,-0.1220703125,-1.251220703125,-0.1068115234375
10.0099999,1.338358759880066,-9.603142738342285,2.1380221843719482,0.0457763671875,-1.3885498046875,-0.1068115234375
10.0299999,1.335964560508728,-9.603142738342285,2.142810583114624,0.30517578125,-1.2969970703125,-0.1678466796875
10.049999900000001,1.3431471586227417,-9.603142738342285,2.145204782485962,0.3509521484375,-1.2664794921875,-0.1068115234375
10.069999900000001,1.3431471586227417,-9.600749015808105,2.1499931812286377,0.0762939453125,-1.3275146484375,-0.0152587890625
10.0899999,1.3431471586227417,-9.600749015808105,2.1523873805999756,-0.2899169921875,-1.3427734375,-0.1373291015625
10.1099999,1.3407529592514038,-9.600749015808105,2.1523873805999756,-0.152587890625,-1.3275146484375,-0.1220703125
10.129999900000001,1.3431471586227417,-9.605537414550781,2.1499931812286377,0.244140625,-1.3580322265625,-0.1068115234375
10.149999900000001,1.3455413579940796,-9.607931137084961,2.145204782485962,0.396728515625,-1.3427734375,-0.1220703125
10.1699999,1.3479355573654175,-9.610325813293457,2.145204782485962,0.1373291015625,-1.3275146484375,-0.091552734375
10.1899999,1.3455413579940796,-9.607931137084961,2.145204782485962,-0.335693359375,-1.2969970703125,-0.1220703125
10.209999900000001,1.3431471586227417,-9.607931137084961,2.145204782485962,-0.1373291015625,-1.3580322265625,-0.1373291015625
10.229999900000001,1.3407529592514038,-9.605537414550781,2.142810583114624,0.3814697265625,-1.3427734375,-0.1373291015625
10.2499999,1.338358759880066,-9.603142738342285,2.142810583114624,0.54931640625,-1.28173828125,-0.091552734375
10.2699999,1.338358759880066,-9.603142738342285,2.145204782485962,-0.1220703125,-1.190185546875,-0.1678466796875
10.2899999,1.338358759880066,-9.603142738342285,2.1523873805999756,-0.6561279296875,-1.28173828125,-0.213623046875
10.309999900000001,1.3407529592514038,-9.605537414550781,2.1547815799713135,-0.335693359375,-1.3427734375,-0.1220703125
10.3299999,1.3455413579940796,-9.607931137084961,2.1547815799713135,0.2593994140625,-1.3427734375,-0.2288818359375
10.3499999,1.3455413579940796,-9.607931137084961,2.1523873805999756,0.42724609375,-1.3427734375,-0.0762939453125
10.3699999,1.3431471586227417,-9.605537414550781,2.1523873805999756,-0.1678466796875,-1.2664794921875,-0.152587890625
10.389999900000001,1.3407529592514038,-9.600749015808105,2.1547815799713135,-0.79345703125,-1.2969970703125,-0.3204345703125
10.4099999,1.338358759880066,-9.59835433959961,2.1547815799713135,-0.54931640625,-1.312255859375,-0.3204345703125
10.4299999,1.3407529592514038,-9.59835433959961,2.1523873805999756,0.3204345703125,-1.3427734375,-0.2593994140625
10.4499999,1.3431471586227417,-9.600749015808105,2.145204782485962,0.3204345703125,-1.3275146484375,-0.244140625
10.469999900000001,1.3431471586227417,-9.605537414550781,2.140416383743286,-0.2899169921875,-1.312255859375,-0.152587890625
10.4899999,1.3431471586227417,-9.607931137084961,2.1356279850006104,-0.762939453125,-1.312255859375,-0.1678466796875
10.5099999,1.3407529592514038,-9.610325813293457,2.1332337856292725,-0.1983642578125,-1.28173828125,-0.18310546875
10.5299999,1.3431471586227417,-9.610325813293457,2.1284453868865967,0.48828125,-1.251220703125,-0.152587890625
10.549999900000001,1.3455413579940796,-9.610325813293457,2.1284453868865967,0.457763671875,-1.28173828125,-0.1373291015625
10.569999900000001,1.3455413579940796,-9.607931137084961,2.1308395862579346,-0.1068115234375,-1.251220703125,-0.1373291015625
10.5899999,1.3407529592514038,-9.607931137084961,2.1380221843719482,-0.5950927734375,-1.28173828125,-0.1983642578125
10.6099999,1.3407529592514038,-9.603142738342285,2.142810583114624,-0.2593994140625,-1.3275146484375,-0.18310546875
10.629999900000001,1.3407529592514038,-9.59835433959961,2.1523873805999756,0.4119873046875,-1.40380859375,-0.1678466796875
10.649999900000001,1.3431471586227417,-9.591172218322754,2.161964178085327,0.030517578125,-1.312255859375,-0.274658203125
10.6699999,1.3503297567367554,-9.593565940856934,2.164358377456665,-0.7781982421875,-1.312255859375,-0.335693359375
10.6899999,1.3503297567367554,-9.59835433959961,2.1547815799713135,-0.54931640625,-1.373291015625,-0.2288818359375
10.709999900000001,1.3479355573654175,-9.610325813293457,2.1380221843719482,0.30517578125,-1.2664794921875,-0.1068115234375
10.729999900000001,1.3431471586227417,-9.617507934570312,2.121262788772583,0.8087158203125,-1.2359619140625,-0.091552734375
10.7499999,1.338358759880066,-9.619902610778809,2.1140801906585693,0.06103515625,-1.312255859375,-0.1373291015625
10.7699999,1.3407529592514038,-9.615114212036133,2.126051187515259,-0.457763671875,-1.3427734375,-0.1373291015625
10.7899999,1.3455413579940796,-9.605537414550781,2.142810583114624,-0.152587890625,-1.373291015625,-0.213623046875
10.809999900000001,1.3503297567367554,-9.600749015808105,2.1499931812286377,0.244140625,-1.3275146484375,-0.1678466796875
10.8299999,1.3503297567367554,-9.600749015808105,2.1523873805999756,0.274658203125,-1.2969970703125,-0.152587890625
10.8499999,1.3455413579940796,-9.600749015808105,2.1523873805999756,-0.1983642578125,-1.3427734375,-0.18310546875
10.8699999,1.3431471586227417,-9.603142738342285,2.1475989818573,-0.3204345703125,-1.3885498046875,-0.1678466796875
10.889999900000001,1.3455413579940796,-9.605537414550781,2.140416383743286,-0.1068115234375,-1.3580322265625,-0.1983642578125
10.9099999,1.3503297567367554,-9.605537414550781,2.1308395862579346,0.5340576171875,-1.3275146484375,-0.1373291015625
10.9299999,1.3527239561080933,-9.607931137084961,2.126051187515259,0.2288818359375,-1.2664794921875,-0.0762939453125
10.9499999,1.3503297567367554,-9.610325813293457,2.126051187515259,-0.1983642578125,-1.220703125,-0.1220703125
10.969999900000001,1.3479355573654175,-9.610325813293457,2.1284453868865967,-0.3204345703125,-1.3275146484375,-0.152587890625
10.9899999,1.3455413579940796,-9.605537414550781,2.1356279850006104,0.3814697265625,-1.220703125,-0.18310546875
11.0099999,1.3479355573654175,-9.600749015808105,2.145204782485962,0.396728515625,-1.2969970703125,-0.1678466796875
11.0299999,1.3455413579940796,-9.59835433959961,2.1523873805999756,-0.213623046875,-1.3427734375,-0.2288818359375
11.049999900000001,1.3455413579940796,-9.59835433959961,2.1547815799713135,-0.4425048828125,-1.3580322265625,-0.2593994140625
11.069999900000001,1.335964560508728,-9.734824180603027,2.140416383743286,0.3814697265625,-1.4495849609375,-1.800537109375
11.0899999,1.3503297567367554,-9.708487510681152,2.1380221843719482,14.9078369140625,-3.5552978515625,-20.4925537109375
11.1099999,1.3551181554794312,-9.806650161743164,2.1116859912872314,14.617919921875,-4.2572021484375,-11.7645263671875
11.129999900000001,1.4221558570861816,-9.514557838439941,2.161964178085327,21.820068359375,-2.1820068359375,-14.95361328125
11.149999900000001,1.4460978507995605,-9.478644371032715,2.1739351749420166,-18.402099609375,1.953125,21.148681640625
11.1699999,1.4628572463989258,-9.299078941345215,2.2649147510528564,-9.490966796875,6.195068359375,33.2794189453125
11.1899999,1.4173674583435059,-9.425971984863281,2.2433669567108154,-2.9296875,-0.4730224609375,-1.708984375
11.209999900000001,1.3886369466781616,-9.514557838439941,2.3104045391082764,10.4217529296875,-1.2664794921875,-17.333984375
11.229999900000001,1.3335703611373901,-9.63187313079834,2.2697031497955322,1.220703125,-1.28173828125,-1.6021728515625
11.2499999,1.3479355573654175,-9.62947940826416,2.276885747909546,-2.899169921875,-1.3427734375,1.4801025390625
11.2699999,1.3646949529647827,-9.619902610778809,2.2601263523101807,0.6561279296875,-1.312255859375,-0.3509521484375
11.2899999,1.3766659498214722,-9.605537414550781,2.2409727573394775,2.9296875,-1.3275146484375,-0.18310546875
11.309999900000001,1.3862427473068237,-9.593565940856934,2.231395959854126,0.1678466796875,-1.3275146484375,-0.0152587890625
11.3299999,1.3886369466781616,-9.581595420837402,2.231395959854126,-1.3275146484375,-1.2359619140625,-0.1373291015625
11.3499999,1.3886369466781616,-9.57201862335205,2.2409727573394775,-1.4495849609375,-1.28173828125,-0.0762939453125
11.3699999,1.3838485479354858,-9.567230224609375,2.2457611560821533,0.7171630859375,-1.251220703125,-0.1373291015625
11.389999900000001,1.3838485479354858,-9.567230224609375,2.248155355453491,1.1138916015625,-1.251220703125,-0.1678466796875
11.4099999,1.3838485479354858,-9.569623947143555,2.252943754196167,0.54931640625,-1.3427734375,-0.152587890625
11.4299999,1.3862427473068237,-9.569623947143555,2.255337953567505,-0.91552734375,-1.2359619140625,-0.1678466796875
11.4499999,1.3838485479354858,-9.57201862335205,2.255337953567505,-0.8087158203125,-1.28173828125,-0.1220703125
11.469999900000001,1.381454348564148,-9.57201862335205,2.250549554824829,0.18310546875,-1.3580322265625,-0.18310546875
11.4899999,1.37906014919281,-9.57441234588623,2.2457611560821533,1.0986328125,-1.40380859375,-0.1373291015625
11.5099999,1.3766659498214722,-9.57441234588623,2.2457611560821533,0.457763671875,-1.3427734375,-0.152587890625
11.5299999,1.37906014919281,-9.576807022094727,2.252943754196167,-0.54931640625,-1.2969970703125,-0.18310546875
11.549999900000001,1.37906014919281,-9.576807022094727,2.2577321529388428,-0.7171630859375,-1.3427734375,-0.1068115234375
11.569999900000001,1.381454348564148,-9.576807022094727,2.2601263523101807,0.18310546875,-1.2969970703125,-0.1678466796875
11.5899999,1.3838485479354858,-9.576807022094727,2.2577321529388428,0.6866455078125,-1.2969970703125,-0.152587890625
11.6099999,1.3838485479354858,-9.576807022094727,2.255337953567505,0.244140625,-1.2969970703125,-0.1373291015625
11.629999900000001,1.3838485479354858,-9.576807022094727,2.248155355453491,-0.5645751953125,-1.3427734375,-0.1220703125
11.649999900000001,1.3838485479354858,-9.576807022094727,2.2433669567108154,-0.2899169921875,-1.312255859375,-0.1220703125
11.6699999,1.3862427473068237,-9.579200744628906,2.2409727573394775,0.3814697265625,-1.312255859375,-0.152587890625
11.6899999,1.3886369466781616,-9.579200744628906,2.2385785579681396,0.4119873046875,-1.3580322265625,-0.152587890625
11.709999900000001,1.3862427473068237,-9.581595420837402,2.2409727573394775,0.18310546875,-1.312255859375,-0.18310546875
11.729999900000001,1.3838485479354858,-9.579200744628906,2.2457611560821533,-0.0762939453125,-1.251220703125,-0.1220703125
11.7499999,1.3838485479354858,-9.579200744628906,2.248155355453491,-0.18310546875,-1.2969970703125,-0.06103515625
11.7699999,1.3838485479354858,-9.576807022094727,2.248155355453491,0.0762939453125,-1.3275146484375,-0.1373291015625
11.7899999,1.3838485479354858,-9.57441234588623,2.2577321529388428,0.48828125,-1.2359619140625,-0.152587890625
11.809999900000001,1.3838485479354858,-9.57441234588623,2.255337953567505,0.5950927734375,-1.190185546875,-0.1983642578125
11.8299999,1.3838485479354858,-9.57201862335205,2.2601263523101807,-0.3662109375,-1.3427734375,-0.18310546875
11.8499999,1.3862427473068237,-9.57441234588623,2.255337953567505,-0.42724609375,-1.40380859375,-0.06103515625
11.8699999,1.3838485479354858,-9.57441234588623,2.252943754196167,0.3662109375,-1.28173828125,-0.091552734375
11.889999900000001,1.3838485479354858,-9.57441234588623,2.252943754196167,0.4730224609375,-1.2664794921875,-0.1678466796875
11.9099999,1.381454348564148,-9.57441234588623,2.250549554824829,-0.06103515625,-1.3580322265625,-0.1678466796875
11.9299999,1.381454348564148,-9.57441234588623,2.255337953567505,-0.18310546875,-1.28173828125,-0.1983642578125
11.9499999,1.381454348564148,-9.576807022094727,2.2577321529388428,-0.0457763671875,-1.3275146484375,-0.18310546875
11.969999900000001,1.3838485479354858,-9.576807022094727,2.255337953567505,0.0152587890625,-1.3427734375,-0.091552734375
11.9899999,1.3862427473068237,-9.576807022094727,2.250549554824829,0.0457763671875,-1.3275146484375,-0.1678466796875
12.0099999,1.381454348564148,-9.579200744628906,2.252943754196167,0.244140625,-1.312255859375,-0.18310546875
12.0299999,1.381454348564148,-9.576807022094727,2.252943754196167,-0.091552734375,-1.40380859375,-0.1678466796875
12.049999900000001,1.37906014919281,-9.579200744628906,2.2577321529388428,-0.244140625,-1.3275146484375,-0.1678466796875
12.069999900000001,1.381454348564148,-9.581595420837402,2.2577321529388428,0.06103515625,-1.3427734375,-0.1220703125
12.0899999,1.37906014919281,-9.579200744628906,2.2577321529388428,0.42724609375,-1.3580322265625,-0.152587890625
12.1099999,1.37906014919281,-9.576807022094727,2.2577321529388428,-0.030517578125,-1.2664794921875,-0.18310546875
12.129999900000001,1.37906014919281,-9.57441234588623,2.2577321529388428,-0.3509521484375,-1.3275146484375,-0.1678466796875
12.149999900000001,1.381454348564148,-9.57441234588623,2.255337953567505,0,-1.3275146484375,-0.1678466796875
12.1699999,1.3862427473068237,-9.57201862335205,2.250549554824829,0.3662109375,-1.3427734375,-0.091552734375
12.1899999,1.3886369466781616,-9.57441234588623,2.248155355453491,0.091552734375,-1.3885498046875,-0.1068115234375
12.209999900000001,1.3862427473068237,-9.57441234588623,2.248155355453491,-0.1220703125,-1.3580322265625,-0.1678466796875
12.229999900000001,1.3838485479354858,-9.57201862335205,2.248155355453491,-0.1983642578125,-1.312255859375,-0.1678466796875
12.2499999,1.3838485479354858,-9.57201862335205,2.250549554824829,0.0152587890625,-1.2969970703125,-0.244140625
12.2699999,1.3838485479354858,-9.57201862335205,2.250549554824829,0.1220703125,-1.2969970703125,-0.18310546875
12.289999900000002,1.3862427473068237,-9.569623947143555,2.252943754196167,0.0762939453125,-1.2969970703125,-0.213623046875
12.309999900000001,1.3862427473068237,-9.569623947143555,2.252943754196167,-0.1678466796875,-1.2664794921875,-0.1983642578125
12.3299999,1.3886369466781616,-9.569623947143555,2.255337953567505,-0.213623046875,-1.3275146484375,-0.1373291015625
12.3499999,1.3886369466781616,-9.57201862335205,2.252943754196167,-0.091552734375,-1.373291015625,-0.091552734375
12.3699999,1.3910311460494995,-9.57201862335205,2.255337953567505,0.18310546875,-1.3275146484375,-0.152587890625
12.389999900000001,1.3910311460494995,-9.57441234588623,2.252943754196167,0.0762939453125,-1.3427734375,-0.1373291015625
12.4099999,1.3886369466781616,-9.57441234588623,2.255337953567505,-0.213623046875,-1.3427734375,-0.1373291015625
12.4299999,1.3862427473068237,-9.576807022094727,2.252943754196167,-0.1983642578125,-1.28173828125,-0.152587890625
12.4499999,1.3838485479354858,-9.576807022094727,2.250549554824829,0.274658203125,-1.312255859375,-0.18310546875
12.469999900000001,1.3838485479354858,-9.57441234588623,2.252943754196167,0.244140625,-1.3580322265625,-0.1373291015625
12.4899999,1.3862427473068237,-9.57441234588623,2.252943754196167,-0.1373291015625,-1.373291015625,-0.1220703125
12.5099999,1.3862427473068237,-9.57201862335205,2.252943754196167,-0.1068115234375,-1.3275146484375,-0.1983642578125
12.5299999,1.3862427473068237,-9.57201862335205,2.252943754196167,0.213623046875,-1.2969970703125,-0.1678466796875
12.549999900000001,1.3862427473068237,-9.569623947143555,2.252943754196167,0.1220703125,-1.220703125,-0.1983642578125
12.569999900000001,1.3862427473068237,-9.567230224609375,2.255337953567505,0,-1.3427734375,-0.18310546875
12.5899999,1.3862427473068237,-9.564835548400879,2.2577321529388428,-0.1983642578125,-1.373291015625,-0.152587890625
12.6099999,1.3838485479354858,-9.569623947143555,2.2601263523101807,-0.091552734375,-1.3885498046875,-0.1220703125
12.629999900000001,1.3838485479354858,-9.569623947143555,2.255337953567505,-0.0457763671875,-1.40380859375,-0.18310546875
12.649999900000001,1.381454348564148,-9.57441234588623,2.252943754196167,0.18310546875,-1.3275146484375,-0.2288818359375
12.6699999,1.3838485479354858,-9.57441234588623,2.255337953567505,0.0457763671875,-1.312255859375,-0.18310546875
12.6899999,1.3862427473068237,-9.57441234588623,2.2601263523101807,-0.3509521484375,-1.3427734375,-0.2288818359375
12.709999900000001,1.3910311460494995,-9.57441234588623,2.2601263523101807,-0.335693359375,-1.373291015625,-0.213623046875
12.729999900000001,1.3910311460494995,-9.57441234588623,2.2601263523101807,0.152587890625,-1.251220703125,-0.152587890625
12.7499999,1.3886369466781616,-9.57441234588623,2.250549554824829,0.030517578125,-1.220703125,-0.1983642578125
12.7699999,1.3838485479354858,-9.579200744628906,2.248155355453491,-0.1220703125,-1.373291015625,-0.1678466796875
12.789999900000002,1.37906014919281,-9.576807022094727,2.248155355453491,-0.4119873046875,-1.3580322265625,-0.1983642578125
12.809999900000001,1.3838485479354858,-9.579200744628906,2.248155355453491,0.1678466796875,-1.3275146484375,-0.213623046875
12.8299999,1.3910311460494995,-9.579200744628906,2.250549554824829,-0.1068115234375,-1.3427734375,-0.1678466796875
12.8499999,1.3958195447921753,-9.579200744628906,2.2457611560821533,-0.0152587890625,-1.2969970703125,-0.0762939453125
12.8699999,1.3910311460494995,-9.581595420837402,2.2385785579681396,-0.1983642578125,-1.2969970703125,-0.0762939453125
12.889999900000001,1.381454348564148,-9.581595420837402,2.233790159225464,0.152587890625,-1.2969970703125,-0.152587890625
12.9099999,1.3766659498214722,-9.579200744628906,2.233790159225464,0.1373291015625,-1.28173828125,-0.1373291015625
12.9299999,1.37906014919281,-9.57441234588623,2.2409727573394775,0.1678466796875,-1.2664794921875,-0.1678466796875
12.9499999,1.3838485479354858,-9.567230224609375,2.252943754196167,-0.0457763671875,-1.3275146484375,-0.1678466796875
12.969999900000001,1.3862427473068237,-9.560047149658203,2.2649147510528564,0,-1.312255859375,-0.18310546875
12.9899999,1.381454348564148,-9.564835548400879,2.27209734916687,-0.5950927734375,-1.3275146484375,-0.30517578125
13.0099999,1.3862427473068237,-9.567230224609375,2.2601263523101807,-0.5340576171875,-1.5411376953125,-0.1983642578125
13.0299999,1.3910311460494995,-9.576807022094727,2.248155355453491,0.9918212890625,-1.373291015625,-0.0457763671875
13.049999900000001,1.3934253454208374,-9.581595420837402,2.2385785579681396,0.396728515625,-1.1444091796875,-0.1068115234375
13.069999900000001,1.3934253454208374,-9.579200744628906,2.2361843585968018,-0.4119873046875,-1.28173828125,-0.1373291015625
13.0899999,1.3862427473068237,-9.576807022094727,2.2433669567108154,-0.91552734375,-1.3580322265625,-0.2899169921875
13.1099999,1.381454348564148,-9.57441234588623,2.252943754196167,0.335693359375,-1.3580322265625,-0.1983642578125
13.129999900000001,1.3886369466781616,-9.57441234588623,2.252943754196167,0.7781982421875,-1.3427734375,-0.1373291015625
13.149999900000001,1.3958195447921753,-9.576807022094727,2.250549554824829,-0.1220703125,-1.2054443359375,-0.152587890625
13.1699999,1.3934253454208374,-9.576807022094727,2.255337953567505,-0.4425048828125,-1.2664794921875,-0.1373291015625
13.1899999,1.3862427473068237,-9.57441234588623,2.2601263523101807,-0.30517578125,-1.3427734375,-0.18310546875
13.209999900000001,1.381454348564148,-9.57201862335205,2.2577321529388428,-0.2288818359375,-1.3427734375,-0.2899169921875
13.229999900000001,1.3838485479354858,-9.57201862335205,2.252943754196167,0.4730224609375,-1.3580322265625,-0.1678466796875
13.2499999,1.3862427473068237,-9.57201862335205,2.248155355453491,0.2899169921875,-1.2359619140625,-0.1068115234375
13.2699999,1.3910311460494995,-9.57201862335205,2.2433669567108154,-0.3204345703125,-1.220703125,-0.1373291015625
13.289999900000002,1.3934253454208374,-9.57201862335205,2.2457611560821533,-0.6866455078125,-1.40380859375,-0.152587890625
13.309999900000001,1.3910311460494995,-9.569623947143555,2.2457611560821533,0.213623046875,-1.3580322265625,-0.1983642578125
13.3299999,1.3910311460494995,-9.569623947143555,2.248155355453491,0.7781982421875,-1.373291015625,-0.244140625
13.3499999,1.3886369466781616,-9.567230224609375,2.248155355453491,-0.06103515625,-1.28173828125,-0.18310546875
13.3699999,1.3838485479354858,-9.569623947143555,2.248155355453491,-0.9613037109375,-1.373291015625,-0.18310546875
13.389999900000001,1.37906014919281,-9.57441234588623,2.2433669567108154,-0.1373291015625,-1.373291015625,-0.213623046875
13.4099999,1.37906014919281,-9.576807022094727,2.2385785579681396,0.5035400390625,-1.2359619140625,-0.18310546875
13.4299999,1.381454348564148,-9.576807022094727,2.2409727573394775,0.4730224609375,-1.3580322265625,-0.18310546875
13.4499999,1.3910311460494995,-9.57441234588623,2.2457611560821533,-0.1678466796875,-1.4190673828125,-0.2288818359375
13.469999900000001,1.3982137441635132,-9.57201862335205,2.248155355453491,-0.6103515625,-1.3427734375,-0.152587890625
13.4899999,1.403002142906189,-9.57441234588623,2.2457611560821533,0,-1.3580322265625,-0.1983642578125
13.5099999,1.3958195447921753,-9.576807022094727,2.2409727573394775,0.4119873046875,-1.3275146484375,-0.1373291015625
13.5299999,1.3862427473068237,-9.581595420837402,2.2433669567108154,0.3814697265625,-1.2664794921875,-0.1373291015625
13.549999900000001,1.37906014919281,-9.579200744628906,2.250549554824829,-0.1373291015625,-1.3885498046875,-0.2593994140625
13.569999900000001,1.37906014919281,-9.576807022094727,2.2601263523101807,-0.6103515625,-1.373291015625,-0.213623046875
13.5899999,1.3862427473068237,-9.57441234588623,2.2649147510528564,0.030517578125,-1.373291015625,-0.152587890625
13.6099999,1.3886369466781616,-9.57201862335205,2.2577321529388428,0.274658203125,-1.312255859375,-0.213623046875
13.629999900000001,1.3886369466781616,-9.57441234588623,2.248155355453491,0.30517578125,-1.3275146484375,-0.1983642578125
13.649999900000001,1.3862427473068237,-9.57441234588623,2.2433669567108154,-0.274658203125,-1.2969970703125,-0.1373291015625
13.6699999,1.3886369466781616,-9.576807022094727,2.2433669567108154,-0.152587890625,-1.312255859375,-0.1983642578125
13.6899999,1.3910311460494995,-9.57441234588623,2.2457611560821533,0.213623046875,-1.373291015625,-0.1983642578125
13.709999900000001,1.3934253454208374,-9.57441234588623,2.248155355453491,0.48828125,-1.312255859375,-0.1068115234375
13.729999900000001,1.3886369466781616,-9.57201862335205,2.250549554824829,-0.1373291015625,-1.312255859375,-0.1983642578125
13.7499999,1.3838485479354858,-9.569623947143555,2.252943754196167,-0.396728515625,-1.3427734375,-0.1983642578125
13.7699999,1.3862427473068237,-9.569623947143555,2.252943754196167,-0.1983642578125,-1.3427734375,-0.2593994140625
13.789999900000002,1.3934253454208374,-9.569623947143555,2.250549554824829,0.2899169921875,-1.3427734375,-0.091552734375
13.809999900000001,1.3958195447921753,-9.569623947143555,2.248155355453491,0.06103515625,-1.28173828125,-0.1068115234375
13.8299999,1.3958195447921753,-9.569623947143555,2.250549554824829,-0.30517578125,-1.3275146484375,-0.152587890625
13.8499999,1.3886369466781616,-9.569623947143555,2.248155355453491,-0.3509521484375,-1.312255859375,-0.18310546875
13.8699999,1.3862427473068237,-9.57201862335205,2.248155355453491,-0.0457763671875,-1.3580322265625,-0.1678466796875
13.889999900000001,1.3838485479354858,-9.57201862335205,2.2409727573394775,0.1678466796875,-1.3580322265625,-0.18310546875
13.9099999,1.3862427473068237,-9.57441234588623,2.2385785579681396,0.0762939453125,-1.3275146484375,-0.1678466796875
13.9299999,1.3838485479354858,-9.57441234588623,2.2385785579681396,-0.1983642578125,-1.2664794921875,-0.213623046875
13.9499999,1.3838485479354858,-9.57441234588623,2.2409727573394775,-0.1373291015625,-1.28173828125,-0.152587890625
13.969999900000001,1.3886369466781616,-9.576807022094727,2.2433669567108154,0.030517578125,-1.2969970703125,-0.0762939453125
13.9899999,1.3958195447921753,-9.579200744628906,2.2433669567108154,0.42724609375,-1.3275146484375,-0.06103515625
14.0099999,1.3982137441635132,-9.579200744628906,2.2433669567108154,0.213623046875,-1.2664794921875,-0.091552734375
14.0299999,1.3982137441635132,-9.579200744628906,2.2457611560821533,-0.1068115234375,-1.3275146484375,-0.06103515625
14.049999900000001,1.3934253454208374,-9.576807022094727,2.250549554824829,-0.1220703125,-1.3275146484375,-0.091552734375
14.069999900000001,1.3910311460494995,-9.57441234588623,2.252943754196167,0.1373291015625,-1.2664794921875,-0.152587890625
14.0899999,1.3910311460494995,-9.57201862335205,2.255337953567505,0.396728515625,-1.3427734375,-0.0152587890625
14.1099999,1.3910311460494995,-9.57201862335205,2.255337953567505,0.1373291015625,-1.28173828125,-0.0457763671875
14.129999900000001,1.3910311460494995,-9.57201862335205,2.252943754196167,-0.2288818359375,-1.28173828125,-0.152587890625
14.149999900000001,1.3886369466781616,-9.57201862335205,2.250549554824829,-0.0152587890625,-1.312255859375,-0.091552734375
14.1699999,1.3886369466781616,-9.57201862335205,2.2457611560821533,0.244140625,-1.251220703125,-0.152587890625
14.1899999,1.3886369466781616,-9.57201862335205,2.2433669567108154,0.335693359375,-1.2054443359375,-0.091552734375
14.209999900000001,1.3910311460494995,-9.57201862335205,2.2457611560821533,-0.1220703125,-1.28173828125,-0.1220703125
14.229999900000001,1.3910311460494995,-9.57201862335205,2.248155355453491,-0.2593994140625,-1.3275146484375,-0.213623046875
14.2499999,1.3886369466781616,-9.57201862335205,2.250549554824829,-0.091552734375,-1.312255859375,-0.1678466796875
14.2699999,1.3886369466781616,-9.57441234588623,2.250549554824829,0.1678466796875,-1.3427734375,-0.1220703125
14.289999900000002,1.3886369466781616,-9.576807022094727,2.250549554824829,0.1068115234375,-1.3580322265625,-0.1373291015625
14.309999900000001,1.3910311460494995,-9.576807022094727,2.248155355453491,-0.1068115234375,-1.3580322265625,-0.1983642578125
14.3299999,1.3910311460494995,-9.576807022094727,2.248155355453491,-0.1220703125,-1.3275146484375,-0.1220703125
14.3499999,1.3934253454208374,-9.57441234588623,2.248155355453491,-0.1068115234375,-1.2359619140625,-0.1678466796875
14.3699999,1.3934253454208374,-9.57441234588623,2.252943754196167,0.1220703125,-1.3427734375,-0.1373291015625
14.389999900000001,1.3958195447921753,-9.57441234588623,2.252943754196167,0.030517578125,-1.3427734375,-0.152587890625
14.4099999,1.3958195447921753,-9.57441234588623,2.250549554824829,-0.0152587890625,-1.3580322265625,-0.213623046875
14.4299999,1.3958195447921753,-9.576807022094727,2.248155355453491,-0.244140625,-1.3275146484375,-0.1678466796875
14.4499999,1.3934253454208374,-9.576807022094727,2.2457611560821533,0.091552734375,-1.2969970703125,-0.1373291015625
14.469999900000001,1.3934253454208374,-9.576807022094727,2.2457611560821533,0.0762939453125,-1.3427734375,-0.213623046875
14.4899999,1.3934253454208374,-9.57441234588623,2.2433669567108154,-0.0457763671875,-1.3427734375,-0.213623046875
14.5099999,1.3910311460494995,-9.57441234588623,2.2409727573394775,-0.030517578125,-1.3275146484375,-0.18310546875
14.5299999,1.3910311460494995,-9.576807022094727,2.2361843585968018,0,-1.312255859375,-0.1068115234375
14.549999900000001,1.3886369466781616,-9.579200744628906,2.233790159225464,0.1373291015625,-1.28173828125,-0.0457763671875
14.569999900000001,1.3886369466781616,-9.576807022094727,2.2361843585968018,0.1678466796875,-1.312255859375,-0.152587890625
14.5899999,1.3910311460494995,-9.576807022094727,2.2409727573394775,0.1068115234375,-1.2969970703125,-0.213623046875
14.6099999,1.3934253454208374,-9.57441234588623,2.2457611560821533,-0.0457763671875,-1.2664794921875,-0.1983642578125
14.629999900000001,1.3910311460494995,-9.57201862335205,2.248155355453491,-0.0152587890625,-1.28173828125,-0.18310546875
14.649999900000001,1.3886369466781616,-9.57441234588623,2.248155355453491,0.0762939453125,-1.2969970703125,-0.18310546875
14.6699999,1.3838485479354858,-9.57441234588623,2.2457611560821533,0.1678466796875,-1.28173828125,-0.1373291015625
14.6899999,1.381454348564148,-9.57441234588623,2.2433669567108154,0.1068115234375,-1.3275146484375,-0.1220703125
14.709999900000001,1.3838485479354858,-9.57441234588623,2.2457611560821533,0.0457763671875,-1.312255859375,-0.1068115234375
14.729999900000001,1.3838485479354858,-9.57201862335205,2.250549554824829,-0.06103515625,-1.2664794921875,-0.1068115234375
14.7499999,1.3862427473068237,-9.57441234588623,2.252943754196167,-0.0152587890625,-1.312255859375,-0.152587890625
14.7699999,1.3838485479354858,-9.57441234588623,2.252943754196167,0.030517578125,-1.3580322265625,-0.1373291015625
14.789999900000002,1.3838485479354858,-9.57441234588623,2.252943754196167,0.0762939453125,-1.28173828125,-0.1068115234375
14.809999900000001,1.3862427473068237,-9.57441234588623,2.255337953567505,0,-1.2969970703125,-0.091552734375
14.8299999,1.3910311460494995,-9.57201862335205,2.255337953567505,0,-1.3275146484375,-0.1373291015625
14.8499999,1.3934253454208374,-9.569623947143555,2.255337953567505,-0.1068115234375,-1.312255859375,-0.1983642578125
14.8699999,1.3934253454208374,-9.57201862335205,2.252943754196167,0.0762939453125,-1.312255859375,-0.274658203125
14.889999900000001,1.3934253454208374,-9.57201862335205,2.248155355453491,0.0152587890625,-1.312255859375,-0.2593994140625
14.9099999,1.3910311460494995,-9.57201862335205,2.248155355453491,-0.0457763671875,-1.2664794921875,-0.18310546875
14.9299999,1.3910311460494995,-9.57201862335205,2.248155355453491,-0.1373291015625,-1.2664794921875,-0.1983642578125
14.9499999,1.3886369466781616,-9.569623947143555,2.250549554824829,-0.0152587890625,-1.312255859375,-0.152587890625
14.969999900000001,1.3862427473068237,-9.567230224609375,2.255337953567505,-0.06103515625,-1.3427734375,-0.1983642578125
14.9899999,1.3838485479354858,-9.564835548400879,2.2577321529388428,-0.2593994140625,-1.3580322265625,-0.2593994140625
15.0099999,1.3862427473068237,-9.567230224609375,2.255337953567505,-0.2899169921875,-1.3275146484375,-0.244140625
15.0299999,1.3886369466781616,-9.57201862335205,2.250549554824829,0.06103515625,-1.3580322265625,-0.152587890625
15.049999900000001,1.3886369466781616,-9.57441234588623,2.2409727573394775,0.06103515625,-1.3580322265625,-0.1373291015625
15.069999900000001,1.3910311460494995,-9.579200744628906,2.2361843585968018,-0.091552734375,-1.3427734375,-0.18310546875
15.0899999,1.3934253454208374,-9.579200744628906,2.233790159225464,-0.213623046875,-1.312255859375,-0.213623046875
15.1099999,1.3958195447921753,-9.579200744628906,2.2361843585968018,0.091552734375,-1.3275146484375,-0.2288818359375
15.129999900000001,1.3958195447921753,-9.579200744628906,2.2385785579681396,0.0152587890625,-1.312255859375,-0.18310546875
15.149999900000001,1.3934253454208374,-9.576807022094727,2.2409727573394775,0.0762939453125,-1.220703125,-0.1068115234375
15.1699999,1.3910311460494995,-9.576807022094727,2.2433669567108154,-0.091552734375,-1.2359619140625,-0.091552734375
15.1899999,1.3886369466781616,-9.576807022094727,2.248155355453491,0.06103515625,-1.28173828125,-0.091552734375
15.209999900000001,1.3910311460494995,-9.57441234588623,2.248155355453491,0.0457763671875,-1.3275146484375,-0.1373291015625
15.229999900000001,1.3910311460494995,-9.57441234588623,2.248155355453491,0.1068115234375,-1.2664794921875,-0.1678466796875
15.2499999,1.3910311460494995,-9.57441234588623,2.248155355453491,0.1373291015625,-1.28173828125,-0.152587890625
15.2699999,1.3886369466781616,-9.57441234588623,2.248155355453491,0.030517578125,-1.3427734375,-0.1068115234375
15.289999900000002,1.3862427473068237,-9.57201862335205,2.248155355453491,-0.213623046875,-1.2969970703125,-0.1373291015625
15.309999900000001,1.3862427473068237,-9.57201862335205,2.248155355453491,0.1068115234375,-1.3427734375,-0.1983642578125
15.3299999,1.3862427473068237,-9.57201862335205,2.248155355453491,0.244140625,-1.251220703125,-0.1678466796875
15.3499999,1.3862427473068237,-9.57201862335205,2.252943754196167,-0.030517578125,-1.312255859375,-0.1983642578125
15.3699999,1.3886369466781616,-9.57201862335205,2.252943754196167,-0.3814697265625,-1.40380859375,-0.18310546875
15.389999900000001,1.3862427473068237,-9.57201862335205,2.255337953567505,-0.06103515625,-1.3580322265625,-0.213623046875
15.4099999,1.3886369466781616,-9.57201862335205,2.250549554824829,0.1983642578125,-1.3427734375,-0.18310546875
15.4299999,1.3910311460494995,-9.57441234588623,2.248155355453491,0.152587890625,-1.312255859375,-0.152587890625
15.4499999,1.3910311460494995,-9.57441234588623,2.2433669567108154,-0.1220703125,-1.40380859375,-0.152587890625
15.469999900000001,1.3910311460494995,-9.57441234588623,2.2409727573394775,-0.1068115234375,-1.312255859375,-0.152587890625
15.4899999,1.3910311460494995,-9.57441234588623,2.2409727573394775,0.1373291015625,-1.28173828125,-0.152587890625
15.5099999,1.3886369466781616,-9.576807022094727,2.2433669567108154,0.1983642578125,-1.3427734375,-0.1373291015625
15.5299999,1.3886369466781616,-9.576807022094727,2.2457611560821533,0.1068115234375,-1.220703125,-0.1373291015625
15.549999900000001,1.3862427473068237,-9.576807022094727,2.248155355453491,-0.1220703125,-1.3580322265625,-0.0762939453125
15.569999900000001,1.3862427473068237,-9.576807022094727,2.252943754196167,-0.152587890625,-1.3580322265625,-0.152587890625
15.5899999,1.3862427473068237,-9.576807022094727,2.250549554824829,0.030517578125,-1.3427734375,-0.1373291015625
15.6099999,1.3886369466781616,-9.57441234588623,2.248155355453491,0.3204345703125,-1.2664794921875,-0.152587890625
15.629999900000001,1.3910311460494995,-9.57201862335205,2.2457611560821533,0.1220703125,-1.2969970703125,-0.1678466796875
15.649999900000001,1.3934253454208374,-9.569623947143555,2.2457611560821533,-0.213623046875,-1.3885498046875,-0.1068115234375
15.6699999,1.3934253454208374,-9.567230224609375,2.2457611560821533,-0.1983642578125,-1.3275146484375,-0.1068115234375
15.6899999,1.3934253454208374,-9.567230224609375,2.2433669567108154,0.152587890625,-1.2969970703125,-0.213623046875
15.709999900000001,1.3934253454208374,-9.567230224609375,2.2409727573394775,0.213623046875,-1.3580322265625,-0.274658203125
15.729999900000001,1.3934253454208374,-9.57201862335205,2.2385785579681396,-0.0152587890625,-1.373291015625,-0.18310546875
15.7499999,1.3910311460494995,-9.57441234588623,2.2409727573394775,-0.1983642578125,-1.3275146484375,-0.1678466796875
15.7699999,1.3910311460494995,-9.57441234588623,2.2457611560821533,-0.0762939453125,-1.312255859375,-0.091552734375
15.789999900000002,1.3910311460494995,-9.576807022094727,2.248155355453491,0.091552734375,-1.251220703125,-0.1983642578125
15.809999900000001,1.3886369466781616,-9.57441234588623,2.2457611560821533,0.06103515625,-1.312255859375,-0.18310546875
15.8299999,1.3862427473068237,-9.576807022094727,2.2433669567108154,0.1220703125,-1.28173828125,-0.1373291015625
15.8499999,1.3886369466781616,-9.576807022094727,2.2409727573394775,0.06103515625,-1.312255859375,-0.091552734375
15.869999900000002,1.3886369466781616,-9.576807022094727,2.2409727573394775,-0.030517578125,-1.312255859375,-0.1678466796875
15.889999900000001,1.3910311460494995,-9.57441234588623,2.2457611560821533,0.06103515625,-1.3275146484375,-0.244140625
15.9099999,1.3958195447921753,-9.57441234588623,2.2457611560821533,0.1220703125,-1.3427734375,-0.18310546875
15.9299999,1.3958195447921753,-9.57201862335205,2.2457611560821533,0.0762939453125,-1.3427734375,-0.1678466796875
15.9499999,1.3934253454208374,-9.576807022094727,2.2457611560821533,-0.0762939453125,-1.251220703125,-0.152587890625
15.969999900000001,1.3910311460494995,-9.576807022094727,2.2457611560821533,0.0152587890625,-1.28173828125,-0.1678466796875
15.9899999,1.3886369466781616,-9.579200744628906,2.250549554824829,0.1068115234375,-1.251220703125,-0.1373291015625
16.0099999,1.3910311460494995,-9.576807022094727,2.252943754196167,0.030517578125,-1.3275146484375,-0.1373291015625
16.0299999,1.3910311460494995,-9.576807022094727,2.252943754196167,-0.030517578125,-1.2969970703125,-0.1220703125
16.0499999,1.3910311460494995,-9.576807022094727,2.248155355453491,-0.0762939453125,-1.220703125,-0.213623046875
16.0699999,1.3862427473068237,-9.576807022094727,2.2457611560821533,-0.0457763671875,-1.312255859375,-0.18310546875
16.089999900000002,1.3886369466781616,-9.576807022094727,2.2457611560821533,-0.0457763671875,-1.312255859375,-0.152587890625
16.109999900000002,1.3886369466781616,-9.57441234588623,2.248155355453491,0.1068115234375,-1.3427734375,-0.1983642578125
16.1299999,1.3934253454208374,-9.57201862335205,2.250549554824829,0,-1.251220703125,-0.1373291015625
16.1499999,1.3958195447921753,-9.57201862335205,2.250549554824829,-0.1983642578125,-1.251220703125,-0.1983642578125
16.1699999,1.3934253454208374,-9.57201862335205,2.250549554824829,-0.1373291015625,-1.28173828125,-0.213623046875
16.1899999,1.3886369466781616,-9.57441234588623,2.248155355453491,0.1068115234375,-1.312255859375,-0.1678466796875
16.2099999,1.3838485479354858,-9.57441234588623,2.2457611560821533,-0.030517578125,-1.3275146484375,-0.091552734375
16.2299999,1.3838485479354858,-9.576807022094727,2.2457611560821533,-0.0457763671875,-1.312255859375,-0.1068115234375
16.249999900000002,1.3862427473068237,-9.579200744628906,2.2433669567108154,-0.091552734375,-1.3427734375,-0.1678466796875
16.269999900000002,1.3886369466781616,-9.576807022094727,2.2409727573394775,0.06103515625,-1.3427734375,-0.1068115234375
16.2899999,1.3910311460494995,-9.579200744628906,2.2361843585968018,0.1068115234375,-1.1749267578125,-0.1678466796875
16.3099999,1.3886369466781616,-9.579200744628906,2.2361843585968018,0.091552734375,-1.2969970703125,-0.1678466796875
16.3299999,1.3910311460494995,-9.579200744628906,2.2361843585968018,0,-1.3427734375,-0.0762939453125
16.3499999,1.3934253454208374,-9.579200744628906,2.2385785579681396,-0.0762939453125,-1.2969970703125,-0.1983642578125
16.3699999,1.3958195447921753,-9.579200744628906,2.2385785579681396,0.06103515625,-1.3275146484375,-0.18310546875
16.3899999,1.3958195447921753,-9.579200744628906,2.2409727573394775,0.18310546875,-1.2969970703125,-0.1068115234375
16.4099999,1.3910311460494995,-9.579200744628906,2.2457611560821533,-0.06103515625,-1.3275146484375,-0.152587890625
16.429999900000002,1.3862427473068237,-9.579200744628906,2.248155355453491,-0.0762939453125,-1.3427734375,-0.1373291015625
16.4499999,1.3838485479354858,-9.576807022094727,2.250549554824829,0.06103515625,-1.2969970703125,-0.1983642578125
16.4699999,1.3886369466781616,-9.576807022094727,2.252943754196167,0.0762939453125,-1.3275146484375,-0.18310546875
16.4899999,1.3886369466781616,-9.576807022094727,2.250549554824829,-0.0762939453125,-1.3275146484375,-0.091552734375
16.5099999,1.3862427473068237,-9.579200744628906,2.248155355453491,0.0152587890625,-1.28173828125,-0.1068115234375
16.5299999,1.3838485479354858,-9.579200744628906,2.2457611560821533,0,-1.28173828125,-0.2288818359375
16.5499999,1.381454348564148,-9.581595420837402,2.2433669567108154,-0.06103515625,-1.28173828125,-0.1983642578125
16.5699999,1.3886369466781616,-9.579200744628906,2.2433669567108154,0.1068115234375,-1.373291015625,-0.152587890625
16.589999900000002,1.3910311460494995,-9.576807022094727,2.2433669567108154,0.091552734375,-1.3427734375,-0.0762939453125
16.609999900000002,1.3934253454208374,-9.57441234588623,2.248155355453491,-0.06103515625,-1.2664794921875,-0.1983642578125
16.6299999,1.3910311460494995,-9.57201862335205,2.248155355453491,-0.244140625,-1.2969970703125,-0.213623046875
16.6499999,1.3886369466781616,-9.57201862335205,2.2457611560821533,0.1068115234375,-1.3275146484375,-0.244140625
16.6699999,1.3910311460494995,-9.57201862335205,2.2457611560821533,0.244140625,-1.251220703125,-0.1068115234375
16.6899999,1.3934253454208374,-9.57441234588623,2.2457611560821533,-0.0457763671875,-1.28173828125,-0.1220703125
16.7099999,1.3958195447921753,-9.57201862335205,2.2433669567108154,-0.2288818359375,-1.3275146484375,-0.152587890625
16.7299999,1.3934253454208374,-9.576807022094727,2.2433669567108154,0.091552734375,-1.28173828125,-0.1678466796875
16.749999900000002,1.3910311460494995,-9.576807022094727,2.2433669567108154,0.18310546875,-1.312255859375,-0.2288818359375
16.769999900000002,1.3886369466781616,-9.576807022094727,2.2409727573394775,0.091552734375,-1.373291015625,-0.152587890625
16.7899999,1.3886369466781616,-9.57441234588623,2.2409727573394775,0.0762939453125,-1.2664794921875,-0.1068115234375
16.8099999,1.3934253454208374,-9.57441234588623,2.2433669567108154,0.091552734375,-1.2054443359375,-0.1220703125
16.8299999,1.3934253454208374,-9.57201862335205,2.2457611560821533,0,-1.28173828125,-0.1220703125
16.8499999,1.3934253454208374,-9.57441234588623,2.248155355453491,0,-1.312255859375,-0.1678466796875
16.8699999,1.3886369466781616,-9.57441234588623,2.248155355453491,0.1068115234375,-1.2664794921875,-0.091552734375
16.8899999,1.3838485479354858,-9.57441234588623,2.2457611560821533,0.091552734375,-1.3427734375,-0.1068115234375
16.9099999,1.381454348564148,-9.57441234588623,2.2457611560821533,0.030517578125,-1.312255859375,-0.1678466796875
16.929999900000002,1.3838485479354858,-9.57441234588623,2.248155355453491,-0.0457763671875,-1.28173828125,-0.2288818359375
16.9499999,1.3910311460494995,-9.57441234588623,2.248155355453491,0.0762939453125,-1.3275146484375,-0.152587890625
16.9699999,1.3934253454208374,-9.57441234588623,2.2457611560821533,0.1373291015625,-1.312255859375,-0.18310546875
16.9899999,1.3958195447921753,-9.57441234588623,2.2433669567108154,0.030517578125,-1.251220703125,-0.1678466796875
17.0099999,1.3934253454208374,-9.57201862335205,2.2409727573394775,-0.1068115234375,-1.312255859375,-0.213623046875
17.0299999,1.3910311460494995,-9.569623947143555,2.2433669567108154,-0.06103515625,-1.3885498046875,-0.18310546875
17.0499999,1.3910311460494995,-9.567230224609375,2.248155355453491,-0.0457763671875,-1.434326171875,-0.1983642578125
17.0699999,1.3934253454208374,-9.567230224609375,2.252943754196167,-0.030517578125,-1.312255859375,-0.1373291015625
17.089999900000002,1.3982137441635132,-9.567230224609375,2.250549554824829,0,-1.3275146484375,-0.152587890625
17.109999900000002,1.3982137441635132,-9.57201862335205,2.248155355453491,-0.1220703125,-1.2664794921875,-0.0762939453125
17.1299999,1.3982137441635132,-9.57441234588623,2.2409727573394775,0.091552734375,-1.2359619140625,-0.213623046875
17.1499999,1.3934253454208374,-9.576807022094727,2.2409727573394775,0.0457763671875,-1.190185546875,-0.213623046875
17.1699999,1.3934253454208374,-9.576807022094727,2.2409727573394775,0.0152587890625,-1.3885498046875,-0.1373291015625
17.1899999,1.3934253454208374,-9.576807022094727,2.2433669567108154,-0.030517578125,-1.3580322265625,-0.1373291015625
17.2099999,1.3934253454208374,-9.576807022094727,2.248155355453491,0.030517578125,-1.312255859375,-0.1678466796875
17.2299999,1.3934253454208374,-9.57441234588623,2.248155355453491,0.06103515625,-1.2969970703125,-0.1068115234375
17.249999900000002,1.3910311460494995,-9.57201862335205,2.252943754196167,0.030517578125,-1.28173828125,-0.1220703125
17.269999900000002,1.3862427473068237,-9.57201862335205,2.2577321529388428,-0.1068115234375,-1.251220703125,-0.152587890625
17.2899999,1.3886369466781616,-9.57201862335205,2.255337953567505,-0.0457763671875,-1.4190673828125,-0.2288818359375
17.3099999,1.3934253454208374,-9.57441234588623,2.252943754196167,0,-1.2969970703125,-0.1678466796875
17.3299999,1.3934253454208374,-9.576807022094727,2.248155355453491,0.152587890625,-1.2054443359375,-0.1678466796875
17.3499999,1.3910311460494995,-9.576807022094727,2.2409727573394775,-0.18310546875,-1.3275146484375,-0.1068115234375
17.3699999,1.3862427473068237,-9.576807022094727,2.2385785579681396,-0.213623046875,-1.3885498046875,-0.1983642578125
17.3899999,1.3838485479354858,-9.579200744628906,2.2433669567108154,0.18310546875,-1.3427734375,-0.1678466796875
17.409999900000003,1.3838485479354858,-9.576807022094727,2.2361843585968018,0.0152587890625,-1.312255859375,-0.2288818359375
17.429999900000002,1.3910311460494995,-9.579200744628906,2.2385785579681396,0.2899169921875,-1.3275146484375,-0.1678466796875
17.4499999,1.3934253454208374,-9.576807022094727,2.2361843585968018,-0.2899169921875,-1.251220703125,-0.152587890625
17.4699999,1.3934253454208374,-9.576807022094727,2.2409727573394775,0.1678466796875,-1.4495849609375,-0.1068115234375
17.4899999,1.3886369466781616,-9.576807022094727,2.2385785579681396,-0.396728515625,-1.40380859375,-0.213623046875
17.5099999,1.3862427473068237,-9.579200744628906,2.2385785579681396,0.48828125,-1.3275146484375,-0.1983642578125
17.5299999,1.3886369466781616,-9.579200744628906,2.2361843585968018,0.152587890625,-1.190185546875,-0.091552734375
17.5499999,1.3910311460494995,-9.579200744628906,2.2361843585968018,0.091552734375,-1.28173828125,-0.06103515625
17.5699999,1.3934253454208374,-9.576807022094727,2.2409727573394775,-0.4730224609375,-1.220703125,-0.152587890625
17.589999900000002,1.3958195447921753,-9.57201862335205,2.2457611560821533,0.18310546875,-1.3580322265625,-0.1678466796875
17.609999900000002,1.3934253454208374,-9.569623947143555,2.2457611560821533,0.0152587890625,-1.3427734375,-0.1983642578125
17.6299999,1.3934253454208374,-9.569623947143555,2.2457611560821533,0.244140625,-1.2664794921875,-0.213623046875
17.6499999,1.3958195447921753,-9.569623947143555,2.2433669567108154,-0.1220703125,-1.2359619140625,-0.18310546875
17.6699999,1.3934253454208374,-9.569623947143555,2.248155355453491,-0.335693359375,-1.2969970703125,-0.1373291015625
17.6899999,1.3862427473068237,-9.567230224609375,2.255337953567505,-0.1220703125,-1.3275146484375,-0.2288818359375
17.7099999,1.381454348564148,-9.567230224609375,2.255337953567505,0.0457763671875,-1.4190673828125,-0.2288818359375
17.7299999,1.381454348564148,-9.569623947143555,2.250549554824829,0,-1.3427734375,-0.1983642578125
17.749999900000002,1.3886369466781616,-9.57441234588623,2.2385785579681396,-0.18310546875,-1.312255859375,-0.244140625
17.769999900000002,1.3958195447921753,-9.579200744628906,2.229001760482788,-0.213623046875,-1.28173828125,-0.152587890625
17.7899999,1.400607943534851,-9.583989143371582,2.229001760482788,-0.030517578125,-1.28173828125,-0.091552734375
17.8099999,1.400607943534851,-9.586383819580078,2.233790159225464,0.1678466796875,-1.3427734375,-0.1678466796875
17.8299999,1.3934253454208374,-9.581595420837402,2.2409727573394775,0.030517578125,-1.312255859375,-0.1373291015625
17.8499999,1.3910311460494995,-9.581595420837402,2.2457611560821533,-0.030517578125,-1.373291015625,-0.152587890625
17.8699999,1.3886369466781616,-9.581595420837402,2.2457611560821533,-0.18310546875,-1.251220703125,-0.152587890625
17.8899999,1.3886369466781616,-9.579200744628906,2.2457611560821533,0.213623046875,-1.2054443359375,-0.091552734375
17.909999900000003,1.3862427473068237,-9.576807022094727,2.250549554824829,0.2593994140625,-1.190185546875,-0.1068115234375
17.929999900000002,1.3886369466781616,-9.57441234588623,2.252943754196167,-0.0762939453125,-1.3885498046875,-0.18310546875
17.9499999,1.3862427473068237,-9.57201862335205,2.2601263523101807,-0.2288818359375,-1.4190673828125,-0.1220703125
17.9699999,1.3862427473068237,-9.57201862335205,2.252943754196167,-0.18310546875,-1.3580322265625,-0.18310546875
17.9899999,1.3886369466781616,-9.57441234588623,2.2409727573394775,0.1983642578125,-1.2969970703125,-0.2288818359375
18.0099999,1.3886369466781616,-9.576807022094727,2.231395959854126,0.1373291015625,-1.2359619140625,-0.1373291015625
18.0299999,1.3886369466781616,-9.579200744628906,2.229001760482788,-0.0457763671875,-1.2664794921875,-0.152587890625
18.0499999,1.3862427473068237,-9.576807022094727,2.233790159225464,-0.0152587890625,-1.373291015625,-0.1983642578125
18.0699999,1.3862427473068237,-9.57441234588623,2.2385785579681396,-0.0152587890625,-1.2664794921875,-0.18310546875
18.089999900000002,1.3886369466781616,-9.57201862335205,2.2433669567108154,0.18310546875,-1.28173828125,-0.1220703125
18.109999900000002,1.3910311460494995,-9.57201862335205,2.2433669567108154,0.1678466796875,-1.312255859375,-0.18310546875
18.1299999,1.3886369466781616,-9.57441234588623,2.2457611560821533,-0.0457763671875,-1.28173828125,-0.1678466796875
18.1499999,1.3886369466781616,-9.57441234588623,2.248155355453491,-0.0762939453125,-1.3275146484375,-0.1678466796875
18.1699999,1.3862427473068237,-9.576807022094727,2.2457611560821533,0,-1.312255859375,-0.18310546875
18.1899999,1.3862427473068237,-9.57441234588623,2.2433669567108154,0.1068115234375,-1.312255859375,-0.0762939453125
18.2099999,1.3862427473068237,-9.57201862335205,2.2409727573394775,0.274658203125,-1.28173828125,-0.152587890625
18.2299999,1.3838485479354858,-9.57201862335205,2.2409727573394775,-0.213623046875,-1.3275146484375,-0.152587890625
18.249999900000002,1.381454348564148,-9.57201862335205,2.2457611560821533,-0.1983642578125,-1.3580322265625,-0.1678466796875
18.269999900000002,1.381454348564148,-9.57201862335205,2.248155355453491,0.0152587890625,-1.251220703125,-0.18310546875
18.2899999,1.381454348564148,-9.57441234588623,2.248155355453491,0.3204345703125,-1.312255859375,-0.152587890625
18.3099999,1.381454348564148,-9.576807022094727,2.2457611560821533,-0.0152587890625,-1.3427734375,-0.1220703125
18.3299999,1.37906014919281,-9.576807022094727,2.2433669567108154,-0.274658203125,-1.3885498046875,-0.1678466796875
18.3499999,1.37906014919281,-9.57441234588623,2.2409727573394775,-0.274658203125,-1.4190673828125,-0.2288818359375
18.3699999,1.3886369466781616,-9.57201862335205,2.2409727573394775,0.091552734375,-1.40380859375,-0.2288818359375
18.3899999,1.3958195447921753,-9.57201862335205,2.2409727573394775,0.030517578125,-1.312255859375,-0.0762939453125
18.409999900000003,1.400607943534851,-9.57441234588623,2.2409727573394775,0.0457763671875,-1.3427734375,-0.152587890625
18.429999900000002,1.3982137441635132,-9.576807022094727,2.2361843585968018,-0.1373291015625,-1.2359619140625,-0.1220703125
18.4499999,1.3934253454208374,-9.579200744628906,2.2361843585968018,-0.0457763671875,-1.2969970703125,-0.18310546875
18.4699999,1.3886369466781616,-9.579200744628906,2.233790159225464,0.0457763671875,-1.312255859375,-0.1373291015625
18.4899999,1.3862427473068237,-9.576807022094727,2.2385785579681396,0.2593994140625,-1.312255859375,-0.1678466796875
18.5099999,1.3862427473068237,-9.576807022094727,2.2409727573394775,0.0152587890625,-1.251220703125,-0.274658203125
18.5299999,1.381454348564148,-9.576807022094727,2.2433669567108154,-0.213623046875,-1.28173828125,-0.1678466796875
18.5499999,1.3766659498214722,-9.579200744628906,2.2409727573394775,-0.18310546875,-1.3427734375,-0.152587890625
18.5699999,1.3766659498214722,-9.581595420837402,2.2361843585968018,0.3814697265625,-1.3580322265625,-0.0762939453125
18.589999900000002,1.3838485479354858,-9.581595420837402,2.2361843585968018,0.4730224609375,-1.2969970703125,-0.0152587890625
18.609999900000002,1.3934253454208374,-9.579200744628906,2.2409727573394775,0.091552734375,-1.2969970703125,-0.091552734375
18.6299999,1.3958195447921753,-9.57201862335205,2.250549554824829,-0.213623046875,-1.3580322265625,-0.06103515625
18.6499999,1.3910311460494995,-9.57201862335205,2.255337953567505,-0.1373291015625,-1.3275146484375,-0.1373291015625
18.6699999,1.3862427473068237,-9.569623947143555,2.255337953567505,0.1678466796875,-1.3580322265625,-0.1678466796875
18.6899999,1.3862427473068237,-9.57201862335205,2.252943754196167,0.396728515625,-1.28173828125,-0.1678466796875
18.7099999,1.3910311460494995,-9.57201862335205,2.250549554824829,0.030517578125,-1.2664794921875,-0.152587890625
18.7299999,1.3934253454208374,-9.57201862335205,2.252943754196167,-0.274658203125,-1.312255859375,-0.1068115234375
18.749999900000002,1.3910311460494995,-9.57201862335205,2.252943754196167,-0.30517578125,-1.3580322265625,-0.1678466796875
18.769999900000002,1.3886369466781616,-9.57441234588623,2.248155355453491,0.06103515625,-1.3580322265625,-0.1678466796875
18.7899999,1.381454348564148,-9.579200744628906,2.2409727573394775,0.396728515625,-1.2969970703125,-0.1068115234375
18.8099999,1.381454348564148,-9.581595420837402,2.231395959854126,0.1220703125,-1.220703125,-0.1373291015625
18.8299999,1.3862427473068237,-9.579200744628906,2.233790159225464,-0.1373291015625,-1.28173828125,-0.1068115234375
18.8499999,1.3934253454208374,-9.57441234588623,2.2385785579681396,-0.030517578125,-1.2664794921875,-0.06103515625
18.8699999,1.3958195447921753,-9.569623947143555,2.248155355453491,0.1373291015625,-1.2664794921875,-0.152587890625
18.8899999,1.3958195447921753,-9.564835548400879,2.252943754196167,0.1220703125,-1.3427734375,-0.152587890625
18.909999900000003,1.3934253454208374,-9.567230224609375,2.252943754196167,-0.0762939453125,-1.3427734375,-0.1678466796875
18.929999900000002,1.3886369466781616,-9.569623947143555,2.250549554824829,-0.091552734375,-1.3427734375,-0.1678466796875
18.9499999,1.3886369466781616,-9.57441234588623,2.248155355453491,-0.0762939453125,-1.2969970703125,-0.152587890625
18.9699999,1.3886369466781616,-9.57441234588623,2.248155355453491,0.06103515625,-1.373291015625,-0.1678466796875
18.9899999,1.3934253454208374,-9.57441234588623,2.2457611560821533,0.0457763671875,-1.3427734375,-0.213623046875
19.0099999,1.3934253454208374,-9.576807022094727,2.2457611560821533,0.0762939453125,-1.2664794921875,-0.18310546875
19.0299999,1.3910311460494995,-9.576807022094727,2.2433669567108154,-0.1373291015625,-1.28173828125,-0.1678466796875
19.0499999,1.3862427473068237,-9.576807022094727,2.2433669567108154,0.0152587890625,-1.28173828125,-0.1068115234375
19.0699999,1.3838485479354858,-9.576807022094727,2.248155355453491,0.1220703125,-1.28173828125,-0.1220703125
19.089999900000002,1.381454348564148,-9.57441234588623,2.255337953567505,0.213623046875,-1.3580322265625,-0.152587890625
19.109999900000002,1.3862427473068237,-9.569623947143555,2.2577321529388428,-0.030517578125,-1.312255859375,-0.1068115234375
19.1299999,1.3886369466781616,-9.567230224609375,2.2601263523101807,-0.0457763671875,-1.3580322265625,-0.152587890625
19.1499999,1.3886369466781616,-9.567230224609375,2.2577321529388428,-0.06103515625,-1.3580322265625,-0.1220703125
19.1699999,1.3862427473068237,-9.567230224609375,2.255337953567505,-0.030517578125,-1.2664794921875,-0.1983642578125
19.1899999,1.3862427473068237,-9.57201862335205,2.2457611560821533,0.0152587890625,-1.312255859375,-0.152587890625
19.2099999,1.3910311460494995,-9.57201862335205,2.2409727573394775,0.2593994140625,-1.312255859375,-0.152587890625
19.2299999,1.3934253454208374,-9.57441234588623,2.2385785579681396,0.0152587890625,-1.2664794921875,-0.152587890625
19.249999900000002,1.3982137441635132,-9.57201862335205,2.2385785579681396,-0.1373291015625,-1.312255859375,-0.091552734375
19.269999900000002,1.3958195447921753,-9.569623947143555,2.2433669567108154,-0.0762939453125,-1.373291015625,-0.1068115234375
19.2899999,1.3934253454208374,-9.569623947143555,2.2457611560821533,0.06103515625,-1.28173828125,-0.1678466796875
19.3099999,1.3886369466781616,-9.57201862335205,2.248155355453491,0.091552734375,-1.312255859375,-0.1373291015625
19.3299999,1.3862427473068237,-9.57441234588623,2.250549554824829,-0.06103515625,-1.3427734375,-0.1678466796875
19.3499999,1.3862427473068237,-9.576807022094727,2.252943754196167,-0.0152587890625,-1.312255859375,-0.152587890625
19.3699999,1.3862427473068237,-9.576807022094727,2.252943754196167,0.030517578125,-1.373291015625,-0.244140625
19.3899999,1.3886369466781616,-9.579200744628906,2.250549554824829,0.0762939453125,-1.312255859375,-0.2593994140625
19.409999900000003,1.3910311460494995,-9.579200744628906,2.2433669567108154,0.0152587890625,-1.2969970703125,-0.152587890625
19.429999900000002,1.3910311460494995,-9.579200744628906,2.2385785579681396,0.030517578125,-1.28173828125,-0.0457763671875
19.4499999,1.3886369466781616,-9.581595420837402,2.2361843585968018,-0.0152587890625,-1.28173828125,-0.152587890625
19.4699999,1.3838485479354858,-9.581595420837402,2.2361843585968018,-0.0152587890625,-1.251220703125,-0.1373291015625
19.4899999,1.381454348564148,-9.581595420837402,2.2385785579681396,0.1220703125,-1.2969970703125,-0.1678466796875
19.5099999,1.381454348564148,-9.576807022094727,2.2409727573394775,0.18310546875,-1.312255859375,-0.152587890625
19.5299999,1.3862427473068237,-9.576807022094727,2.2457611560821533,-0.1068115234375,-1.2969970703125,-0.1220703125
19.5499999,1.3886369466781616,-9.576807022094727,2.250549554824829,-0.213623046875,-1.3885498046875,-0.1678466796875
19.5699999,1.3886369466781616,-9.576807022094727,2.252943754196167,0.0152587890625,-1.3427734375,-0.152587890625
19.589999900000002,1.3862427473068237,-9.581595420837402,2.252943754196167,0.1983642578125,-1.2664794921875,-0.1068115234375
19.609999900000002,1.381454348564148,-9.583989143371582,2.248155355453491,0.06103515625,-1.2969970703125,-0.1220703125
19.6299999,1.381454348564148,-9.588777542114258,2.2457611560821533,0.0152587890625,-1.312255859375,-0.091552734375
19.6499999,1.3838485479354858,-9.588777542114258,2.2361843585968018,0.2288818359375,-1.190185546875,-0.0457763671875
19.6699999,1.3910311460494995,-9.593565940856934,2.229001760482788,0.48828125,-1.2359619140625,0.030517578125
19.6899999,1.3958195447921753,-9.591172218322754,2.2218191623687744,0.54931640625,-1.2054443359375,0.091552734375
19.7099999,1.3934253454208374,-9.59596061706543,2.2170307636260986,0.6866455078125,-1.190185546875,0.1220703125
19.7299999,1.3862427473068237,-9.600749015808105,2.2218191623687744,0.7171630859375,-1.15966796875,0.18310546875
19.749999900000002,1.3742717504501343,-9.607931137084961,2.2218191623687744,0.91552734375,-1.2054443359375,0.1983642578125
19.769999900000002,1.3742717504501343,-9.610325813293457,2.22660756111145,2.38037109375,-1.0986328125,0.4119873046875
19.7899999,1.3766659498214722,-9.59835433959961,2.231395959854126,1.8463134765625,-0.946044921875,0.4119873046875
19.8099999,1.381454348564148,-9.576807022094727,2.250549554824829,0.6256103515625,-0.885009765625,0.2593994140625
19.8299999,1.3862427473068237,-9.550470352172852,2.276885747909546,1.5869140625,-1.0833740234375,0.2593994140625
19.8499999,1.381454348564148,-9.526528358459473,2.3104045391082764,0.6256103515625,-1.2359619140625,0.091552734375
19.8699999,1.3718775510787964,-9.519346237182617,2.3319525718688965,0.244140625,-1.40380859375,-0.0762939453125
19.8899999,1.3646949529647827,-9.524134635925293,2.33913516998291,0.2288818359375,-1.312255859375,-0.06103515625
19.909999900000003,1.359906554222107,-9.536105155944824,2.3343467712402344,-0.579833984375,-1.251220703125,-0.1678466796875
19.929999900000002,1.3623007535934448,-9.552865028381348,2.31758713722229,0.213623046875,-1.312255859375,-0.152587890625
19.9499999,1.3646949529647827,-9.564835548400879,2.3032219409942627,-0.213623046875,-1.40380859375,-0.1983642578125
19.9699999,1.3766659498214722,-9.579200744628906,2.2864625453948975,0.1373291015625,-1.40380859375,-0.091552734375
19.9899999,1.3862427473068237,-9.581595420837402,2.2601263523101807,0.1678466796875,-1.3275146484375,0.0152587890625
20.0099999,1.3886369466781616,-9.591172218322754,2.2577321529388428,1.0833740234375,-1.1749267578125,0.030517578125
20.0299999,1.3862427473068237,-9.579200744628906,2.252943754196167,-0.5035400390625,-1.15966796875,-0.152587890625
20.0499999,1.381454348564148,-9.57441234588623,2.2697031497955322,-0.1678466796875,-1.3427734375,-0.152587890625
20.0699999,1.3766659498214722,-9.5624418258667,2.2888567447662354,-0.091552734375,-1.312255859375,-0.18310546875
20.089999900000002,1.3766659498214722,-9.555258750915527,2.296039342880249,0.518798828125,-1.312255859375,-0.152587890625
20.109999900000002,1.3766659498214722,-9.560047149658203,2.300827741622925,0.0762939453125,-1.2969970703125,-0.1983642578125
20.1299999,1.3766659498214722,-9.560047149658203,2.298433542251587,-0.823974609375,-1.2969970703125,-0.2593994140625
20.1499999,1.3766659498214722,-9.564835548400879,2.298433542251587,-0.1220703125,-1.40380859375,-0.2288818359375
20.1699999,1.37906014919281,-9.57201862335205,2.2888567447662354,0.06103515625,-1.3580322265625,-0.213623046875
20.1899999,1.381454348564148,-9.57441234588623,2.274491548538208,0.457763671875,-1.2664794921875,-0.030517578125
20.2099999,1.381454348564148,-9.579200744628906,2.27209734916687,0.54931640625,-1.2054443359375,0
20.2299999,1.3766659498214722,-9.57441234588623,2.27209734916687,-0.5340576171875,-1.2359619140625,-0.1220703125
20.249999900000002,1.3742717504501343,-9.569623947143555,2.2840683460235596,-0.3662109375,-1.40380859375,-0.152587890625
20.269999900000002,1.3742717504501343,-9.564835548400879,2.2912509441375732,-0.0457763671875,-1.3580322265625,-0.1983642578125
20.2899999,1.3718775510787964,-9.560047149658203,2.293645143508911,0.823974609375,-1.251220703125,-0.1220703125
20.3099999,1.3694833517074585,-9.5624418258667,2.293645143508911,0.1373291015625,-1.2664794921875,-0.1678466796875
20.3299999,1.3694833517074585,-9.5624418258667,2.2888567447662354,-0.9002685546875,-1.373291015625,-0.1983642578125
20.3499999,1.3718775510787964,-9.564835548400879,2.2864625453948975,-0.274658203125,-1.373291015625,-0.213623046875
20.3699999,1.37906014919281,-9.569623947143555,2.279279947280884,0.5035400390625,-1.312255859375,-0.1373291015625
20.3899999,1.3838485479354858,-9.57201862335205,2.274491548538208,0.8392333984375,-1.2359619140625,-0.152587890625
20.409999900000003,1.381454348564148,-9.57441234588623,2.274491548538208,-0.335693359375,-1.2054443359375,-0.1373291015625
20.429999900000002,1.3742717504501343,-9.57201862335205,2.2816741466522217,-0.5035400390625,-1.312255859375,-0.1220703125
20.4499999,1.3718775510787964,-9.567230224609375,2.2912509441375732,-0.0152587890625,-1.3580322265625,-0.1373291015625
20.4699999,1.3742717504501343,-9.564835548400879,2.293645143508911,0.4119873046875,-1.28173828125,-0.1068115234375
20.4899999,1.3718775510787964,-9.564835548400879,2.293645143508911,0.1983642578125,-1.312255859375,-0.1220703125
20.5099999,1.3694833517074585,-9.567230224609375,2.2912509441375732,-0.30517578125,-1.2969970703125,-0.1220703125
20.5299999,1.3694833517074585,-9.569623947143555,2.2864625453948975,-0.48828125,-1.3427734375,-0.1983642578125
20.5499999,1.3742717504501343,-9.57201862335205,2.2816741466522217,0.0152587890625,-1.3580322265625,-0.1220703125
20.5699999,1.37906014919281,-9.57441234588623,2.276885747909546,0.5645751953125,-1.3275146484375,-0.091552734375
20.589999900000002,1.3766659498214722,-9.57441234588623,2.279279947280884,0.335693359375,-1.28173828125,-0.152587890625
