# Time (seconds),Accel_X,Accel_Y,Accel_Z,Gyro_X,Gyro_Y,Gyro_Z
0.0099999,1.3862427473068237,9.607931137084961,-0.7781155705451965,-1.03759765625,-1.068115234375,-0.3509521484375
0.029999900000000003,1.3862427473068237,9.610325813293457,-0.7757213711738586,-0.1220703125,-1.2054443359375,0.1220703125
0.0499999,1.3886369466781616,9.610325813293457,-0.7733271718025208,1.0528564453125,-1.5716552734375,0.1068115234375
0.0699999,1.3862427473068237,9.610325813293457,-0.7709329724311829,-0.030517578125,-1.0986328125,-0.213623046875
0.08999990000000001,1.3838485479354858,9.607931137084961,-0.7805097699165344,-0.335693359375,-1.4495849609375,-0.3662109375
0.10999990000000001,1.381454348564148,9.607931137084961,-0.7805097699165344,-0.640869140625,-1.068115234375,-0.1220703125
0.1299999,1.381454348564148,9.605537414550781,-0.7829039692878723,0.244140625,-1.3580322265625,-0.030517578125
0.14999990000000002,1.381454348564148,9.605537414550781,-0.7781155705451965,0.6103515625,-1.434326171875,-0.1983642578125
0.1699999,1.381454348564148,9.605537414550781,-0.7733271718025208,-0.2593994140625,-1.2054443359375,-0.335693359375
0.1899999,1.381454348564148,9.605537414550781,-0.7757213711738586,-0.274658203125,-1.3275146484375,-0.2288818359375
0.20999990000000002,1.3862427473068237,9.607931137084961,-0.7709329724311829,-0.1983642578125,-1.220703125,0
0.2299999,1.3910311460494995,9.605537414550781,-0.7733271718025208,0.6866455078125,-1.5716552734375,-0.0762939453125
0.2499999,1.3886369466781616,9.605537414550781,-0.7733271718025208,0.42724609375,-1.28173828125,-0.30517578125
0.2699999,1.3862427473068237,9.603142738342285,-0.7829039692878723,-0.48828125,-1.2664794921875,-0.6256103515625
0.28999990000000003,1.381454348564148,9.603142738342285,-0.7876923680305481,-1.0528564453125,-1.15966796875,-0.5950927734375
0.3099999,1.37906014919281,9.605537414550781,-0.7852981686592102,-0.3509521484375,-1.15966796875,-0.1068115234375
0.3299999,1.37906014919281,9.610325813293457,-0.7781155705451965,0.9002685546875,-1.556396484375,0.2899169921875
0.34999990000000003,1.3766659498214722,9.610325813293457,-0.768538773059845,0.3204345703125,-1.251220703125,0.2288818359375
0.3699999,1.3766659498214722,9.610325813293457,-0.7733271718025208,0.1220703125,-1.4495849609375,0
0.3899999,1.37906014919281,9.607931137084961,-0.7757213711738586,-0.152587890625,-1.2664794921875,0.0152587890625
0.40999990000000003,1.3838485479354858,9.603142738342285,-0.7805097699165344,0.0152587890625,-1.2664794921875,0.0762939453125
0.4299999,1.3886369466781616,9.600749015808105,-0.7852981686592102,0.3509521484375,-1.4801025390625,-0.2593994140625
0.4499999,1.3862427473068237,9.600749015808105,-0.7852981686592102,-0.5645751953125,-1.1749267578125,-0.6103515625
0.4699999,1.3838485479354858,9.603142738342285,-0.7924807667732239,-0.396728515625,-1.2969970703125,-0.732421875
0.4899999,1.381454348564148,9.610325813293457,-0.790086567401886,-0.640869140625,-1.190185546875,-0.3204345703125
0.5099999,1.3838485479354858,9.607931137084961,-0.7924807667732239,0.1068115234375,-1.2969970703125,0.1678466796875
0.5299999,1.37906014919281,9.617507934570312,-0.7876923680305481,0.5035400390625,-1.52587890625,0.3509521484375
0.5499999,1.381454348564148,9.612719535827637,-0.768538773059845,-0.4425048828125,-1.1444091796875,0.5340576171875
0.5699999,1.381454348564148,9.607931137084961,-0.7661445140838623,0.6103515625,-1.5106201171875,0.30517578125
0.5899998999999999,1.3862427473068237,9.603142738342285,-0.7613561153411865,1.0833740234375,-1.373291015625,-0.0152587890625
0.6099998999999999,1.3958195447921753,9.59596061706543,-0.7733271718025208,-0.18310546875,-1.312255859375,-0.5645751953125
0.6299999,1.3934253454208374,9.593565940856934,-0.7829039692878723,-1.5869140625,-0.9613037109375,-0.79345703125
0.6499999,1.3886369466781616,9.59835433959961,-0.7948749661445618,-0.54931640625,-1.1444091796875,-0.91552734375
0.6699999,1.3862427473068237,9.603142738342285,-0.7852981686592102,-0.3204345703125,-1.434326171875,-0.6103515625
0.6899999,1.381454348564148,9.610325813293457,-0.7757213711738586,0.2288818359375,-1.1444091796875,0.152587890625
0.7099999,1.3766659498214722,9.615114212036133,-0.7757213711738586,0.732421875,-1.5411376953125,0.5645751953125
0.7299998999999999,1.3766659498214722,9.615114212036133,-0.7709329724311829,-0.1678466796875,-1.2054443359375,0.6256103515625
0.7499998999999999,1.381454348564148,9.615114212036133,-0.7757213711738586,0.1678466796875,-1.4495849609375,0.518798828125
0.7699999,1.3934253454208374,9.612719535827637,-0.7733271718025208,0.823974609375,-1.46484375,0.335693359375
0.7899999,1.400607943534851,9.610325813293457,-0.7781155705451965,0.640869140625,-1.2664794921875,-0.1220703125
0.8099999,1.4053963422775269,9.607931137084961,-0.790086567401886,-0.3204345703125,-1.434326171875,-1.0223388671875
0.8299999,1.403002142906189,9.605537414550781,-0.7948749661445618,-1.7242431640625,-0.946044921875,-1.373291015625
0.8499998999999999,1.3958195447921753,9.605537414550781,-0.7972691655158997,-0.9002685546875,-1.2054443359375,-1.0223388671875
0.8699998999999999,1.3862427473068237,9.607931137084961,-0.7876923680305481,0.213623046875,-1.4190673828125,-0.48828125
0.8899999,1.37906014919281,9.612719535827637,-0.7733271718025208,0.1678466796875,-1.28173828125,0.1068115234375
0.9099999,1.3718775510787964,9.617507934570312,-0.768538773059845,0.5035400390625,-1.4801025390625,0.7476806640625
0.9299999,1.3718775510787964,9.619902610778809,-0.7637503147125244,0.30517578125,-1.28173828125,0.9765625
0.9499999,1.37906014919281,9.617507934570312,-0.7661445140838623,0.701904296875,-1.3885498046875,0.762939453125
0.9699998999999999,1.3886369466781616,9.610325813293457,-0.7661445140838623,0.518798828125,-1.3580322265625,0.1373291015625
0.9899998999999999,1.3982137441635132,9.603142738342285,-0.7757213711738586,-0.0152587890625,-1.2359619140625,-0.4730224609375
1.0099999,1.400607943534851,9.59596061706543,-0.7876923680305481,-0.79345703125,-1.220703125,-1.0528564453125
1.0299999,1.3958195447921753,9.593565940856934,-0.7972691655158997,-1.2969970703125,-1.0528564453125,-1.2664794921875
1.0499999,1.3862427473068237,9.59835433959961,-0.7972691655158997,-0.67138671875,-1.190185546875,-0.91552734375
1.0699999,1.381454348564148,9.607931137084961,-0.7876923680305481,-0.274658203125,-1.312255859375,0
1.0899999,1.3742717504501343,9.617507934570312,-0.768538773059845,0.396728515625,-1.434326171875,1.129150390625
1.1099999,1.3742717504501343,9.624691009521484,-0.7565677165985107,1.77001953125,-1.5716552734375,1.2359619140625
1.1299999,1.3766659498214722,9.619902610778809,-0.7613561153411865,1.495361328125,-1.4801025390625,0.67138671875
1.1499999,1.381454348564148,9.612719535827637,-0.7757213711738586,-0.4730224609375,-1.2969970703125,-0.18310546875
1.1699998999999999,1.3862427473068237,9.603142738342285,-0.7924807667732239,-1.2969970703125,-0.9918212890625,-0.732421875
1.1899998999999999,1.3958195447921753,9.59835433959961,-0.7996633648872375,-0.5645751953125,-1.3580322265625,-1.03759765625
1.2099999,1.3958195447921753,9.59835433959961,-0.7924807667732239,-0.30517578125,-1.312255859375,-1.068115234375
1.2299999,1.3886369466781616,9.600749015808105,-0.7876923680305481,-0.244140625,-1.190185546875,-0.7171630859375
1.2499999,1.37906014919281,9.605537414550781,-0.7852981686592102,-0.1678466796875,-1.3580322265625,-0.3204345703125
1.2699999,1.3742717504501343,9.610325813293457,-0.7829039692878723,-0.54931640625,-1.1749267578125,0.2899169921875
1.2899999,1.3766659498214722,9.615114212036133,-0.7805097699165344,0.6561279296875,-1.556396484375,0.8697509765625
1.3099999,1.3862427473068237,9.617507934570312,-0.7733271718025208,1.3275146484375,-1.5411376953125,1.0833740234375
1.3299999,1.3958195447921753,9.617507934570312,-0.7733271718025208,0.9918212890625,-1.4190673828125,0.4730224609375
1.3499999,1.400607943534851,9.610325813293457,-0.7805097699165344,-0.1220703125,-1.434326171875,-0.6103515625
1.3699999,1.403002142906189,9.605537414550781,-0.7876923680305481,-1.129150390625,-1.1138916015625,-1.15966796875
1.3899999,1.4053963422775269,9.59835433959961,-0.790086567401886,-0.8544921875,-1.2359619140625,-1.1444091796875
1.4099999,1.3982137441635132,9.59596061706543,-0.7876923680305481,-0.457763671875,-1.1749267578125,-0.9613037109375
1.4299998999999999,1.3886369466781616,9.600749015808105,-0.7805097699165344,-0.2899169921875,-1.3427734375,-0.6103515625
1.4499999,1.37906014919281,9.603142738342285,-0.7733271718025208,-0.1068115234375,-1.312255859375,0.152587890625
1.4699999,1.3742717504501343,9.607931137084961,-0.7637503147125244,0.5035400390625,-1.3427734375,0.79345703125
1.4899999,1.37906014919281,9.610325813293457,-0.7613561153411865,1.0833740234375,-1.52587890625,1.220703125
1.5099999,1.3886369466781616,9.607931137084961,-0.7589619159698486,0.9765625,-1.3885498046875,0.79345703125
1.5299999,1.3982137441635132,9.607931137084961,-0.7709329724311829,0.3662109375,-1.3885498046875,0.030517578125
1.5499999,1.403002142906189,9.603142738342285,-0.7852981686592102,-0.457763671875,-1.28173828125,-0.6866455078125
1.5699999,1.4053963422775269,9.59835433959961,-0.7996633648872375,-1.1138916015625,-1.068115234375,-1.251220703125
1.5899999,1.3982137441635132,9.603142738342285,-0.8020575642585754,-0.885009765625,-1.129150390625,-1.28173828125
1.6099999,1.3910311460494995,9.603142738342285,-0.7972691655158997,-0.6256103515625,-1.2664794921875,-0.8392333984375
1.6299999,1.37906014919281,9.612719535827637,-0.7876923680305481,-0.335693359375,-1.373291015625,-0.30517578125
1.6499999,1.381454348564148,9.615114212036133,-0.7661445140838623,-0.213623046875,-1.373291015625,0.91552734375
1.6699999,1.3838485479354858,9.617507934570312,-0.7613561153411865,1.9683837890625,-1.6937255859375,1.5716552734375
1.6899998999999999,1.3862427473068237,9.615114212036133,-0.7613561153411865,2.0599365234375,-1.4495849609375,1.2969970703125
1.7099999,1.3958195447921753,9.607931137084961,-0.7661445140838623,-0.244140625,-1.4190673828125,0.06103515625
1.7299999,1.3982137441635132,9.59835433959961,-0.7852981686592102,-1.0986328125,-1.1444091796875,-1.007080078125
1.7499999,1.4053963422775269,9.59596061706543,-0.7948749661445618,-0.518798828125,-1.2664794921875,-1.495361328125
1.7699999,1.4101848602294922,9.59835433959961,-0.7996633648872375,-0.9765625,-1.251220703125,-1.434326171875
1.7899999,1.4053963422775269,9.603142738342285,-0.7972691655158997,-0.732421875,-1.1444091796875,-0.9307861328125
1.8099999,1.3886369466781616,9.610325813293457,-0.7948749661445618,-0.1983642578125,-1.3580322265625,-0.3509521484375
1.8299999,1.37906014919281,9.615114212036133,-0.7805097699165344,-0.18310546875,-1.2054443359375,0.4119873046875
1.8499999,1.3742717504501343,9.619902610778809,-0.768538773059845,0.8087158203125,-1.46484375,1.0833740234375
1.8699999,1.381454348564148,9.619902610778809,-0.7613561153411865,1.5106201171875,-1.5716552734375,1.4495849609375
1.8899999,1.3886369466781616,9.615114212036133,-0.7661445140838623,1.3427734375,-1.5411376953125,0.8392333984375
1.9099999,1.3982137441635132,9.607931137084961,-0.7805097699165344,-0.5645751953125,-1.312255859375,-0.3662109375
1.9299998999999999,1.4053963422775269,9.600749015808105,-0.7876923680305481,-1.3427734375,-1.007080078125,-1.1444091796875
1.9499999,1.4077905416488647,9.593565940856934,-0.7972691655158997,-0.335693359375,-1.2359619140625,-1.373291015625
1.9699999,1.4077905416488647,9.593565940856934,-0.7972691655158997,-0.4119873046875,-1.251220703125,-1.220703125
1.9899999,1.3982137441635132,9.59596061706543,-0.7948749661445618,-0.9002685546875,-1.190185546875,-0.91552734375
2.0099999,1.3886369466781616,9.603142738342285,-0.7876923680305481,-0.54931640625,-1.220703125,-0.091552734375
2.0299999,1.381454348564148,9.607931137084961,-0.7757213711738586,0.732421875,-1.434326171875,0.762939453125
2.0499999,1.3838485479354858,9.612719535827637,-0.768538773059845,1.4801025390625,-1.6326904296875,1.3427734375
2.0699999,1.3886369466781616,9.612719535827637,-0.7661445140838623,1.0528564453125,-1.4801025390625,1.0223388671875
2.0899999,1.3934253454208374,9.605537414550781,-0.7781155705451965,0.274658203125,-1.40380859375,0.18310546875
2.1099999,1.3982137441635132,9.59835433959961,-0.7876923680305481,-0.701904296875,-1.251220703125,-0.6561279296875
2.1299999,1.403002142906189,9.591172218322754,-0.7972691655158997,-1.0833740234375,-1.1444091796875,-1.251220703125
2.1499999,1.400607943534851,9.591172218322754,-0.7996633648872375,-0.67138671875,-1.251220703125,-1.2664794921875
2.1699999,1.3958195447921753,9.593565940856934,-0.7948749661445618,-0.701904296875,-1.129150390625,-0.9613037109375
2.1899999,1.3862427473068237,9.600749015808105,-0.7876923680305481,-0.579833984375,-1.28173828125,-0.335693359375
2.2099999,1.37906014919281,9.610325813293457,-0.7757213711738586,0.06103515625,-1.3427734375,0.5340576171875
2.2299999,1.3766659498214722,9.615114212036133,-0.768538773059845,1.28173828125,-1.495361328125,1.190185546875
2.2499999,1.37906014919281,9.617507934570312,-0.7661445140838623,1.4190673828125,-1.5869140625,1.2054443359375
2.2699999,1.3862427473068237,9.610325813293457,-0.7757213711738586,0.4119873046875,-1.4190673828125,0.4730224609375
2.2899999,1.3934253454208374,9.605537414550781,-0.7876923680305481,-0.42724609375,-1.2969970703125,-0.5035400390625
2.3099999,1.403002142906189,9.59596061706543,-0.7996633648872375,-0.823974609375,-1.15966796875,-1.03759765625
2.3299999,1.4077905416488647,9.59596061706543,-0.8044517636299133,-0.7476806640625,-1.190185546875,-1.251220703125
2.3499999,1.4101848602294922,9.59835433959961,-0.7996633648872375,-0.79345703125,-1.1444091796875,-1.1138916015625
2.3699999,1.403002142906189,9.605537414550781,-0.7924807667732239,-0.48828125,-1.2359619140625,-0.640869140625
2.3899999,1.3958195447921753,9.612719535827637,-0.7805097699165344,-0.0152587890625,-1.3427734375,0.1373291015625
2.4099999,1.3910311460494995,9.619902610778809,-0.7733271718025208,0.640869140625,-1.4190673828125,0.8087158203125
2.4299999,1.3886369466781616,9.619902610778809,-0.768538773059845,1.2054443359375,-1.5106201171875,1.0833740234375
2.4499999,1.3910311460494995,9.617507934570312,-0.7733271718025208,0.7781982421875,-1.3885498046875,0.79345703125
2.4699999,1.3934253454208374,9.607931137084961,-0.7829039692878723,0.0152587890625,-1.3885498046875,0.0457763671875
2.4899999,1.400607943534851,9.59835433959961,-0.7924807667732239,-0.54931640625,-1.2664794921875,-0.5950927734375
2.5099999,1.403002142906189,9.593565940856934,-0.7972691655158997,-0.823974609375,-1.1138916015625,-0.9918212890625
2.5299999,1.400607943534851,9.593565940856934,-0.7972691655158997,-0.5645751953125,-1.2054443359375,-1.068115234375
2.5499999,1.3934253454208374,9.600749015808105,-0.7924807667732239,-0.579833984375,-1.220703125,-0.8087158203125
2.5699999,1.3838485479354858,9.605537414550781,-0.7829039692878723,-0.2288818359375,-1.2359619140625,-0.1983642578125
2.5899999,1.37906014919281,9.612719535827637,-0.7757213711738586,0.457763671875,-1.373291015625,0.518798828125
2.6099999,1.37906014919281,9.615114212036133,-0.768538773059845,0.79345703125,-1.40380859375,0.9918212890625
2.6299999,1.37906014919281,9.612719535827637,-0.7709329724311829,0.946044921875,-1.4801025390625,0.8087158203125
2.6499999,1.3862427473068237,9.607931137084961,-0.7781155705451965,0.1678466796875,-1.312255859375,0.213623046875
2.6699999,1.3910311460494995,9.600749015808105,-0.790086567401886,-0.3204345703125,-1.2054443359375,-0.4119873046875
2.6899999,1.3958195447921753,9.59596061706543,-0.7972691655158997,-0.5950927734375,-1.251220703125,-0.8544921875
2.7099999,1.400607943534851,9.59596061706543,-0.7996633648872375,-0.701904296875,-1.15966796875,-1.0528564453125
2.7299999,1.3982137441635132,9.59835433959961,-0.7924807667732239,-0.4730224609375,-1.312255859375,-0.9002685546875
2.7499999,1.3910311460494995,9.603142738342285,-0.7829039692878723,-0.335693359375,-1.3275146484375,-0.335693359375
2.7699999,1.3862427473068237,9.607931137084961,-0.7757213711738586,0.1220703125,-1.3885498046875,0.1678466796875
2.7899999,1.3838485479354858,9.610325813293457,-0.7709329724311829,0.54931640625,-1.46484375,0.6866455078125
2.8099999,1.381454348564148,9.610325813293457,-0.7733271718025208,0.6866455078125,-1.373291015625,0.7171630859375
2.8299999,1.3862427473068237,9.605537414550781,-0.7829039692878723,0.4730224609375,-1.3885498046875,0.3509521484375
2.8499999,1.3910311460494995,9.600749015808105,-0.7924807667732239,-0.18310546875,-1.28173828125,-0.1678466796875
2.8699999,1.3982137441635132,9.59835433959961,-0.8020575642585754,-0.42724609375,-1.2359619140625,-0.5645751953125
2.8899999,1.4053963422775269,9.59596061706543,-0.8068459630012512,-0.457763671875,-1.2969970703125,-0.6866455078125
2.9099999,1.4077905416488647,9.59596061706543,-0.8044517636299133,-0.5340576171875,-1.15966796875,-0.762939453125
2.9299999,1.4053963422775269,9.59835433959961,-0.7996633648872375,-0.274658203125,-1.251220703125,-0.5340576171875
2.9499999,1.3982137441635132,9.600749015808105,-0.7876923680305481,-0.0762939453125,-1.3275146484375,-0.152587890625
2.9699999,1.3910311460494995,9.603142738342285,-0.7805097699165344,0.335693359375,-1.3427734375,0.2899169921875
2.9899999,1.3862427473068237,9.603142738342285,-0.7757213711738586,0.54931640625,-1.4190673828125,0.579833984375
3.0099999,1.3838485479354858,9.605537414550781,-0.7781155705451965,0.396728515625,-1.312255859375,0.3509521484375
3.0299999,1.3838485479354858,9.603142738342285,-0.7852981686592102,0.0762939453125,-1.3275146484375,-0.030517578125
3.0499999,1.3862427473068237,9.59835433959961,-0.7924807667732239,-0.244140625,-1.2969970703125,-0.335693359375
3.0699999,1.3910311460494995,9.59835433959961,-0.7972691655158997,-0.3814697265625,-1.2359619140625,-0.6103515625
3.0899999,1.3958195447921753,9.59596061706543,-0.7996633648872375,-0.2899169921875,-1.251220703125,-0.6103515625
3.1099999,1.3982137441635132,9.59835433959961,-0.7972691655158997,-0.335693359375,-1.28173828125,-0.396728515625
3.1299999,1.3958195447921753,9.600749015808105,-0.7948749661445618,-0.2593994140625,-1.251220703125,-0.2288818359375
3.1499999,1.3958195447921753,9.607931137084961,-0.790086567401886,0.1678466796875,-1.28173828125,0.0152587890625
3.1699999,1.3934253454208374,9.610325813293457,-0.790086567401886,0.4119873046875,-1.312255859375,0.244140625
3.1899999,1.3934253454208374,9.610325813293457,-0.7924807667732239,0.335693359375,-1.373291015625,0.3509521484375
3.2099999,1.3934253454208374,9.607931137084961,-0.7948749661445618,0.030517578125,-1.312255859375,0.091552734375
3.2299999,1.3934253454208374,9.603142738342285,-0.7996633648872375,-0.213623046875,-1.2359619140625,-0.2899169921875
3.2499999,1.3958195447921753,9.603142738342285,-0.7972691655158997,-0.30517578125,-1.2664794921875,-0.42724609375
3.2699999,1.3958195447921753,9.603142738342285,-0.7972691655158997,-0.2593994140625,-1.28173828125,-0.3814697265625
3.2899999,1.3934253454208374,9.605537414550781,-0.7924807667732239,-0.0457763671875,-1.3275146484375,-0.335693359375
3.3099999,1.3934253454208374,9.605537414550781,-0.7876923680305481,-0.1373291015625,-1.2054443359375,-0.244140625
3.3299999000000002,1.3886369466781616,9.607931137084961,-0.7852981686592102,-0.030517578125,-1.2664794921875,-0.18310546875
3.3499999,1.3862427473068237,9.605537414550781,-0.7852981686592102,0.091552734375,-1.312255859375,0.06103515625
3.3699999,1.3862427473068237,9.605537414550781,-0.7852981686592102,0.1373291015625,-1.220703125,0.1983642578125
3.3899999,1.3886369466781616,9.600749015808105,-0.790086567401886,0.1373291015625,-1.3580322265625,0.091552734375
3.4099999,1.3910311460494995,9.600749015808105,-0.7924807667732239,-0.1373291015625,-1.28173828125,-0.0457763671875
3.4299999,1.3934253454208374,9.59835433959961,-0.7948749661445618,-0.1678466796875,-1.28173828125,-0.1678466796875
3.4499999,1.3934253454208374,9.59835433959961,-0.7924807667732239,-0.18310546875,-1.3275146484375,-0.2288818359375
3.4699999,1.3958195447921753,9.59835433959961,-0.790086567401886,-0.213623046875,-1.3275146484375,-0.274658203125
3.4899999,1.3958195447921753,9.59835433959961,-0.790086567401886,-0.1068115234375,-1.28173828125,-0.2593994140625
3.5099999,1.3982137441635132,9.59835433959961,-0.7876923680305481,0,-1.3427734375,-0.18310546875
3.5299999,1.3958195447921753,9.59835433959961,-0.790086567401886,0.1220703125,-1.40380859375,-0.091552734375
3.5499999,1.3958195447921753,9.600749015808105,-0.790086567401886,0.0457763671875,-1.3580322265625,-0.030517578125
3.5699999,1.3958195447921753,9.600749015808105,-0.7924807667732239,-0.0457763671875,-1.312255859375,0.030517578125
3.5899999,1.3958195447921753,9.600749015808105,-0.7924807667732239,-0.091552734375,-1.251220703125,-0.1220703125
3.6099999,1.3958195447921753,9.600749015808105,-0.7972691655158997,-0.1068115234375,-1.3275146484375,-0.1678466796875
3.6299999,1.3958195447921753,9.600749015808105,-0.7972691655158997,-0.1373291015625,-1.312255859375,-0.2288818359375
3.6499999,1.3958195447921753,9.600749015808105,-0.7948749661445618,-0.152587890625,-1.251220703125,-0.152587890625
3.6699999,1.3934253454208374,9.603142738342285,-0.7924807667732239,0.0762939453125,-1.40380859375,-0.1220703125
3.6899999,1.3934253454208374,9.603142738342285,-0.7876923680305481,-0.1068115234375,-1.2664794921875,-0.1678466796875
3.7099999,1.3934253454208374,9.600749015808105,-0.7876923680305481,0,-1.3275146484375,-0.2288818359375
3.7299999,1.3934253454208374,9.59835433959961,-0.7876923680305481,-0.0457763671875,-1.312255859375,-0.1983642578125
3.7499999,1.3958195447921753,9.59835433959961,-0.790086567401886,-0.213623046875,-1.2054443359375,-0.1678466796875
3.7699999,1.3958195447921753,9.59835433959961,-0.7924807667732239,-0.030517578125,-1.312255859375,-0.1373291015625
3.7899999,1.3982137441635132,9.600749015808105,-0.7924807667732239,0.06103515625,-1.2969970703125,-0.1220703125
3.8099999,1.3982137441635132,9.603142738342285,-0.7924807667732239,-0.0152587890625,-1.2969970703125,-0.091552734375
3.8299999000000002,1.400607943534851,9.605537414550781,-0.7924807667732239,-0.030517578125,-1.312255859375,-0.1373291015625
3.8499999,1.3982137441635132,9.605537414550781,-0.7924807667732239,-0.06103515625,-1.28173828125,-0.18310546875
3.8699999,1.3934253454208374,9.603142738342285,-0.7948749661445618,0.030517578125,-1.3275146484375,-0.1068115234375
3.8899999,1.3910311460494995,9.603142738342285,-0.7972691655158997,0.091552734375,-1.2969970703125,-0.213623046875
3.9099999,1.3886369466781616,9.600749015808105,-0.7996633648872375,-0.1220703125,-1.3427734375,-0.2288818359375
3.9299999,1.3886369466781616,9.600749015808105,-0.7996633648872375,-0.1068115234375,-1.28173828125,-0.1678466796875
3.9499999,1.3910311460494995,9.603142738342285,-0.7996633648872375,-0.0457763671875,-1.312255859375,-0.1068115234375
3.9699999,1.3934253454208374,9.603142738342285,-0.7972691655158997,0.0152587890625,-1.3427734375,-0.1220703125
3.9899999,1.3958195447921753,9.603142738342285,-0.7924807667732239,0.091552734375,-1.3427734375,-0.1373291015625
4.0099999,1.3958195447921753,9.603142738342285,-0.790086567401886,0.030517578125,-1.312255859375,-0.06103515625
4.029999900000001,1.3982137441635132,9.603142738342285,-0.7876923680305481,-0.0457763671875,-1.2969970703125,-0.0457763671875
4.0499999,1.400607943534851,9.600749015808105,-0.7876923680305481,0,-1.2969970703125,-0.1678466796875
4.069999900000001,1.400607943534851,9.603142738342285,-0.7876923680305481,-0.0762939453125,-1.251220703125,-0.213623046875
4.0899999000000005,1.400607943534851,9.600749015808105,-0.790086567401886,-0.06103515625,-1.3580322265625,-0.152587890625
4.1099999,1.3982137441635132,9.600749015808105,-0.7924807667732239,-0.0152587890625,-1.28173828125,-0.213623046875
4.1299999000000005,1.3982137441635132,9.600749015808105,-0.7924807667732239,-0.06103515625,-1.312255859375,-0.2593994140625
4.1499999,1.3982137441635132,9.600749015808105,-0.7924807667732239,-0.091552734375,-1.28173828125,-0.1220703125
4.1699999000000005,1.3982137441635132,9.600749015808105,-0.790086567401886,-0.06103515625,-1.2664794921875,-0.0457763671875
4.1899999,1.400607943534851,9.603142738342285,-0.7924807667732239,0.1373291015625,-1.2969970703125,-0.1373291015625
4.209999900000001,1.400607943534851,9.603142738342285,-0.7924807667732239,0.06103515625,-1.312255859375,-0.0762939453125
4.2299999,1.400607943534851,9.605537414550781,-0.7924807667732239,-0.0457763671875,-1.28173828125,-0.06103515625
4.249999900000001,1.400607943534851,9.605537414550781,-0.7948749661445618,-0.0152587890625,-1.3275146484375,-0.1220703125
4.2699999,1.400607943534851,9.605537414550781,-0.7948749661445618,-0.0762939453125,-1.373291015625,-0.213623046875
4.289999900000001,1.3982137441635132,9.603142738342285,-0.7948749661445618,-0.1678466796875,-1.373291015625,-0.2593994140625
4.3099999,1.3958195447921753,9.603142738342285,-0.7948749661445618,-0.1220703125,-1.2969970703125,-0.18310546875
4.329999900000001,1.3934253454208374,9.603142738342285,-0.7924807667732239,-0.0762939453125,-1.3427734375,-0.091552734375
4.3499999,1.3934253454208374,9.603142738342285,-0.7924807667732239,-0.0152587890625,-1.312255859375,-0.0152587890625
4.369999900000001,1.3910311460494995,9.603142738342285,-0.7924807667732239,0.1068115234375,-1.3580322265625,-0.0152587890625
4.3899999,1.3934253454208374,9.603142738342285,-0.7924807667732239,0.0152587890625,-1.373291015625,-0.091552734375
4.409999900000001,1.3958195447921753,9.600749015808105,-0.7924807667732239,-0.091552734375,-1.3275146484375,-0.1220703125
4.4299999,1.3982137441635132,9.600749015808105,-0.7948749661445618,-0.152587890625,-1.312255859375,-0.1678466796875
4.449999900000001,1.400607943534851,9.600749015808105,-0.7948749661445618,-0.213623046875,-1.2359619140625,-0.1220703125
4.4699999,1.400607943534851,9.603142738342285,-0.7924807667732239,-0.0762939453125,-1.3427734375,-0.1678466796875
4.489999900000001,1.3982137441635132,9.603142738342285,-0.7924807667732239,-0.091552734375,-1.312255859375,-0.18310546875
4.5099999,1.3958195447921753,9.603142738342285,-0.790086567401886,-0.1373291015625,-1.2664794921875,-0.152587890625
4.529999900000001,1.3958195447921753,9.605537414550781,-0.7876923680305481,0.1068115234375,-1.3275146484375,-0.06103515625
4.5499999,1.3934253454208374,9.605537414550781,-0.7876923680305481,-0.030517578125,-1.2969970703125,-0.0457763671875
4.569999900000001,1.3958195447921753,9.605537414550781,-0.7876923680305481,-0.0152587890625,-1.28173828125,-0.0152587890625
4.5899999000000005,1.3982137441635132,9.605537414550781,-0.790086567401886,-0.091552734375,-1.2664794921875,-0.091552734375
4.609999900000001,1.400607943534851,9.603142738342285,-0.7924807667732239,-0.0457763671875,-1.28173828125,-0.1678466796875
4.6299999000000005,1.400607943534851,9.600749015808105,-0.7948749661445618,0.0457763671875,-1.3885498046875,-0.18310546875
4.6499999,1.400607943534851,9.59835433959961,-0.7972691655158997,-0.1373291015625,-1.28173828125,-0.1678466796875
4.6699999000000005,1.400607943534851,9.59835433959961,-0.7996633648872375,-0.1373291015625,-1.2969970703125,-0.2288818359375
4.6899999,1.400607943534851,9.59835433959961,-0.7996633648872375,-0.18310546875,-1.312255859375,-0.1678466796875
4.709999900000001,1.3982137441635132,9.59835433959961,-0.7996633648872375,0.1220703125,-1.3427734375,-0.0457763671875
4.7299999,1.3982137441635132,9.59835433959961,-0.7996633648872375,0.1678466796875,-1.4190673828125,-0.06103515625
4.749999900000001,1.3958195447921753,9.59835433959961,-0.7972691655158997,-0.1678466796875,-1.28173828125,-0.18310546875
4.7699999,1.3982137441635132,9.59835433959961,-0.7996633648872375,-0.0152587890625,-1.3275146484375,-0.091552734375
4.789999900000001,1.3982137441635132,9.600749015808105,-0.7996633648872375,0,-1.3275146484375,-0.18310546875
4.8099999,1.400607943534851,9.600749015808105,-0.7996633648872375,-0.0152587890625,-1.3580322265625,-0.1373291015625
4.829999900000001,1.403002142906189,9.59835433959961,-0.7972691655158997,0.0152587890625,-1.2664794921875,-0.152587890625
4.8499999,1.403002142906189,9.59835433959961,-0.7948749661445618,-0.1220703125,-1.28173828125,-0.2288818359375
4.869999900000001,1.400607943534851,9.59596061706543,-0.7948749661445618,-0.0762939453125,-1.373291015625,-0.1983642578125
4.8899999,1.400607943534851,9.59596061706543,-0.7924807667732239,0.0152587890625,-1.2969970703125,-0.0762939453125
4.909999900000001,1.400607943534851,9.59596061706543,-0.7948749661445618,0.1220703125,-1.3275146484375,0.0152587890625
4.9299999,1.400607943534851,9.59596061706543,-0.7972691655158997,0.0152587890625,-1.251220703125,-0.1373291015625
4.949999900000001,1.3982137441635132,9.59835433959961,-0.7972691655158997,-0.2288818359375,-1.312255859375,-0.152587890625
4.9699999,1.3982137441635132,9.59835433959961,-0.7972691655158997,0,-1.2664794921875,-0.091552734375
4.989999900000001,1.3958195447921753,9.59835433959961,-0.7972691655158997,0.244140625,-1.373291015625,-0.091552734375
5.0099999,1.3958195447921753,9.59835433959961,-0.7972691655158997,-0.1068115234375,-1.28173828125,-0.2593994140625
5.029999900000001,1.3934253454208374,9.59835433959961,-0.7996633648872375,-0.18310546875,-1.2664794921875,-0.1983642578125
5.0499999,1.3934253454208374,9.59835433959961,-0.7996633648872375,0.0152587890625,-1.434326171875,-0.1068115234375
5.069999900000001,1.3934253454208374,9.600749015808105,-0.7972691655158997,0,-1.2969970703125,-0.1068115234375
5.0899999000000005,1.3934253454208374,9.59835433959961,-0.7948749661445618,0.06103515625,-1.312255859375,-0.1068115234375
5.109999900000001,1.3958195447921753,9.59835433959961,-0.7948749661445618,0.030517578125,-1.3427734375,-0.1220703125
5.1299999000000005,1.3958195447921753,9.59835433959961,-0.7948749661445618,-0.213623046875,-1.28173828125,-0.1068115234375
5.1499999,1.3982137441635132,9.59835433959961,-0.7996633648872375,-0.0762939453125,-1.3427734375,-0.0762939453125
5.1699999000000005,1.3982137441635132,9.59596061706543,-0.7996633648872375,0.06103515625,-1.2969970703125,-0.06103515625
5.1899999,1.3982137441635132,9.59596061706543,-0.7996633648872375,0.06103515625,-1.312255859375,-0.1220703125
5.209999900000001,1.3958195447921753,9.593565940856934,-0.7996633648872375,-0.152587890625,-1.251220703125,-0.1678466796875
5.2299999,1.3958195447921753,9.593565940856934,-0.7972691655158997,-0.244140625,-1.251220703125,-0.244140625
5.249999900000001,1.3958195447921753,9.593565940856934,-0.7996633648872375,0.1220703125,-1.3275146484375,-0.1220703125
5.2699999,1.3958195447921753,9.593565940856934,-0.7972691655158997,0.1373291015625,-1.3580322265625,-0.0457763671875
5.289999900000001,1.3982137441635132,9.59596061706543,-0.7996633648872375,0.0457763671875,-1.3580322265625,-0.030517578125
5.3099999,1.3982137441635132,9.59596061706543,-0.7996633648872375,0.0152587890625,-1.40380859375,-0.1678466796875
5.329999900000001,1.400607943534851,9.59596061706543,-0.7996633648872375,-0.0457763671875,-1.312255859375,-0.1068115234375
5.3499999,1.400607943534851,9.59596061706543,-0.7996633648872375,-0.0457763671875,-1.373291015625,-0.18310546875
5.369999900000001,1.400607943534851,9.59835433959961,-0.7972691655158997,0,-1.373291015625,-0.274658203125
5.3899999,1.400607943534851,9.59835433959961,-0.7948749661445618,0.0457763671875,-1.3427734375,-0.1678466796875
5.409999900000001,1.403002142906189,9.600749015808105,-0.7972691655158997,0,-1.3275146484375,-0.1983642578125
5.4299999,1.403002142906189,9.600749015808105,-0.7996633648872375,-0.030517578125,-1.312255859375,-0.2288818359375
5.449999900000001,1.403002142906189,9.600749015808105,-0.7996633648872375,-0.091552734375,-1.3275146484375,-0.2288818359375
5.4699999,1.400607943534851,9.600749015808105,-0.7996633648872375,0,-1.3275146484375,-0.30517578125
5.489999900000001,1.400607943534851,9.600749015808105,-0.7972691655158997,0.1220703125,-1.28173828125,-0.2899169921875
5.5099999,1.400607943534851,9.603142738342285,-0.7972691655158997,0,-1.312255859375,-0.3204345703125
5.529999900000001,1.400607943534851,9.603142738342285,-0.7972691655158997,0.030517578125,-1.3427734375,-0.0762939453125
5.5499999,1.403002142906189,9.603142738342285,-0.7948749661445618,0.213623046875,-1.3427734375,0.06103515625
5.569999900000001,1.403002142906189,9.603142738342285,-0.7972691655158997,0.4730224609375,-1.40380859375,-0.213623046875
5.5899999000000005,1.403002142906189,9.603142738342285,-0.7996633648872375,0.152587890625,-1.28173828125,-0.54931640625
5.609999900000001,1.400607943534851,9.600749015808105,-0.8020575642585754,-0.3814697265625,-1.2664794921875,-0.518798828125
5.6299999000000005,1.3982137441635132,9.600749015808105,-0.8068459630012512,0,-1.40380859375,-0.5035400390625
5.6499999,1.3934253454208374,9.600749015808105,-0.8068459630012512,-0.0457763671875,-1.312255859375,-0.5035400390625
5.6699999000000005,1.3910311460494995,9.59835433959961,-0.8044517636299133,0.1068115234375,-1.373291015625,-0.3814697265625
5.6899999,1.3862427473068237,9.59596061706543,-0.8020575642585754,0.091552734375,-1.40380859375,-0.2899169921875
5.709999900000001,1.3838485479354858,9.59596061706543,-0.8020575642585754,-0.1983642578125,-1.251220703125,-0.1678466796875
5.7299999,1.3862427473068237,9.59596061706543,-0.8044517636299133,0.152587890625,-1.434326171875,0.0457763671875
5.749999900000001,1.3886369466781616,9.59596061706543,-0.8020575642585754,0.152587890625,-1.28173828125,0.244140625
5.7699999,1.3934253454208374,9.59835433959961,-0.8020575642585754,0.2288818359375,-1.40380859375,0.2288818359375
5.789999900000001,1.3934253454208374,9.600749015808105,-0.8044517636299133,0.152587890625,-1.373291015625,-0.0457763671875
5.8099999,1.3958195447921753,9.600749015808105,-0.8044517636299133,-0.2899169921875,-1.2664794921875,-0.2593994140625
5.829999900000001,1.400607943534851,9.603142738342285,-0.8068459630012512,0.0457763671875,-1.3885498046875,-0.213623046875
5.8499999,1.400607943534851,9.600749015808105,-0.8068459630012512,-0.091552734375,-1.28173828125,-0.274658203125
5.869999900000001,1.3982137441635132,9.600749015808105,-0.8068459630012512,-0.274658203125,-1.373291015625,-0.4730224609375
5.8899999,1.3958195447921753,9.59835433959961,-0.8044517636299133,-0.1373291015625,-1.3580322265625,-0.4425048828125
5.909999900000001,1.3910311460494995,9.59835433959961,-0.8020575642585754,-0.1068115234375,-1.251220703125,-0.0457763671875
5.9299999,1.3910311460494995,9.59835433959961,-0.7996633648872375,0.3204345703125,-1.3885498046875,0.1678466796875
5.949999900000001,1.3910311460494995,9.600749015808105,-0.7972691655158997,0.18310546875,-1.373291015625,0.152587890625
5.9699999,1.3886369466781616,9.59835433959961,-0.7948749661445618,0.1220703125,-1.3275146484375,0.0762939453125
5.989999900000001,1.3910311460494995,9.59835433959961,-0.7948749661445618,-0.030517578125,-1.3275146484375,-0.1373291015625
6.0099999,1.3910311460494995,9.550470352172852,-0.7972691655158997,-0.1678466796875,-1.28173828125,-0.3814697265625
6.029999900000001,1.3551181554794312,9.679757118225098,-0.8547300100326538,-2.593994140625,-1.983642578125,-3.0059814453125
6.0499999,1.3694833517074585,9.548076629638672,-0.8236053586006165,-1.9683837890625,1.495361328125,3.021240234375
6.069999900000001,1.3862427473068237,9.701305389404297,-0.7445967197418213,0.54931640625,-2.4261474609375,2.593994140625
6.0899999000000005,1.3742717504501343,9.600749015808105,-0.7637503147125244,10.07080078125,-3.2501220703125,2.9449462890625
6.109999900000001,1.3742717504501343,9.610325813293457,-0.7493851184844971,6.134033203125,-2.6397705078125,-0.7781982421875
6.1299999000000005,1.3096283674240112,9.600749015808105,-0.8092401623725891,-11.8560791015625,0.9002685546875,-1.2359619140625
6.149999900000001,1.3479355573654175,9.579200744628906,-0.7709329724311829,-8.148193359375,1.1749267578125,-2.8228759765625
6.1699999000000005,1.3646949529647827,9.586383819580078,-0.8762778043746948,14.5263671875,-11.0015869140625,-1.190185546875
6.1899999,1.4652514457702637,9.57201862335205,-0.7206547260284424,-3.875732421875,1.15966796875,0.9918212890625
6.209999900000001,1.4915876388549805,9.581595420837402,-0.8188169598579407,-4.69970703125,2.3345947265625,-1.190185546875
6.2299999,1.4772224426269531,9.57441234588623,-0.912190854549408,8.5906982421875,-6.4239501953125,1.4190673828125
6.249999900000001,1.4460978507995605,9.593565940856934,-0.8355764150619507,-8.6669921875,2.62451171875,-0.9765625
6.2699999,1.436521053314209,9.593565940856934,-0.8595184087753296,-1.3427734375,-0.823974609375,1.220703125
6.289999900000001,1.4197616577148438,9.603142738342285,-0.811634361743927,8.97216796875,-4.7454833984375,1.2054443359375
6.3099999,1.3982137441635132,9.603142738342285,-0.7709329724311829,-2.7313232421875,1.1138916015625,-0.7781982421875
6.329999900000001,1.3982137441635132,9.591172218322754,-0.8212111592292786,-1.15966796875,-2.532958984375,-1.129150390625
6.3499999,1.3910311460494995,9.593565940856934,-0.8164227604866028,-2.9449462890625,-0.640869140625,-0.9307861328125
6.369999900000001,1.3982137441635132,9.586383819580078,-0.7948749661445618,-1.03759765625,-0.0762939453125,0.18310546875
6.3899999,1.400607943534851,9.593565940856934,-0.8164227604866028,6.9122314453125,-3.7841796875,0.1373291015625
6.409999900000001,1.3886369466781616,9.59835433959961,-0.7757213711738586,-4.08935546875,0.091552734375,-1.15966796875
6.4299999,1.381454348564148,9.603142738342285,-0.8164227604866028,-2.4566650390625,-0.9765625,-0.30517578125
6.449999900000001,1.3862427473068237,9.605537414550781,-0.8259995579719543,2.716064453125,-2.4566650390625,1.2664794921875
6.4699999,1.3982137441635132,9.607931137084961,-0.7948749661445618,-0.3204345703125,-0.335693359375,0.91552734375
6.489999900000001,1.4077905416488647,9.605537414550781,-0.8140285611152649,2.25830078125,-2.288818359375,0.274658203125
6.5099999,1.4053963422775269,9.59835433959961,-0.8092401623725891,-0.7171630859375,-1.2664794921875,-0.701904296875
6.529999900000001,1.4077905416488647,9.59596061706543,-0.8236053586006165,-2.3040771484375,-0.42724609375,-0.9002685546875
6.5499999,1.4197616577148438,9.591172218322754,-0.8403648138046265,0.7476806640625,-2.2430419921875,-0.335693359375
6.569999900000001,1.4197616577148438,9.59596061706543,-0.8188169598579407,-0.732421875,-0.6866455078125,-0.48828125
6.5899999000000005,1.4077905416488647,9.59835433959961,-0.8236053586006165,0.701904296875,-1.5411376953125,-0.4119873046875
6.609999900000001,1.3958195447921753,9.600749015808105,-0.8212111592292786,0.091552734375,-1.708984375,-0.5645751953125
6.6299999000000005,1.3910311460494995,9.603142738342285,-0.8092401623725891,-2.471923828125,-0.4730224609375,-0.06103515625
6.649999900000001,1.3958195447921753,9.603142738342285,-0.8164227604866028,2.01416015625,-1.9683837890625,1.1444091796875
6.6699999000000005,1.400607943534851,9.600749015808105,-0.7972691655158997,1.800537109375,-1.46484375,1.1444091796875
6.6899999,1.403002142906189,9.59835433959961,-0.7972691655158997,-0.457763671875,-1.1138916015625,-0.2288818359375
6.709999900000001,1.403002142906189,9.591172218322754,-0.8092401623725891,-0.6866455078125,-1.52587890625,-1.03759765625
6.7299999,1.4077905416488647,9.588777542114258,-0.8092401623725891,-1.3275146484375,-0.8087158203125,-0.762939453125
6.749999900000001,1.414973258972168,9.586383819580078,-0.8212111592292786,0.6866455078125,-1.5411376953125,-0.18310546875
6.7699999,1.4173674583435059,9.591172218322754,-0.8188169598579407,-0.0152587890625,-1.3885498046875,-0.396728515625
6.789999900000001,1.4077905416488647,9.59596061706543,-0.8140285611152649,-1.0528564453125,-0.9307861328125,-0.67138671875
6.8099999,1.3982137441635132,9.600749015808105,-0.8164227604866028,0.335693359375,-1.64794921875,-0.18310546875
6.829999900000001,1.400607943534851,9.603142738342285,-0.8068459630012512,0.213623046875,-1.2664794921875,0.518798828125
6.8499999,1.403002142906189,9.603142738342285,-0.8044517636299133,0.640869140625,-1.40380859375,0.885009765625
6.869999900000001,1.4053963422775269,9.600749015808105,-0.8068459630012512,0.8697509765625,-1.617431640625,0.3662109375
6.8899999,1.4053963422775269,9.59596061706543,-0.8092401623725891,-0.54931640625,-1.190185546875,-0.4119873046875
6.909999900000001,1.4077905416488647,9.593565940856934,-0.8188169598579407,-0.762939453125,-1.2359619140625,-0.8392333984375
6.9299999,1.4101848602294922,9.591172218322754,-0.8212111592292786,-0.1983642578125,-1.251220703125,-0.5645751953125
6.949999900000001,1.4101848602294922,9.593565940856934,-0.8212111592292786,0,-1.1749267578125,-0.3814697265625
6.9699999,1.403002142906189,9.59596061706543,-0.8188169598579407,-0.30517578125,-1.3275146484375,-0.5035400390625
6.989999900000001,1.3958195447921753,9.600749015808105,-0.811634361743927,-0.885009765625,-1.2054443359375,-0.5950927734375
7.0099999,1.3934253454208374,9.603142738342285,-0.8068459630012512,0.274658203125,-1.3580322265625,0.1373291015625
7.029999900000001,1.3982137441635132,9.603142738342285,-0.8068459630012512,1.190185546875,-1.5411376953125,0.8392333984375
7.0499999,1.403002142906189,9.603142738342285,-0.8044517636299133,0.5035400390625,-1.312255859375,0.7476806640625
7.069999900000001,1.4053963422775269,9.59835433959961,-0.8092401623725891,-0.06103515625,-1.3427734375,0.1373291015625
7.0899999000000005,1.4053963422775269,9.593565940856934,-0.8092401623725891,-0.18310546875,-1.312255859375,-0.54931640625
7.109999900000001,1.4077905416488647,9.591172218322754,-0.811634361743927,-0.3814697265625,-1.1444091796875,-0.67138671875
7.1299999000000005,1.4101848602294922,9.588777542114258,-0.8140285611152649,-0.274658203125,-1.3580322265625,-0.6256103515625
7.149999900000001,1.4077905416488647,9.591172218322754,-0.8140285611152649,-0.5340576171875,-1.1444091796875,-0.5950927734375
7.1699999000000005,1.403002142906189,9.593565940856934,-0.8140285611152649,-0.3662109375,-1.2359619140625,-0.4425048828125
7.1899999,1.400607943534851,9.59835433959961,-0.8092401623725891,0.0762939453125,-1.495361328125,-0.030517578125
7.209999900000001,1.400607943534851,9.603142738342285,-0.8068459630012512,0.4730224609375,-1.251220703125,0.5340576171875
7.2299999,1.403002142906189,9.605537414550781,-0.8092401623725891,0.79345703125,-1.434326171875,0.7171630859375
7.249999900000001,1.4053963422775269,9.603142738342285,-0.8140285611152649,0.1983642578125,-1.3580322265625,0.396728515625
7.2699999,1.4077905416488647,9.59835433959961,-0.8140285611152649,-0.4425048828125,-1.2664794921875,-0.244140625
7.289999900000001,1.41257905960083,9.59596061706543,-0.8188169598579407,-0.1220703125,-1.3580322265625,-0.5950927734375
7.3099999,1.414973258972168,9.59596061706543,-0.8188169598579407,-0.1678466796875,-1.2359619140625,-0.640869140625
7.329999900000001,1.4173674583435059,9.593565940856934,-0.8212111592292786,-0.4730224609375,-1.2969970703125,-0.5035400390625
7.3499999,1.414973258972168,9.59835433959961,-0.8188169598579407,-0.67138671875,-1.1749267578125,-0.54931640625
7.369999900000001,1.4101848602294922,9.600749015808105,-0.8140285611152649,-0.152587890625,-1.2969970703125,-0.2593994140625
7.3899999,1.4053963422775269,9.605537414550781,-0.8092401623725891,0.4730224609375,-1.495361328125,0.06103515625
7.409999900000001,1.400607943534851,9.607931137084961,-0.8068459630012512,0.3204345703125,-1.40380859375,0.5035400390625
7.4299999,1.403002142906189,9.607931137084961,-0.811634361743927,0.4119873046875,-1.4190673828125,0.5035400390625
7.449999900000001,1.403002142906189,9.605537414550781,-0.8164227604866028,0.0762939453125,-1.3427734375,0.1983642578125
7.4699999,1.4101848602294922,9.600749015808105,-0.8188169598579407,-0.1678466796875,-1.251220703125,-0.274658203125
7.489999900000001,1.41257905960083,9.59596061706543,-0.8212111592292786,-0.06103515625,-1.3427734375,-0.48828125
7.5099999,1.4173674583435059,9.593565940856934,-0.8212111592292786,-0.1678466796875,-1.2664794921875,-0.6561279296875
7.529999900000001,1.414973258972168,9.591172218322754,-0.8212111592292786,-0.518798828125,-1.2664794921875,-0.6103515625
7.5499999,1.414973258972168,9.593565940856934,-0.8212111592292786,-0.4425048828125,-1.2054443359375,-0.4425048828125
7.569999900000001,1.4101848602294922,9.593565940856934,-0.8164227604866028,0,-1.28173828125,-0.152587890625
7.5899999000000005,1.4053963422775269,9.59835433959961,-0.8164227604866028,0.3662109375,-1.4495849609375,0.18310546875
7.609999900000001,1.403002142906189,9.59835433959961,-0.8164227604866028,0.3204345703125,-1.373291015625,0.3662109375
7.6299999000000005,1.400607943534851,9.59835433959961,-0.8164227604866028,0,-1.312255859375,0.274658203125
7.649999900000001,1.400607943534851,9.59835433959961,-0.8212111592292786,0.0762939453125,-1.2969970703125,0.0152587890625
7.6699999000000005,1.403002142906189,9.59596061706543,-0.8212111592292786,-0.0457763671875,-1.2664794921875,-0.18310546875
7.6899999,1.4077905416488647,9.59596061706543,-0.8236053586006165,0.0152587890625,-1.2664794921875,-0.3509521484375
7.709999900000001,1.4101848602294922,9.59596061706543,-0.8236053586006165,-0.1373291015625,-1.28173828125,-0.3662109375
7.7299999,1.4101848602294922,9.59835433959961,-0.8236053586006165,-0.213623046875,-1.220703125,-0.4730224609375
7.749999900000001,1.4101848602294922,9.59835433959961,-0.8212111592292786,-0.244140625,-1.2664794921875,-0.335693359375
7.7699999,1.4077905416488647,9.603142738342285,-0.8212111592292786,0.030517578125,-1.28173828125,-0.152587890625
7.789999900000001,1.4077905416488647,9.600749015808105,-0.8164227604866028,0.1983642578125,-1.312255859375,0.1068115234375
7.8099999,1.4077905416488647,9.600749015808105,-0.8188169598579407,0.1983642578125,-1.3427734375,0.091552734375
7.829999900000001,1.4077905416488647,9.59835433959961,-0.8212111592292786,0.1220703125,-1.251220703125,0.1373291015625
7.8499999,1.4101848602294922,9.59596061706543,-0.8212111592292786,-0.1220703125,-1.3580322265625,-0.0152587890625
7.869999900000001,1.41257905960083,9.593565940856934,-0.8236053586006165,0.274658203125,-1.3427734375,-0.1983642578125
7.8899999,1.4173674583435059,9.591172218322754,-0.8212111592292786,-0.2288818359375,-1.312255859375,-0.2899169921875
7.909999900000001,1.414973258972168,9.593565940856934,-0.8236053586006165,-0.2593994140625,-1.28173828125,-0.5035400390625
7.9299999,1.414973258972168,9.591172218322754,-0.8236053586006165,-0.4119873046875,-1.220703125,-0.3662109375
7.949999900000001,1.4101848602294922,9.593565940856934,-0.8188169598579407,-0.1220703125,-1.3885498046875,-0.18310546875
7.9699999,1.4077905416488647,9.593565940856934,-0.8164227604866028,0.1220703125,-1.3275146484375,0
7.989999900000001,1.4053963422775269,9.59596061706543,-0.811634361743927,0.152587890625,-1.3580322265625,0.1220703125
8.0099999,1.4053963422775269,9.59596061706543,-0.811634361743927,0.1678466796875,-1.3275146484375,0.1373291015625
8.0299999,1.4053963422775269,9.59596061706543,-0.8092401623725891,0,-1.2969970703125,0.06103515625
8.049999900000001,1.4077905416488647,9.59596061706543,-0.8092401623725891,0.030517578125,-1.3580322265625,-0.06103515625
8.069999900000001,1.4101848602294922,9.593565940856934,-0.8092401623725891,0,-1.3275146484375,-0.2288818359375
8.0899999,1.41257905960083,9.591172218322754,-0.811634361743927,-0.1678466796875,-1.2664794921875,-0.3509521484375
8.1099999,1.414973258972168,9.593565940856934,-0.8188169598579407,-0.2899169921875,-1.2664794921875,-0.54931640625
8.129999900000001,1.41257905960083,9.593565940856934,-0.8212111592292786,-0.274658203125,-1.28173828125,-0.3814697265625
8.149999900000001,1.4101848602294922,9.59596061706543,-0.8236053586006165,-0.1373291015625,-1.3275146484375,-0.1373291015625
8.1699999,1.4053963422775269,9.600749015808105,-0.8236053586006165,0.213623046875,-1.3580322265625,-0.06103515625
8.1899999,1.403002142906189,9.600749015808105,-0.8212111592292786,0.030517578125,-1.373291015625,0.1373291015625
8.2099999,1.400607943534851,9.59835433959961,-0.8236053586006165,0.091552734375,-1.3885498046875,0.244140625
8.229999900000001,1.403002142906189,9.59835433959961,-0.8188169598579407,0.0457763671875,-1.312255859375,0.2593994140625
8.2499999,1.4053963422775269,9.59596061706543,-0.8212111592292786,0.18310546875,-1.373291015625,-0.0762939453125
8.2699999,1.4101848602294922,9.59835433959961,-0.8188169598579407,0.0152587890625,-1.2664794921875,-0.244140625
8.2899999,1.4101848602294922,9.59596061706543,-0.8236053586006165,-0.335693359375,-1.2969970703125,-0.4425048828125
8.309999900000001,1.4101848602294922,9.59596061706543,-0.8236053586006165,-0.457763671875,-1.2054443359375,-0.5645751953125
8.3299999,1.4077905416488647,9.59596061706543,-0.8236053586006165,-0.42724609375,-1.190185546875,-0.54931640625
8.3499999,1.403002142906189,9.59596061706543,-0.8188169598579407,-0.0152587890625,-1.2969970703125,-0.244140625
8.3699999,1.403002142906189,9.59596061706543,-0.8164227604866028,0.213623046875,-1.373291015625,0
8.389999900000001,1.400607943534851,9.59596061706543,-0.8140285611152649,0.1220703125,-1.3275146484375,0.1373291015625
8.4099999,1.403002142906189,9.593565940856934,-0.8140285611152649,0.0762939453125,-1.312255859375,0.2899169921875
8.4299999,1.4053963422775269,9.593565940856934,-0.8140285611152649,0.152587890625,-1.3427734375,0.1068115234375
8.4499999,1.4077905416488647,9.593565940856934,-0.8140285611152649,0.0457763671875,-1.3427734375,-0.0457763671875
8.469999900000001,1.4101848602294922,9.593565940856934,-0.8164227604866028,-0.0762939453125,-1.2969970703125,-0.2899169921875
8.4899999,1.41257905960083,9.593565940856934,-0.8188169598579407,-0.335693359375,-1.2664794921875,-0.518798828125
8.5099999,1.4101848602294922,9.59596061706543,-0.8188169598579407,-0.4119873046875,-1.251220703125,-0.5035400390625
8.5299999,1.4077905416488647,9.59596061706543,-0.8212111592292786,-0.274658203125,-1.312255859375,-0.30517578125
8.549999900000001,1.4053963422775269,9.600749015808105,-0.8188169598579407,0.1220703125,-1.3427734375,-0.152587890625
8.569999900000001,1.4053963422775269,9.600749015808105,-0.8140285611152649,0.152587890625,-1.3275146484375,0.1220703125
8.5899999,1.403002142906189,9.603142738342285,-0.8164227604866028,0.18310546875,-1.3275146484375,0.1068115234375
8.6099999,1.403002142906189,9.59835433959961,-0.8140285611152649,0.030517578125,-1.28173828125,0.1068115234375
8.629999900000001,1.403002142906189,9.59835433959961,-0.8164227604866028,0.1373291015625,-1.312255859375,-0.0762939453125
8.649999900000001,1.4053963422775269,9.593565940856934,-0.8188169598579407,-0.0152587890625,-1.220703125,-0.335693359375
8.6699999,1.4053963422775269,9.591172218322754,-0.8236053586006165,-0.152587890625,-1.2969970703125,-0.3814697265625
8.6899999,1.4053963422775269,9.591172218322754,-0.828393816947937,-0.1983642578125,-1.251220703125,-0.2899169921875
8.709999900000001,1.403002142906189,9.591172218322754,-0.8307880163192749,-0.244140625,-1.1444091796875,-0.1373291015625
8.729999900000001,1.3982137441635132,9.593565940856934,-0.8307880163192749,0.030517578125,-1.3427734375,-0.1068115234375
8.7499999,1.3958195447921753,9.593565940856934,-0.828393816947937,0.0762939453125,-1.40380859375,-0.030517578125
8.7699999,1.3958195447921753,9.59596061706543,-0.828393816947937,0.0152587890625,-1.312255859375,0
8.7899999,1.3982137441635132,9.59596061706543,-0.8259995579719543,0.1068115234375,-1.3275146484375,0.244140625
8.809999900000001,1.403002142906189,9.593565940856934,-0.828393816947937,0.244140625,-1.3427734375,0.1220703125
8.8299999,1.4077905416488647,9.593565940856934,-0.8259995579719543,-0.2899169921875,-1.28173828125,-0.213623046875
8.8499999,1.41257905960083,9.593565940856934,-0.8212111592292786,-0.3509521484375,-1.2969970703125,-0.2593994140625
8.8699999,1.4173674583435059,9.593565940856934,-0.8140285611152649,-0.0152587890625,-1.312255859375,-0.18310546875
8.889999900000001,1.4173674583435059,9.59596061706543,-0.8164227604866028,0.1983642578125,-1.3275146484375,-0.3204345703125
8.9099999,1.4173674583435059,9.59596061706543,-0.811634361743927,-0.5645751953125,-1.28173828125,-0.42724609375
8.9299999,1.4101848602294922,9.59835433959961,-0.8140285611152649,-0.4119873046875,-1.251220703125,-0.244140625
8.9499999,1.4053963422775269,9.59835433959961,-0.8140285611152649,0.213623046875,-1.3885498046875,-0.1678466796875
8.969999900000001,1.403002142906189,9.588777542114258,-0.811634361743927,0.30517578125,-1.40380859375,0.0457763671875
8.9899999,1.403002142906189,9.59835433959961,-0.8188169598579407,0.2288818359375,-1.3275146484375,0.091552734375
9.0099999,1.4053963422775269,9.591172218322754,-0.8236053586006165,-0.2288818359375,-1.2359619140625,0.152587890625
9.0299999,1.4077905416488647,9.59835433959961,-0.8236053586006165,-0.3662109375,-1.28173828125,0.0762939453125
9.049999900000001,1.4101848602294922,9.600749015808105,-0.8212111592292786,0.3204345703125,-1.28173828125,-0.1678466796875
9.069999900000001,1.414973258972168,9.600749015808105,-0.8188169598579407,0.5950927734375,-1.3885498046875,-0.4425048828125
9.0899999,1.4101848602294922,9.600749015808105,-0.8212111592292786,-0.6256103515625,-1.2054443359375,-0.4119873046875
9.1099999,1.4101848602294922,9.600749015808105,-0.828393816947937,-0.7781982421875,-1.1138916015625,-0.42724609375
9.129999900000001,1.4101848602294922,9.59835433959961,-0.8259995579719543,-0.2288818359375,-1.3885498046875,-0.18310546875
9.149999900000001,1.4077905416488647,9.600749015808105,-0.8188169598579407,0.335693359375,-1.3427734375,0.06103515625
9.1699999,1.4077905416488647,9.600749015808105,-0.8164227604866028,0.7476806640625,-1.4495849609375,0.0762939453125
9.1899999,1.4077905416488647,9.59835433959961,-0.8164227604866028,-0.030517578125,-1.3427734375,0.030517578125
9.209999900000001,1.4077905416488647,9.59835433959961,-0.8212111592292786,-0.5340576171875,-1.1749267578125,-0.091552734375
9.229999900000001,1.4101848602294922,9.59835433959961,-0.8236053586006165,-0.1373291015625,-1.312255859375,-0.091552734375
9.2499999,1.414973258972168,9.600749015808105,-0.8188169598579407,0.2899169921875,-1.28173828125,0.0457763671875
9.2699999,1.4173674583435059,9.59835433959961,-0.8140285611152649,0.213623046875,-1.3885498046875,-0.213623046875
9.2899999,1.414973258972168,9.59596061706543,-0.8164227604866028,-0.18310546875,-1.2359619140625,-0.4730224609375
9.309999900000001,1.4101848602294922,9.593565940856934,-0.8188169598579407,-0.579833984375,-1.2664794921875,-0.3204345703125
9.3299999,1.403002142906189,9.593565940856934,-0.8212111592292786,-0.030517578125,-1.28173828125,-0.1220703125
9.3499999,1.3982137441635132,9.593565940856934,-0.8188169598579407,0.1983642578125,-1.2664794921875,-0.1678466796875
9.3699999,1.3982137441635132,9.588777542114258,-0.8188169598579407,0.2288818359375,-1.4190673828125,-0.030517578125
9.389999900000001,1.3934253454208374,9.59596061706543,-0.8259995579719543,-0.0457763671875,-1.28173828125,-0.213623046875
9.4099999,1.4053963422775269,9.59596061706543,-0.8259995579719543,-0.3662109375,-1.2054443359375,0.30517578125
9.4299999,1.41257905960083,9.59835433959961,-0.8212111592292786,-0.06103515625,-1.4495849609375,0.396728515625
9.4499999,1.4173674583435059,9.605537414550781,-0.8188169598579407,0.9002685546875,-1.2664794921875,-0.1373291015625
9.469999900000001,1.4221558570861816,9.603142738342285,-0.8212111592292786,0.1983642578125,-1.3885498046875,-0.5340576171875
9.4899999,1.4197616577148438,9.59596061706543,-0.8236053586006165,-1.220703125,-1.1444091796875,-0.518798828125
9.5099999,1.414973258972168,9.59596061706543,-0.8355764150619507,-0.457763671875,-1.129150390625,-0.6103515625
9.5299999,1.414973258972168,9.591172218322754,-0.8307880163192749,-0.18310546875,-1.3275146484375,-0.0762939453125
9.549999900000001,1.41257905960083,9.591172218322754,-0.8236053586006165,0.48828125,-1.3427734375,0.335693359375
9.569999900000001,1.4077905416488647,9.593565940856934,-0.8259995579719543,0.732421875,-1.4801025390625,-0.0762939453125
9.5899999,1.4077905416488647,9.59596061706543,-0.8212111592292786,-0.518798828125,-1.251220703125,-0.2899169921875
9.6099999,1.4101848602294922,9.59596061706543,-0.8259995579719543,-0.1678466796875,-1.312255859375,0.091552734375
9.629999900000001,1.41257905960083,9.600749015808105,-0.8236053586006165,0.1678466796875,-1.312255859375,0.244140625
9.649999900000001,1.41257905960083,9.600749015808105,-0.8259995579719543,0.30517578125,-1.3580322265625,-0.18310546875
9.6699999,1.4077905416488647,9.605537414550781,-0.828393816947937,-0.18310546875,-1.312255859375,-0.54931640625
9.6899999,1.4101848602294922,9.603142738342285,-0.8307880163192749,-0.7476806640625,-1.3275146484375,-0.3509521484375
9.709999900000001,1.4101848602294922,9.603142738342285,-0.828393816947937,-0.244140625,-1.2664794921875,0.152587890625
9.729999900000001,1.41257905960083,9.603142738342285,-0.828393816947937,0.5950927734375,-1.3275146484375,-0.152587890625
9.7499999,1.41257905960083,9.59835433959961,-0.8236053586006165,-0.0762939453125,-1.2359619140625,-0.3204345703125
9.7699999,1.4077905416488647,9.600749015808105,-0.8236053586006165,-0.0762939453125,-1.373291015625,-0.2899169921875
9.7899999,1.4101848602294922,9.600749015808105,-0.8236053586006165,-0.396728515625,-1.28173828125,-0.0762939453125
9.809999900000001,1.4173674583435059,9.59835433959961,-0.8212111592292786,0.091552734375,-1.3427734375,0.30517578125
9.8299999,1.4197616577148438,9.59835433959961,-0.8188169598579407,0.732421875,-1.4801025390625,0.30517578125
9.8499999,1.4173674583435059,9.59596061706543,-0.8188169598579407,0.1678466796875,-1.220703125,-0.244140625
9.8699999,1.414973258972168,9.591172218322754,-0.8259995579719543,-0.6103515625,-1.2664794921875,-0.640869140625
9.889999900000001,1.41257905960083,9.591172218322754,-0.828393816947937,-0.8392333984375,-1.15966796875,-0.5645751953125
9.9099999,1.41257905960083,9.591172218322754,-0.8307880163192749,0.2593994140625,-1.251220703125,-0.1678466796875
9.9299999,1.414973258972168,9.591172218322754,-0.8259995579719543,0.3509521484375,-1.434326171875,0.1983642578125
9.9499999,1.41257905960083,9.593565940856934,-0.8188169598579407,-0.2899169921875,-1.2969970703125,-0.030517578125
9.969999900000001,1.4077905416488647,9.593565940856934,-0.8212111592292786,0.244140625,-1.373291015625,-0.1678466796875
9.9899999,1.4077905416488647,9.591172218322754,-0.8236053586006165,0.30517578125,-1.2359619140625,0.091552734375
10.0099999,1.4101848602294922,9.591172218322754,-0.8307880163192749,0.0152587890625,-1.2664794921875,0.1983642578125
10.0299999,1.4101848602294922,9.593565940856934,-0.8331822156906128,-0.1068115234375,-1.312255859375,-0.213623046875
10.049999900000001,1.41257905960083,9.593565940856934,-0.828393816947937,-0.396728515625,-1.28173828125,-0.3662109375
10.069999900000001,1.41257905960083,9.59596061706543,-0.828393816947937,0.091552734375,-1.40380859375,-0.4119873046875
10.0899999,1.414973258972168,9.59835433959961,-0.8236053586006165,-0.1373291015625,-1.2969970703125,-0.30517578125
10.1099999,1.414973258972168,9.59596061706543,-0.8236053586006165,-0.18310546875,-1.3885498046875,-0.030517578125
10.129999900000001,1.41257905960083,9.600749015808105,-0.8212111592292786,0.1373291015625,-1.28173828125,0.030517578125
10.149999900000001,1.4101848602294922,9.600749015808105,-0.8212111592292786,-0.030517578125,-1.251220703125,-0.1983642578125
10.1699999,1.4101848602294922,9.59835433959961,-0.8188169598579407,0.0762939453125,-1.3580322265625,-0.1983642578125
10.1899999,1.4101848602294922,9.59835433959961,-0.8236053586006165,0.2899169921875,-1.251220703125,-0.030517578125
10.209999900000001,1.4101848602294922,9.591172218322754,-0.828393816947937,0,-1.312255859375,-0.1068115234375
10.229999900000001,1.4101848602294922,9.593565940856934,-0.8307880163192749,-0.518798828125,-1.2969970703125,-0.3204345703125
10.2499999,1.41257905960083,9.591172218322754,-0.828393816947937,-0.518798828125,-1.1749267578125,-0.3814697265625
10.2699999,1.414973258972168,9.593565940856934,-0.8259995579719543,0.6103515625,-1.3580322265625,-0.1220703125
10.2899999,1.414973258972168,9.59596061706543,-0.8236053586006165,0.1983642578125,-1.28173828125,-0.0457763671875
10.309999900000001,1.41257905960083,9.59596061706543,-0.8259995579719543,-0.457763671875,-1.1749267578125,-0.091552734375
10.3299999,1.4101848602294922,9.59596061706543,-0.8259995579719543,-0.30517578125,-1.2969970703125,-0.06103515625
10.3499999,1.4101848602294922,9.59596061706543,-0.828393816947937,0.274658203125,-1.3427734375,-0.030517578125
10.3699999,1.414973258972168,9.59596061706543,-0.8259995579719543,0.152587890625,-1.3885498046875,-0.1983642578125
10.389999900000001,1.414973258972168,9.593565940856934,-0.8331822156906128,-0.091552734375,-1.28173828125,-0.1068115234375
10.4099999,1.41257905960083,9.593565940856934,-0.8355764150619507,-0.2593994140625,-1.312255859375,-0.1983642578125
10.4299999,1.4101848602294922,9.593565940856934,-0.8355764150619507,-0.54931640625,-1.220703125,-0.2899169921875
10.4499999,1.4101848602294922,9.59596061706543,-0.8331822156906128,-0.030517578125,-1.3275146484375,-0.1678466796875
10.469999900000001,1.41257905960083,9.59835433959961,-0.8236053586006165,0.2593994140625,-1.3885498046875,0.1373291015625
10.4899999,1.414973258972168,9.59835433959961,-0.8259995579719543,0.457763671875,-1.3580322265625,0.18310546875
10.5099999,1.4173674583435059,9.59835433959961,-0.8259995579719543,-0.2288818359375,-1.312255859375,-0.06103515625
10.5299999,1.4173674583435059,9.59835433959961,-0.828393816947937,-0.335693359375,-1.2359619140625,-0.1678466796875
10.549999900000001,1.4173674583435059,9.59835433959961,-0.8307880163192749,0.152587890625,-1.3885498046875,-0.244140625
10.569999900000001,1.4173674583435059,9.59835433959961,-0.8307880163192749,-0.0152587890625,-1.251220703125,-0.335693359375
10.5899999,1.41257905960083,9.59835433959961,-0.8355764150619507,-0.4119873046875,-1.2664794921875,-0.457763671875
10.6099999,1.4101848602294922,9.600749015808105,-0.8355764150619507,-0.457763671875,-1.2359619140625,-0.42724609375
10.629999900000001,1.4101848602294922,9.600749015808105,-0.8331822156906128,-0.1068115234375,-1.3275146484375,-0.030517578125
10.649999900000001,1.41257905960083,9.603142738342285,-0.828393816947937,0.3204345703125,-1.3580322265625,0.2288818359375
10.6699999,1.414973258972168,9.600749015808105,-0.8259995579719543,0.396728515625,-1.3275146484375,0.2288818359375
10.6899999,1.414973258972168,9.59835433959961,-0.8259995579719543,0.06103515625,-1.3275146484375,0.0152587890625
10.709999900000001,1.414973258972168,9.593565940856934,-0.828393816947937,-0.18310546875,-1.251220703125,-0.2288818359375
10.729999900000001,1.414973258972168,9.591172218322754,-0.8259995579719543,-0.5035400390625,-1.2054443359375,-0.3509521484375
10.7499999,1.414973258972168,9.588777542114258,-0.828393816947937,0.030517578125,-1.28173828125,-0.3814697265625
10.7699999,1.3718775510787964,9.627084732055664,-0.7829039692878723,1.0223388671875,-1.15966796875,1.068115234375
10.7899999,1.2880805730819702,9.694122314453125,-0.7086837291717529,13.6566162109375,-3.4637451171875,15.93017578125
10.809999900000001,1.237802267074585,9.749189376831055,-0.667982280254364,36.43798828125,-8.9263916015625,44.0216064453125
10.8299999,1.314416766166687,9.710882186889648,-0.7829039692878723,39.886474609375,-9.2926025390625,52.6275634765625
10.8499999,1.482010841369629,9.603142738342285,-0.8978256583213806,3.4942626953125,3.143310546875,23.5595703125
10.8699999,1.6663644313812256,9.445125579833984,-1.1252747774124146,-15.7928466796875,6.04248046875,-6.0272216796875
10.889999900000001,1.867477297782898,9.294290542602539,-1.2210428714752197,-11.5203857421875,-4.9896240234375,-23.7579345703125
10.9099999,1.7956513166427612,9.265560150146484,-1.1563993692398071,-32.6080322265625,-1.8310546875,-39.6270751953125
10.9299999,1.7070658206939697,9.306262016296387,-1.0319008827209473,-32.684326171875,-3.4942626953125,-42.724609375
10.9499999,1.5107412338256836,9.459490776062012,-0.9050082564353943,-13.3514404296875,-9.033203125,-27.7557373046875
10.969999900000001,1.3910311460494995,9.603142738342285,-0.6560112833976746,-16.143798828125,-4.2266845703125,-9.796142578125
10.9899999,1.3215993642807007,9.799467086791992,-0.6751648783683777,13.9312744140625,-10.986328125,12.5885009765625
11.0099999,1.3623007535934448,9.840168952941895,-0.5722141861915588,19.073486328125,-11.444091796875,29.1900634765625
11.0299999,1.37906014919281,9.835380554199219,-0.7469909191131592,22.88818359375,-5.889892578125,29.2510986328125
11.049999900000001,1.5275006294250488,9.715670585632324,-0.9026140570640564,12.9547119140625,-4.21142578125,23.3612060546875
11.069999900000001,1.601720929145813,9.564835548400879,-1.05105459690094,5.340576171875,-3.021240234375,11.505126953125
11.0899999,1.7549498081207275,9.440337181091309,-1.1013327836990356,-8.026123046875,-2.1514892578125,-5.2642822265625
11.1099999,1.802833914756775,9.354146003723145,-1.1516109704971313,-7.62939453125,-7.9193115234375,-16.9219970703125
11.129999900000001,1.86508309841156,9.344569206237793,-1.072602391242981,-17.578125,-3.143310546875,-23.13232421875
11.149999900000001,1.800439715385437,9.39245319366455,-1.0438719987869263,-19.0582275390625,-1.617431640625,-20.8740234375
11.1699999,1.7501614093780518,9.48343276977539,-0.9864110946655273,-6.5765380859375,-2.99072265625,-10.1776123046875
11.1899999,1.6687586307525635,9.588777542114258,-0.9002198576927185,0.4119873046875,-3.3111572265625,1.15966796875
11.209999900000001,1.5753847360610962,9.66539192199707,-0.8667010068893433,11.016845703125,-4.8370361328125,12.6800537109375
11.229999900000001,1.5131354331970215,9.706093788146973,-0.8259995579719543,9.124755859375,-0.8392333984375,16.90673828125
11.2499999,1.50355863571167,9.677363395690918,-0.8667010068893433,12.3291015625,-3.96728515625,15.5029296875
11.2699999,1.5155296325683594,9.612719535827637,-0.9002198576927185,7.9193115234375,-3.2501220703125,7.7056884765625
11.2899999,1.5442601442337036,9.524134635925293,-0.9600749015808105,-4.5928955078125,-0.3662109375,-3.387451171875
11.309999900000001,1.659181833267212,9.44752025604248,-0.9528923034667969,-11.41357421875,-1.6326904296875,-11.16943359375
11.3299999,1.6735470294952393,9.437943458557129,-1.0606313943862915,-1.800537109375,-3.2196044921875,-12.39013671875
11.3499999,1.7334020137786865,9.44752025604248,-0.9600749015808105,-11.3525390625,1.4801025390625,-9.368896484375
11.3699999,1.6759412288665771,9.521739959716797,-0.9624691009521484,-6.591796875,0.9307861328125,-5.31005859375
11.389999900000001,1.5825673341751099,9.588777542114258,-0.9145850539207458,7.3699951171875,-4.1351318359375,2.9144287109375
11.4099999,1.4915876388549805,9.641449928283691,-0.7972691655158997,1.40380859375,-0.701904296875,6.927490234375
11.4299999,1.4460978507995605,9.660603523254395,-0.8188169598579407,8.8043212890625,-2.4871826171875,10.0250244140625
11.4499999,1.460463047027588,9.639056205749512,-0.811634361743927,7.7362060546875,-3.875732421875,8.1939697265625
11.469999900000001,1.5131354331970215,9.591172218322754,-0.8595184087753296,0.4119873046875,0.2899169921875,3.143310546875
11.4899999,1.5921441316604614,9.536105155944824,-0.9361328482627869,-0.274658203125,-2.44140625,-2.1514892578125
11.5099999,1.6496049165725708,9.497797966003418,-0.9792284965515137,-5.37109375,-0.335693359375,-7.1868896484375
11.5299999,1.6711528301239014,9.485827445983887,-0.9840168952941895,-8.3770751953125,0.640869140625,-8.6669921875
11.549999900000001,1.6496049165725708,9.50737476348877,-0.9792284965515137,-2.8228759765625,-1.8310546875,-6.77490234375
11.569999900000001,1.5921441316604614,9.548076629638672,-0.9050082564353943,-3.2501220703125,-0.091552734375,-2.7313232421875
11.5899999,1.5298948287963867,9.588777542114258,-0.8643068075180054,1.6021728515625,-1.8768310546875,2.288818359375
11.6099999,1.482010841369629,9.622296333312988,-0.8307880163192749,6.1187744140625,-2.5482177734375,6.2103271484375
11.629999900000001,1.4700398445129395,9.627084732055664,-0.8068459630012512,3.7384033203125,-1.495361328125,7.110595703125
11.649999900000001,1.501164436340332,9.607931137084961,-0.8523358106613159,5.584716796875,-2.5482177734375,5.615234375
11.6699999,1.5538369417190552,9.569623947143555,-0.8810662031173706,0.8544921875,-1.4495849609375,1.556396484375
11.6899999,1.6136919260025024,9.531316757202148,-0.933738648891449,-2.655029296875,-0.54931640625,-2.7618408203125
11.709999900000001,1.6543933153152466,9.50737476348877,-0.9696516990661621,-3.4942626953125,-1.0528564453125,-5.767822265625
11.729999900000001,1.6615760326385498,9.50498104095459,-0.9648633003234863,-5.67626953125,-0.1068115234375,-6.7138671875
11.7499999,1.6328455209732056,9.524134635925293,-0.950498104095459,-3.1585693359375,-0.8392333984375,-4.7149658203125
11.7699999,1.580173134803772,9.560047149658203,-0.9097966551780701,-0.701904296875,-1.434326171875,-1.220703125
11.7899999,1.5298948287963867,9.593565940856934,-0.871489405632019,1.3427734375,-1.190185546875,2.532958984375
11.809999900000001,1.4987702369689941,9.615114212036133,-0.849941611289978,4.39453125,-2.3345947265625,5.340576171875
11.8299999,1.4963760375976562,9.615114212036133,-0.8427590131759644,4.302978515625,-1.8768310546875,5.55419921875
11.8499999,1.522712230682373,9.59596061706543,-0.8619126081466675,2.593994140625,-1.678466796875,3.4942626953125
11.8699999,1.5682021379470825,9.5624418258667,-0.9002198576927185,0.7781982421875,-1.6021728515625,0.3204345703125
11.889999900000001,1.6112977266311646,9.533711433410645,-0.933738648891449,-2.62451171875,-0.7476806640625,-2.99072265625
11.9099999,1.6376339197158813,9.516951560974121,-0.9576807022094727,-3.60107421875,-0.8544921875,-4.8828125
11.9299999,1.6352397203445435,9.521739959716797,-0.9552865028381348,-3.60107421875,-0.79345703125,-4.94384765625
11.9499999,1.6065093278884888,9.543288230895996,-0.9313444495201111,-2.655029296875,-0.732421875,-3.173828125
11.969999900000001,1.5658079385757446,9.57201862335205,-0.9026140570640564,0.1983642578125,-1.3885498046875,-0.1983642578125
11.9899999,1.5275006294250488,9.59596061706543,-0.8690952062606812,1.9989013671875,-1.6326904296875,2.6397705078125
12.0099999,1.5107412338256836,9.607931137084961,-0.8547300100326538,3.2501220703125,-1.8157958984375,4.2572021484375
12.0299999,1.5179238319396973,9.603142738342285,-0.8595184087753296,3.326416015625,-1.953125,4.058837890625
12.049999900000001,1.5466543436050415,9.583989143371582,-0.8762778043746948,1.5716552734375,-1.4801025390625,2.105712890625
12.069999900000001,1.5825673341751099,9.557653427124023,-0.9074024558067322,-0.213623046875,-1.3275146484375,-0.5035400390625
12.0899999,1.6136919260025024,9.53849983215332,-0.933738648891449,-2.044677734375,-1.007080078125,-2.9144287109375
12.1099999,1.625662922859192,9.526528358459473,-0.9457096457481384,-3.173828125,-0.7171630859375,-4.0740966796875
12.129999900000001,1.6160861253738403,9.533711433410645,-0.9385270476341248,-2.7008056640625,-1.007080078125,-3.631591796875
12.149999900000001,1.5873557329177856,9.548076629638672,-0.9145850539207458,-1.556396484375,-1.0986328125,-1.9989013671875
12.1699999,1.556231141090393,9.57201862335205,-0.8882488012313843,0.4425048828125,-1.40380859375,0.54931640625
12.1899999,1.534683346748352,9.586383819580078,-0.8690952062606812,2.1514892578125,-1.739501953125,2.685546875
12.209999900000001,1.525106430053711,9.593565940856934,-0.8595184087753296,2.7008056640625,-1.7242431640625,3.47900390625
12.229999900000001,1.53707754611969,9.586383819580078,-0.8690952062606812,2.3040771484375,-1.6632080078125,2.9296875
12.2499999,1.5610195398330688,9.569623947143555,-0.8858546018600464,0.9613037109375,-1.46484375,1.2054443359375
12.2699999,1.5897499322891235,9.548076629638672,-0.9097966551780701,-0.7476806640625,-1.1749267578125,-1.1138916015625
12.289999900000002,1.6112977266311646,9.533711433410645,-0.9289502501487732,-1.9989013671875,-0.9918212890625,-2.899169921875
12.309999900000001,1.6160861253738403,9.531316757202148,-0.9361328482627869,-2.74658203125,-0.8697509765625,-3.47900390625
12.3299999,1.6041151285171509,9.5408935546875,-0.9313444495201111,-2.0751953125,-1.007080078125,-2.685546875
12.3499999,1.580173134803772,9.560047149658203,-0.9145850539207458,-0.7171630859375,-1.28173828125,-0.946044921875
12.3699999,1.556231141090393,9.579200744628906,-0.8930372595787048,0.946044921875,-1.52587890625,1.0986328125
12.389999900000001,1.5394717454910278,9.593565940856934,-0.8786720037460327,2.0904541015625,-1.7547607421875,2.5177001953125
12.4099999,1.53707754611969,9.593565940856934,-0.8738836050033569,2.2125244140625,-1.708984375,2.8839111328125
12.4299999,1.5490485429763794,9.583989143371582,-0.8858546018600464,1.3885498046875,-1.5106201171875,1.8768310546875
12.4499999,1.5729905366897583,9.567230224609375,-0.9026140570640564,0.2288818359375,-1.4190673828125,0.152587890625
12.469999900000001,1.5945383310317993,9.552865028381348,-0.9193734526634216,-1.0528564453125,-1.15966796875,-1.5869140625
12.4899999,1.6089035272598267,9.543288230895996,-0.9289502501487732,-1.9378662109375,-0.9918212890625,-2.5787353515625
12.5099999,1.6065093278884888,9.545681953430176,-0.9289502501487732,-1.953125,-1.03759765625,-2.62451171875
12.5299999,1.5921441316604614,9.555258750915527,-0.9169792532920837,-1.312255859375,-1.0833740234375,-1.77001953125
12.549999900000001,1.5729905366897583,9.567230224609375,-0.9002198576927185,-0.18310546875,-1.2969970703125,-0.18310546875
12.569999900000001,1.5490485429763794,9.579200744628906,-0.8858546018600464,1.1444091796875,-1.46484375,1.312255859375
12.5899999,1.5394717454910278,9.583989143371582,-0.8738836050033569,1.7547607421875,-1.5716552734375,2.1514892578125
12.6099999,1.5418659448623657,9.581595420837402,-0.8738836050033569,1.6326904296875,-1.556396484375,2.0751953125
12.629999900000001,1.556231141090393,9.57201862335205,-0.8834604024887085,0.8087158203125,-1.434326171875,1.1138916015625
12.649999900000001,1.577778935432434,9.560047149658203,-0.9002198576927185,-0.1373291015625,-1.2664794921875,-0.3204345703125
12.6699999,1.5969325304031372,9.550470352172852,-0.9169792532920837,-1.220703125,-1.1138916015625,-1.617431640625
12.6899999,1.601720929145813,9.545681953430176,-0.9241618514060974,-1.7852783203125,-1.0223388671875,-2.3040771484375
12.709999900000001,1.5969325304031372,9.550470352172852,-0.9217676520347595,-1.5106201171875,-1.0833740234375,-2.0599365234375
12.729999900000001,1.580173134803772,9.557653427124023,-0.9097966551780701,-0.7781982421875,-1.190185546875,-1.007080078125
12.7499999,1.5634137392044067,9.57201862335205,-0.8978256583213806,0.1678466796875,-1.3427734375,0.3509521484375
12.7699999,1.5514427423477173,9.579200744628906,-0.8858546018600464,1.220703125,-1.5106201171875,1.495361328125
12.789999900000002,1.5466543436050415,9.583989143371582,-0.8810662031173706,1.5716552734375,-1.6326904296875,1.861572265625
12.809999900000001,1.5538369417190552,9.579200744628906,-0.8810662031173706,1.068115234375,-1.52587890625,1.4801025390625
12.8299999,1.5682021379470825,9.567230224609375,-0.8930372595787048,0.3204345703125,-1.3885498046875,0.3509521484375
12.8499999,1.5825673341751099,9.555258750915527,-0.9050082564353943,-0.5340576171875,-1.251220703125,-0.762939453125
12.8699999,1.5945383310317993,9.548076629638672,-0.9145850539207458,-1.1749267578125,-1.068115234375,-1.6632080078125
12.889999900000001,1.5945383310317993,9.548076629638672,-0.9193734526634216,-1.46484375,-1.0528564453125,-1.9073486328125
12.9099999,1.5873557329177856,9.552865028381348,-0.9145850539207458,-1.007080078125,-1.190185546875,-1.4190673828125
12.9299999,1.5753847360610962,9.5624418258667,-0.9050082564353943,-0.1068115234375,-1.3580322265625,-0.3814697265625
12.9499999,1.5610195398330688,9.57201862335205,-0.8930372595787048,0.48828125,-1.3885498046875,0.640869140625
12.969999900000001,1.5514427423477173,9.576807022094727,-0.8858546018600464,1.0528564453125,-1.495361328125,1.3580322265625
12.9899999,1.5514427423477173,9.579200744628906,-0.8834604024887085,1.2054443359375,-1.5411376953125,1.3427734375
13.0099999,1.5610195398330688,9.57201862335205,-0.8930372595787048,0.7476806640625,-1.495361328125,0.7171630859375
13.0299999,1.5753847360610962,9.567230224609375,-0.9026140570640564,-0.0762939453125,-1.3580322265625,-0.091552734375
13.049999900000001,1.5873557329177856,9.557653427124023,-0.912190854549408,-0.701904296875,-1.2054443359375,-0.9307861328125
13.069999900000001,1.5921441316604614,9.552865028381348,-0.9145850539207458,-1.068115234375,-1.1749267578125,-1.495361328125
13.0899999,1.5897499322891235,9.555258750915527,-0.912190854549408,-1.03759765625,-1.2054443359375,-1.52587890625
13.1099999,1.5825673341751099,9.560047149658203,-0.9026140570640564,-0.5950927734375,-1.1749267578125,-0.885009765625
13.129999900000001,1.5705963373184204,9.569623947143555,-0.8930372595787048,0.091552734375,-1.373291015625,0.06103515625
13.149999900000001,1.5634137392044067,9.57441234588623,-0.8882488012313843,0.701904296875,-1.434326171875,0.7781982421875
13.1699999,1.5610195398330688,9.576807022094727,-0.8858546018600464,0.9918212890625,-1.4801025390625,1.1749267578125
13.1899999,1.5634137392044067,9.57201862335205,-0.8906430602073669,0.823974609375,-1.46484375,1.0223388671875
13.209999900000001,1.5705963373184204,9.564835548400879,-0.8978256583213806,0.30517578125,-1.4190673828125,0.3509521484375
13.229999900000001,1.577778935432434,9.560047149658203,-0.9050082564353943,-0.3662109375,-1.251220703125,-0.48828125
13.2499999,1.5873557329177856,9.552865028381348,-0.912190854549408,-0.762939453125,-1.220703125,-1.068115234375
13.2699999,1.5897499322891235,9.552865028381348,-0.9145850539207458,-1.007080078125,-1.190185546875,-1.3275146484375
13.289999900000002,1.5873557329177856,9.557653427124023,-0.912190854549408,-0.7781982421875,-1.15966796875,-1.0986328125
13.309999900000001,1.580173134803772,9.564835548400879,-0.9050082564353943,-0.2593994140625,-1.3275146484375,-0.4425048828125
13.3299999,1.5705963373184204,9.57201862335205,-0.9002198576927185,0.2899169921875,-1.46484375,0.2593994140625
13.3499999,1.5634137392044067,9.576807022094727,-0.8930372595787048,0.640869140625,-1.40380859375,0.8087158203125
13.3699999,1.5634137392044067,9.57441234588623,-0.8930372595787048,0.67138671875,-1.40380859375,0.91552734375
13.389999900000001,1.5682021379470825,9.57201862335205,-0.8954314589500427,0.457763671875,-1.3580322265625,0.5340576171875
13.4099999,1.577778935432434,9.564835548400879,-0.9026140570640564,0.0457763671875,-1.3427734375,0
13.4299999,1.5849615335464478,9.557653427124023,-0.9097966551780701,-0.457763671875,-1.251220703125,-0.6256103515625
13.4499999,1.5897499322891235,9.552865028381348,-0.9145850539207458,-0.7171630859375,-1.15966796875,-1.007080078125
13.469999900000001,1.5897499322891235,9.552865028381348,-0.9145850539207458,-0.6866455078125,-1.1444091796875,-1.0986328125
13.4899999,1.5849615335464478,9.557653427124023,-0.912190854549408,-0.4425048828125,-1.251220703125,-0.762939453125
13.5099999,1.5753847360610962,9.5624418258667,-0.9050082564353943,-0.1220703125,-1.3427734375,-0.1220703125
13.5299999,1.5658079385757446,9.567230224609375,-0.9002198576927185,0.3509521484375,-1.373291015625,0.42724609375
13.549999900000001,1.5610195398330688,9.569623947143555,-0.8954314589500427,0.5340576171875,-1.40380859375,0.6561279296875
13.569999900000001,1.5610195398330688,9.569623947143555,-0.8930372595787048,0.5340576171875,-1.4495849609375,0.7171630859375
13.5899999,1.5682021379470825,9.567230224609375,-0.8978256583213806,0.3814697265625,-1.434326171875,0.396728515625
13.6099999,1.5753847360610962,9.5624418258667,-0.9026140570640564,0.0152587890625,-1.3580322265625,-0.1220703125
13.629999900000001,1.5849615335464478,9.560047149658203,-0.9074024558067322,-0.4425048828125,-1.28173828125,-0.7171630859375
13.649999900000001,1.5873557329177856,9.557653427124023,-0.9097966551780701,-0.7171630859375,-1.190185546875,-0.9613037109375
13.6699999,1.5873557329177856,9.560047149658203,-0.9097966551780701,-0.6561279296875,-1.1138916015625,-0.91552734375
13.6899999,1.580173134803772,9.5624418258667,-0.9074024558067322,-0.3509521484375,-1.2664794921875,-0.518798828125
13.709999900000001,1.5705963373184204,9.567230224609375,-0.9026140570640564,0.0457763671875,-1.2664794921875,0.030517578125
13.729999900000001,1.5658079385757446,9.57201862335205,-0.9002198576927185,0.3662109375,-1.3885498046875,0.4119873046875
13.7499999,1.5610195398330688,9.57201862335205,-0.9002198576927185,0.48828125,-1.3427734375,0.5950927734375
13.7699999,1.5634137392044067,9.57201862335205,-0.9050082564353943,0.4730224609375,-1.3885498046875,0.457763671875
13.789999900000002,1.5705963373184204,9.569623947143555,-0.9074024558067322,0.1373291015625,-1.3580322265625,0.0457763671875
13.809999900000001,1.577778935432434,9.564835548400879,-0.912190854549408,-0.2593994140625,-1.220703125,-0.4425048828125
13.8299999,1.5825673341751099,9.560047149658203,-0.912190854549408,-0.457763671875,-1.2054443359375,-0.732421875
13.8499999,1.5873557329177856,9.557653427124023,-0.9097966551780701,-0.579833984375,-1.190185546875,-0.8087158203125
13.8699999,1.5825673341751099,9.557653427124023,-0.9074024558067322,-0.457763671875,-1.2359619140625,-0.701904296875
13.889999900000001,1.577778935432434,9.560047149658203,-0.9026140570640564,-0.0152587890625,-1.3275146484375,-0.2899169921875
13.9099999,1.5705963373184204,9.5624418258667,-0.9002198576927185,0.1983642578125,-1.373291015625,0.1068115234375
13.9299999,1.5634137392044067,9.567230224609375,-0.9002198576927185,0.335693359375,-1.4190673828125,0.3814697265625
13.9499999,1.558625340461731,9.569623947143555,-0.9026140570640564,0.396728515625,-1.4190673828125,0.335693359375
13.969999900000001,1.5634137392044067,9.569623947143555,-0.9074024558067322,0.30517578125,-1.434326171875,0.1983642578125
13.9899999,1.5658079385757446,9.567230224609375,-0.912190854549408,-0.0762939453125,-1.3427734375,-0.1220703125
14.0099999,1.5729905366897583,9.5624418258667,-0.9169792532920837,-0.3204345703125,-1.2359619140625,-0.518798828125
14.0299999,1.580173134803772,9.560047149658203,-0.9169792532920837,-0.3662109375,-1.312255859375,-0.579833984375
14.049999900000001,1.580173134803772,9.560047149658203,-0.9145850539207458,-0.396728515625,-1.1444091796875,-0.67138671875
14.069999900000001,1.577778935432434,9.5624418258667,-0.9074024558067322,-0.4730224609375,-1.2359619140625,-0.42724609375
14.0899999,1.5729905366897583,9.564835548400879,-0.9050082564353943,0.0152587890625,-1.3580322265625,-0.091552734375
14.1099999,1.5658079385757446,9.567230224609375,-0.8978256583213806,0.091552734375,-1.2969970703125,0.152587890625
14.129999900000001,1.5610195398330688,9.569623947143555,-0.8978256583213806,0.457763671875,-1.40380859375,0.4425048828125
14.149999900000001,1.5634137392044067,9.569623947143555,-0.9002198576927185,0.335693359375,-1.3275146484375,0.4425048828125
14.1699999,1.5658079385757446,9.569623947143555,-0.9050082564353943,0.091552734375,-1.3275146484375,0.0457763671875
14.1899999,1.5729905366897583,9.564835548400879,-0.912190854549408,-0.1983642578125,-1.2969970703125,-0.3204345703125
14.209999900000001,1.580173134803772,9.5624418258667,-0.9145850539207458,-0.579833984375,-1.2359619140625,-0.5340576171875
14.229999900000001,1.5825673341751099,9.5624418258667,-0.9193734526634216,-0.4425048828125,-1.2359619140625,-0.54931640625
14.2499999,1.5849615335464478,9.5624418258667,-0.9145850539207458,-0.274658203125,-1.3580322265625,-0.5035400390625
14.2699999,1.5825673341751099,9.564835548400879,-0.912190854549408,-0.030517578125,-1.312255859375,-0.274658203125
14.289999900000002,1.577778935432434,9.564835548400879,-0.9097966551780701,0,-1.40380859375,0
14.309999900000001,1.5729905366897583,9.567230224609375,-0.9074024558067322,0.030517578125,-1.3275146484375,0.274658203125
14.3299999,1.5705963373184204,9.564835548400879,-0.9050082564353943,0.213623046875,-1.3885498046875,0.4119873046875
14.3499999,1.5729905366897583,9.564835548400879,-0.9002198576927185,0.2593994140625,-1.40380859375,0.30517578125
14.3699999,1.5753847360610962,9.5624418258667,-0.9026140570640564,0.3204345703125,-1.40380859375,-0.1068115234375
14.389999900000001,1.577778935432434,9.560047149658203,-0.9026140570640564,-0.244140625,-1.3580322265625,-0.4119873046875
14.4099999,1.580173134803772,9.557653427124023,-0.9074024558067322,-0.54931640625,-1.2664794921875,-0.5950927734375
14.4299999,1.577778935432434,9.557653427124023,-0.9097966551780701,-0.42724609375,-1.2054443359375,-0.640869140625
14.4499999,1.577778935432434,9.5624418258667,-0.9050082564353943,-0.244140625,-1.220703125,-0.5035400390625
14.469999900000001,1.5753847360610962,9.567230224609375,-0.9026140570640564,0.0152587890625,-1.4190673828125,-0.1373291015625
14.4899999,1.5729905366897583,9.569623947143555,-0.8978256583213806,0.2593994140625,-1.312255859375,0.18310546875
14.5099999,1.5753847360610962,9.57201862335205,-0.9002198576927185,0.3204345703125,-1.3427734375,0.2899169921875
14.5299999,1.577778935432434,9.569623947143555,-0.9026140570640564,0.1983642578125,-1.3427734375,0.2593994140625
14.549999900000001,1.580173134803772,9.564835548400879,-0.9026140570640564,-0.091552734375,-1.28173828125,-0.0457763671875
14.569999900000001,1.5825673341751099,9.5624418258667,-0.9097966551780701,-0.030517578125,-1.251220703125,-0.2593994140625
14.5899999,1.5825673341751099,9.557653427124023,-0.912190854549408,-0.4119873046875,-1.190185546875,-0.396728515625
14.6099999,1.5825673341751099,9.557653427124023,-0.9169792532920837,-0.4730224609375,-1.2969970703125,-0.4119873046875
14.629999900000001,1.580173134803772,9.557653427124023,-0.9169792532920837,-0.1983642578125,-1.312255859375,-0.2593994140625
14.649999900000001,1.577778935432434,9.5624418258667,-0.9097966551780701,-0.274658203125,-1.2969970703125,-0.06103515625
14.6699999,1.5729905366897583,9.564835548400879,-0.9050082564353943,0.091552734375,-1.312255859375,0.1068115234375
14.6899999,1.5705963373184204,9.567230224609375,-0.8978256583213806,0.3662109375,-1.2664794921875,0.1983642578125
14.709999900000001,1.5729905366897583,9.567230224609375,-0.8978256583213806,0.2593994140625,-1.373291015625,0.2288818359375
14.729999900000001,1.5753847360610962,9.567230224609375,-0.9002198576927185,0,-1.3885498046875,0.0457763671875
14.7499999,1.580173134803772,9.564835548400879,-0.9026140570640564,-0.213623046875,-1.28173828125,-0.2288818359375
14.7699999,1.580173134803772,9.5624418258667,-0.9050082564353943,-0.1983642578125,-1.312255859375,-0.42724609375
14.789999900000002,1.580173134803772,9.560047149658203,-0.9026140570640564,-0.091552734375,-1.28173828125,-0.54931640625
14.809999900000001,1.580173134803772,9.557653427124023,-0.9050082564353943,-0.1373291015625,-1.28173828125,-0.4425048828125
14.8299999,1.5753847360610962,9.557653427124023,-0.9074024558067322,-0.1983642578125,-1.3275146484375,-0.30517578125
14.8499999,1.5705963373184204,9.557653427124023,-0.912190854549408,-0.274658203125,-1.220703125,-0.091552734375
14.8699999,1.5658079385757446,9.560047149658203,-0.912190854549408,0.091552734375,-1.3275146484375,0.2288818359375
14.889999900000001,1.5682021379470825,9.5624418258667,-0.9097966551780701,0.4425048828125,-1.40380859375,0.396728515625
14.9099999,1.5705963373184204,9.564835548400879,-0.9074024558067322,0.457763671875,-1.3427734375,0.244140625
14.9299999,1.580173134803772,9.5624418258667,-0.9050082564353943,0.0152587890625,-1.28173828125,-0.18310546875
14.9499999,1.5849615335464478,9.5624418258667,-0.9097966551780701,-0.42724609375,-1.220703125,-0.457763671875
14.969999900000001,1.5873557329177856,9.5624418258667,-0.9097966551780701,-0.42724609375,-1.251220703125,-0.640869140625
14.9899999,1.5873557329177856,9.5624418258667,-0.912190854549408,-0.18310546875,-1.3580322265625,-0.6256103515625
15.0099999,1.580173134803772,9.564835548400879,-0.9097966551780701,-0.1220703125,-1.2969970703125,-0.3814697265625
15.0299999,1.5753847360610962,9.564835548400879,-0.9097966551780701,-0.0457763671875,-1.4190673828125,-0.18310546875
15.049999900000001,1.5682021379470825,9.567230224609375,-0.9074024558067322,0.06103515625,-1.3275146484375,0.152587890625
15.069999900000001,1.5658079385757446,9.567230224609375,-0.9050082564353943,0.091552734375,-1.2664794921875,0.3204345703125
15.0899999,1.5658079385757446,9.564835548400879,-0.9026140570640564,0.4425048828125,-1.4190673828125,0.3814697265625
15.1099999,1.5705963373184204,9.5624418258667,-0.8978256583213806,0.30517578125,-1.373291015625,0.244140625
15.129999900000001,1.577778935432434,9.560047149658203,-0.9002198576927185,-0.0762939453125,-1.2969970703125,-0.1068115234375
15.149999900000001,1.5849615335464478,9.557653427124023,-0.9074024558067322,-0.2593994140625,-1.2664794921875,-0.4119873046875
15.1699999,1.5897499322891235,9.557653427124023,-0.912190854549408,-0.42724609375,-1.28173828125,-0.6256103515625
15.1899999,1.5897499322891235,9.557653427124023,-0.9193734526634216,-0.3509521484375,-1.2054443359375,-0.6256103515625
15.209999900000001,1.5873557329177856,9.5624418258667,-0.9169792532920837,-0.42724609375,-1.2359619140625,-0.3509521484375
15.229999900000001,1.577778935432434,9.567230224609375,-0.912190854549408,-0.06103515625,-1.3275146484375,0.091552734375
15.2499999,1.5753847360610962,9.569623947143555,-0.9050082564353943,0.518798828125,-1.3275146484375,0.213623046875
15.2699999,1.5705963373184204,9.567230224609375,-0.9002198576927185,0.335693359375,-1.373291015625,0.3509521484375
15.289999900000002,1.5729905366897583,9.564835548400879,-0.9026140570640564,0.152587890625,-1.3427734375,0.244140625
15.309999900000001,1.5753847360610962,9.5624418258667,-0.9050082564353943,0.06103515625,-1.2969970703125,-0.0152587890625
15.3299999,1.580173134803772,9.560047149658203,-0.9074024558067322,-0.1220703125,-1.3427734375,-0.3204345703125
15.3499999,1.5849615335464478,9.557653427124023,-0.912190854549408,-0.2593994140625,-1.3275146484375,-0.518798828125
15.3699999,1.5849615335464478,9.557653427124023,-0.912190854549408,-0.48828125,-1.28173828125,-0.640869140625
15.389999900000001,1.5825673341751099,9.560047149658203,-0.9145850539207458,-0.3509521484375,-1.2664794921875,-0.4730224609375
15.4099999,1.577778935432434,9.560047149658203,-0.912190854549408,-0.274658203125,-1.251220703125,-0.213623046875
15.4299999,1.5729905366897583,9.564835548400879,-0.9074024558067322,0.2288818359375,-1.2969970703125,0.091552734375
15.4499999,1.5729905366897583,9.567230224609375,-0.9050082564353943,0.3509521484375,-1.4190673828125,0.42724609375
15.469999900000001,1.5753847360610962,9.567230224609375,-0.9002198576927185,0.30517578125,-1.4190673828125,0.396728515625
15.4899999,1.580173134803772,9.567230224609375,-0.9002198576927185,0.2899169921875,-1.3580322265625,0.274658203125
15.5099999,1.5873557329177856,9.564835548400879,-0.9002198576927185,0.0762939453125,-1.2969970703125,-0.152587890625
15.5299999,1.5921441316604614,9.5624418258667,-0.9002198576927185,-0.0762939453125,-1.312255859375,-0.54931640625
15.549999900000001,1.5921441316604614,9.557653427124023,-0.9074024558067322,-0.3814697265625,-1.3275146484375,-0.762939453125
15.569999900000001,1.5897499322891235,9.557653427124023,-0.912190854549408,-0.5950927734375,-1.2359619140625,-0.79345703125
15.5899999,1.5849615335464478,9.557653427124023,-0.9193734526634216,-0.42724609375,-1.2359619140625,-0.42724609375
15.6099999,1.580173134803772,9.560047149658203,-0.9145850539207458,-0.06103515625,-1.312255859375,0.152587890625
15.629999900000001,1.5753847360610962,9.564835548400879,-0.9097966551780701,0.4425048828125,-1.3885498046875,0.396728515625
15.649999900000001,1.5753847360610962,9.567230224609375,-0.9026140570640564,0.42724609375,-1.434326171875,0.42724609375
15.6699999,1.5753847360610962,9.567230224609375,-0.9002198576927185,0.3204345703125,-1.434326171875,0.3662109375
15.6899999,1.580173134803772,9.567230224609375,-0.9002198576927185,0.1678466796875,-1.3885498046875,0.0152587890625
15.709999900000001,1.5825673341751099,9.5624418258667,-0.9074024558067322,-0.0762939453125,-1.2664794921875,-0.54931640625
15.729999900000001,1.5849615335464478,9.560047149658203,-0.9145850539207458,-0.5340576171875,-1.251220703125,-0.8544921875
15.7499999,1.5825673341751099,9.560047149658203,-0.9217676520347595,-0.67138671875,-1.2054443359375,-0.7781982421875
15.7699999,1.577778935432434,9.5624418258667,-0.9241618514060974,-0.335693359375,-1.2359619140625,-0.5950927734375
15.789999900000002,1.5753847360610962,9.564835548400879,-0.9193734526634216,-0.06103515625,-1.3427734375,-0.091552734375
15.809999900000001,1.5729905366897583,9.569623947143555,-0.912190854549408,0.2288818359375,-1.2969970703125,0.3509521484375
15.8299999,1.5729905366897583,9.569623947143555,-0.9050082564353943,0.7171630859375,-1.4190673828125,0.518798828125
15.8499999,1.5729905366897583,9.567230224609375,-0.9002198576927185,0.335693359375,-1.40380859375,0.30517578125
15.869999900000002,1.5753847360610962,9.564835548400879,-0.9002198576927185,-0.030517578125,-1.28173828125,0.030517578125
15.889999900000001,1.580173134803772,9.564835548400879,-0.9026140570640564,-0.244140625,-1.2969970703125,-0.2288818359375
15.9099999,1.5825673341751099,9.5624418258667,-0.9074024558067322,0,-1.28173828125,-0.5950927734375
15.9299999,1.5873557329177856,9.5624418258667,-0.9097966551780701,-0.4425048828125,-1.28173828125,-0.8544921875
15.9499999,1.5873557329177856,9.560047149658203,-0.9145850539207458,-0.640869140625,-1.190185546875,-0.7476806640625
15.969999900000001,1.5849615335464478,9.560047149658203,-0.9145850539207458,-0.3204345703125,-1.2054443359375,-0.4119873046875
15.9899999,1.580173134803772,9.5624418258667,-0.9097966551780701,-0.1068115234375,-1.3427734375,0.06103515625
16.0099999,1.577778935432434,9.567230224609375,-0.9026140570640564,0.3509521484375,-1.3885498046875,0.4119873046875
16.0299999,1.5753847360610962,9.57201862335205,-0.8978256583213806,0.5645751953125,-1.434326171875,0.4730224609375
16.0499999,1.5753847360610962,9.569623947143555,-0.9002198576927185,0.5035400390625,-1.4495849609375,0.3204345703125
16.0699999,1.580173134803772,9.567230224609375,-0.9050082564353943,-0.0762939453125,-1.3580322265625,-0.0152587890625
16.089999900000002,1.5825673341751099,9.5624418258667,-0.9097966551780701,-0.3509521484375,-1.2359619140625,-0.4425048828125
16.109999900000002,1.5825673341751099,9.557653427124023,-0.9145850539207458,-0.30517578125,-1.3580322265625,-0.823974609375
16.1299999,1.577778935432434,9.555258750915527,-0.9145850539207458,-0.5035400390625,-1.2664794921875,-0.9613037109375
16.1499999,1.5729905366897583,9.557653427124023,-0.9145850539207458,-0.6256103515625,-1.15966796875,-0.6866455078125
16.1699999,1.5682021379470825,9.5624418258667,-0.912190854549408,-0.1068115234375,-1.3275146484375,-0.1068115234375
16.1899999,1.5682021379470825,9.564835548400879,-0.9074024558067322,0.42724609375,-1.3427734375,0.3662109375
16.2099999,1.5682021379470825,9.569623947143555,-0.9026140570640564,0.6103515625,-1.5106201171875,0.5950927734375
16.2299999,1.5729905366897583,9.569623947143555,-0.9002198576927185,0.4730224609375,-1.4190673828125,0.5035400390625
16.249999900000002,1.580173134803772,9.567230224609375,-0.9074024558067322,0.244140625,-1.3580322265625,0.1678466796875
16.269999900000002,1.5849615335464478,9.564835548400879,-0.9145850539207458,-0.1373291015625,-1.312255859375,-0.2288818359375
16.2899999,1.5897499322891235,9.560047149658203,-0.9169792532920837,-0.54931640625,-1.251220703125,-0.6561279296875
16.3099999,1.5897499322891235,9.557653427124023,-0.9193734526634216,-0.5950927734375,-1.2664794921875,-0.8544921875
16.3299999,1.5873557329177856,9.557653427124023,-0.9169792532920837,-0.457763671875,-1.2359619140625,-0.701904296875
16.3499999,1.5849615335464478,9.5624418258667,-0.912190854549408,-0.244140625,-1.3580322265625,-0.3204345703125
16.3699999,1.580173134803772,9.567230224609375,-0.9074024558067322,0.0762939453125,-1.2969970703125,0.1220703125
16.3899999,1.5753847360610962,9.569623947143555,-0.9026140570640564,0.42724609375,-1.3885498046875,0.4730224609375
16.4099999,1.5729905366897583,9.569623947143555,-0.9002198576927185,0.5340576171875,-1.46484375,0.54931640625
16.429999900000002,1.5729905366897583,9.567230224609375,-0.9002198576927185,0.30517578125,-1.40380859375,0.3509521484375
16.4499999,1.5753847360610962,9.560047149658203,-0.9026140570640564,-0.030517578125,-1.28173828125,-0.0762939453125
16.4699999,1.580173134803772,9.557653427124023,-0.9097966551780701,-0.335693359375,-1.2359619140625,-0.4730224609375
16.4899999,1.5849615335464478,9.555258750915527,-0.912190854549408,-0.579833984375,-1.2054443359375,-0.67138671875
16.5099999,1.5873557329177856,9.557653427124023,-0.912190854549408,-0.5340576171875,-1.2359619140625,-0.7171630859375
16.5299999,1.5873557329177856,9.5624418258667,-0.9097966551780701,-0.1983642578125,-1.2969970703125,-0.4425048828125
16.5499999,1.5849615335464478,9.569623947143555,-0.9074024558067322,0.030517578125,-1.3427734375,0.0152587890625
16.5699999,1.5825673341751099,9.57201862335205,-0.9026140570640564,0.18310546875,-1.3427734375,0.3814697265625
16.589999900000002,1.577778935432434,9.57201862335205,-0.9026140570640564,0.396728515625,-1.4190673828125,0.3509521484375
16.609999900000002,1.577778935432434,9.569623947143555,-0.9026140570640564,0.3509521484375,-1.40380859375,0.2593994140625
16.6299999,1.577778935432434,9.564835548400879,-0.9050082564353943,0.1678466796875,-1.312255859375,0.0457763671875
16.6499999,1.577778935432434,9.560047149658203,-0.912190854549408,-0.2288818359375,-1.2969970703125,-0.3509521484375
16.6699999,1.577778935432434,9.557653427124023,-0.9169792532920837,-0.42724609375,-1.312255859375,-0.5950927734375
16.6899999,1.577778935432434,9.555258750915527,-0.9169792532920837,-0.42724609375,-1.312255859375,-0.67138671875
16.7099999,1.577778935432434,9.560047149658203,-0.912190854549408,-0.4119873046875,-1.220703125,-0.5340576171875
16.7299999,1.5753847360610962,9.5624418258667,-0.9074024558067322,-0.0762939453125,-1.3580322265625,-0.1678466796875
16.749999900000002,1.5753847360610962,9.564835548400879,-0.9050082564353943,0.2288818359375,-1.3885498046875,0.1983642578125
16.769999900000002,1.5705963373184204,9.567230224609375,-0.8978256583213806,0.3204345703125,-1.373291015625,0.396728515625
16.7899999,1.6041151285171509,9.53849983215332,-0.950498104095459,-0.244140625,-1.3275146484375,-3.2958984375
16.8099999,1.580173134803772,9.550470352172852,-0.9313444495201111,-12.63427734375,0.579833984375,-15.7012939453125
16.8299999,1.5682021379470825,9.552865028381348,-0.9145850539207458,-10.43701171875,0.8087158203125,-8.209228515625
16.8499999,1.5083470344543457,9.591172218322754,-0.8762778043746948,8.1329345703125,-2.7923583984375,4.180908203125
16.8699999,1.4437036514282227,9.639056205749512,-0.7781155705451965,5.645751953125,-2.899169921875,11.5966796875
16.8899999,1.4269442558288574,9.655815124511719,-0.7781155705451965,13.0767822265625,-2.288818359375,15.3961181640625
16.9099999,1.4628572463989258,9.634267807006836,-0.8068459630012512,9.918212890625,-4.39453125,12.420654296875
16.929999900000002,1.5538369417190552,9.576807022094727,-0.8786720037460327,3.2501220703125,-0.640869140625,5.096435546875
16.9499999,1.656787633895874,9.50737476348877,-0.9792284965515137,-2.38037109375,-1.434326171875,-3.7841796875
16.9699999,1.7334020137786865,9.452308654785156,-1.048660397529602,-7.6751708984375,-0.3204345703125,-10.7879638671875
16.9899999,1.7501614093780518,9.437943458557129,-1.0582371950149536,-11.3067626953125,1.1749267578125,-13.5498046875
17.0099999,1.7046716213226318,9.47146224975586,-1.039083480834961,-7.32421875,-0.885009765625,-10.55908203125
17.0299999,1.6112977266311646,9.536105155944824,-0.950498104095459,-2.8839111328125,-0.3204345703125,-3.9825439453125
17.0499999,1.5083470344543457,9.605537414550781,-0.8667010068893433,1.953125,-1.861572265625,3.5858154296875
17.0699999,1.436521053314209,9.655815124511719,-0.811634361743927,8.941650390625,-2.838134765625,9.7503662109375
17.089999900000002,1.4221558570861816,9.66539192199707,-0.7805097699165344,7.4005126953125,-2.410888671875,11.260986328125
17.109999900000002,1.4700398445129395,9.636661529541016,-0.828393816947937,7.4615478515625,-2.471923828125,8.7432861328125
17.1299999,1.556231141090393,9.579200744628906,-0.8858546018600464,2.2430419921875,-1.7852783203125,2.5482177734375
17.1499999,1.647210717201233,9.516951560974121,-0.9600749015808105,-3.72314453125,-0.5645751953125,-4.2724609375
17.1699999,1.7070658206939697,9.476250648498535,-1.015141487121582,-6.1798095703125,-0.48828125,-9.1094970703125
17.1899999,1.7142484188079834,9.47146224975586,-1.01753568649292,-8.23974609375,0.0762939453125,-10.31494140625
17.2099999,1.6687586307525635,9.502586364746094,-0.9864110946655273,-5.5389404296875,-0.274658203125,-7.3089599609375
17.2299999,1.5897499322891235,9.555258750915527,-0.9265560507774353,-1.1749267578125,-1.3885498046875,-1.77001953125
17.249999900000002,1.5107412338256836,9.607931137084961,-0.8619126081466675,3.0364990234375,-1.5869140625,4.150390625
17.269999900000002,1.460463047027588,9.643844604492188,-0.8236053586006165,6.28662109375,-2.5482177734375,8.1787109375
17.2899999,1.460463047027588,9.643844604492188,-0.8212111592292786,6.8359375,-2.3956298828125,8.7127685546875
17.3099999,1.5083470344543457,9.617507934570312,-0.8523358106613159,4.180908203125,-1.9683837890625,5.6915283203125
17.3299999,1.580173134803772,9.567230224609375,-0.912190854549408,0.9307861328125,-1.6021728515625,0.67138671875
17.3499999,1.647210717201233,9.521739959716797,-0.9600749015808105,-3.5858154296875,-0.5645751953125,-4.45556640625
17.3699999,1.6831238269805908,9.490615844726562,-0.993593692779541,-5.92041015625,-0.3814697265625,-7.7362060546875
17.3899999,1.678335428237915,9.493009567260742,-0.9911994934082031,-5.5694580078125,-0.4119873046875,-7.7972412109375
17.409999900000003,1.6328455209732056,9.521739959716797,-0.9552865028381348,-3.96728515625,-0.5950927734375,-4.82177734375
17.429999900000002,1.5705963373184204,9.567230224609375,-0.9097966551780701,0.1373291015625,-1.3427734375,-0.0762939453125
17.4499999,1.5155296325683594,9.607931137084961,-0.8643068075180054,3.1890869140625,-1.9073486328125,4.2724609375
17.4699999,1.4844050407409668,9.627084732055664,-0.8427590131759644,5.2337646484375,-2.1209716796875,6.7596435546875
17.4899999,1.4939818382263184,9.622296333312988,-0.849941611289978,5.06591796875,-2.227783203125,6.4544677734375
17.5099999,1.534683346748352,9.593565940856934,-0.8834604024887085,2.6092529296875,-1.6326904296875,3.4942626953125
17.5299999,1.5921441316604614,9.555258750915527,-0.9289502501487732,-0.274658203125,-1.251220703125,-0.7781982421875
17.5499999,1.6400281190872192,9.519346237182617,-0.9672574996948242,-3.2501220703125,-0.8697509765625,-4.547119140625
17.5699999,1.6615760326385498,9.502586364746094,-0.9840168952941895,-4.974365234375,-0.4730224609375,-6.378173828125
17.589999900000002,1.6519991159439087,9.509769439697266,-0.9744400978088379,-4.3487548828125,-0.640869140625,-5.6915283203125
17.609999900000002,1.6112977266311646,9.536105155944824,-0.9385270476341248,-2.105712890625,-0.9613037109375,-2.8076171875
17.6299999,1.5634137392044067,9.57201862335205,-0.9002198576927185,0.8392333984375,-1.52587890625,0.9918212890625
17.6499999,1.522712230682373,9.600749015808105,-0.8667010068893433,3.326416015625,-1.922607421875,4.241943359375
17.6699999,1.5083470344543457,9.612719535827637,-0.8547300100326538,4.241943359375,-1.9989013671875,5.5999755859375
17.6899999,1.522712230682373,9.600749015808105,-0.871489405632019,3.6163330078125,-1.9378662109375,4.5928955078125
17.7099999,1.5610195398330688,9.576807022094727,-0.9026140570640564,1.3427734375,-1.5716552734375,1.77001953125
17.7299999,1.6041151285171509,9.545681953430176,-0.9385270476341248,-1.28173828125,-1.15966796875,-1.6937255859375
17.749999900000002,1.6400281190872192,9.524134635925293,-0.9672574996948242,-3.0517578125,-0.7781982421875,-4.3182373046875
17.769999900000002,1.647210717201233,9.516951560974121,-0.9720458984375,-3.997802734375,-0.7171630859375,-5.279541015625
17.7899999,1.6304513216018677,9.531316757202148,-0.9552865028381348,-3.1585693359375,-0.8087158203125,-4.0130615234375
17.8099999,1.5945383310317993,9.555258750915527,-0.9241618514060974,-0.9613037109375,-1.15966796875,-1.2664794921875
17.8299999,1.5538369417190552,9.583989143371582,-0.8882488012313843,1.312255859375,-1.5411376953125,1.6632080078125
17.8499999,1.5298948287963867,9.600749015808105,-0.8690952062606812,2.9296875,-1.8768310546875,3.7841796875
17.8699999,1.525106430053711,9.605537414550781,-0.8643068075180054,3.35693359375,-1.9683837890625,4.3792724609375
17.8899999,1.5490485429763794,9.593565940856934,-0.8810662031173706,2.4566650390625,-1.6632080078125,3.1585693359375
17.909999900000003,1.5849615335464478,9.567230224609375,-0.9074024558067322,0.5950927734375,-1.434326171875,0.6103515625
17.929999900000002,1.6208745241165161,9.543288230895996,-0.9385270476341248,-1.4801025390625,-1.1138916015625,-2.2430419921875
17.9499999,1.6424223184585571,9.526528358459473,-0.9552865028381348,-3.0059814453125,-0.8392333984375,-4.0740966796875
17.9699999,1.6376339197158813,9.524134635925293,-0.9600749015808105,-3.265380859375,-0.79345703125,-4.180908203125
17.9899999,1.6160861253738403,9.53849983215332,-0.9433154463768005,-2.1209716796875,-0.9613037109375,-2.74658203125
18.0099999,1.580173134803772,9.560047149658203,-0.9193734526634216,-0.1983642578125,-1.251220703125,-0.335693359375
18.0299999,1.5490485429763794,9.581595420837402,-0.8930372595787048,1.708984375,-1.5869140625,2.0751953125
18.0499999,1.5322890281677246,9.593565940856934,-0.8834604024887085,2.685546875,-1.708984375,3.5247802734375
18.0699999,1.53707754611969,9.593565940856934,-0.8834604024887085,2.593994140625,-1.7547607421875,3.3111572265625
18.089999900000002,1.558625340461731,9.579200744628906,-0.9002198576927185,1.4495849609375,-1.495361328125,1.7242431640625
18.109999900000002,1.5897499322891235,9.557653427124023,-0.9217676520347595,-0.18310546875,-1.220703125,-0.3814697265625
18.1299999,1.6160861253738403,9.5408935546875,-0.9409212470054626,-1.7547607421875,-1.068115234375,-2.44140625
18.1499999,1.6280571222305298,9.531316757202148,-0.9528923034667969,-2.6092529296875,-0.8697509765625,-3.5400390625
18.1699999,1.6208745241165161,9.53849983215332,-0.9457096457481384,-2.410888671875,-0.885009765625,-3.1280517578125
18.1899999,1.599326729774475,9.552865028381348,-0.9313444495201111,-1.2054443359375,-1.1138916015625,-1.6937255859375
18.2099999,1.5705963373184204,9.57441234588623,-0.9074024558067322,0.4119873046875,-1.40380859375,0.3509521484375
18.2299999,1.5514427423477173,9.588777542114258,-0.8882488012313843,1.77001953125,-1.617431640625,2.1514892578125
18.249999900000002,1.5442601442337036,9.593565940856934,-0.8834604024887085,2.288818359375,-1.6937255859375,3.0059814453125
18.269999900000002,1.5538369417190552,9.583989143371582,-0.8882488012313843,1.8310546875,-1.6326904296875,2.410888671875
18.2899999,1.577778935432434,9.567230224609375,-0.9050082564353943,0.732421875,-1.4495849609375,0.946044921875
18.3099999,1.599326729774475,9.550470352172852,-0.9217676520347595,-0.579833984375,-1.2359619140625,-1.0223388671875
18.3299999,1.6184803247451782,9.536105155944824,-0.9361328482627869,-1.7242431640625,-1.068115234375,-2.4261474609375
18.3499999,1.6208745241165161,9.536105155944824,-0.9409212470054626,-2.2125244140625,-0.946044921875,-2.960205078125
18.3699999,1.6112977266311646,9.543288230895996,-0.933738648891449,-1.64794921875,-1.0833740234375,-2.3040771484375
18.3899999,1.5897499322891235,9.557653427124023,-0.9193734526634216,-0.5340576171875,-1.2054443359375,-0.7781982421875
18.409999900000003,1.5658079385757446,9.57201862335205,-0.9050082564353943,0.67138671875,-1.3885498046875,0.9765625
18.429999900000002,1.5514427423477173,9.579200744628906,-0.8954314589500427,1.6021728515625,-1.6326904296875,2.044677734375
18.4499999,1.5490485429763794,9.581595420837402,-0.8954314589500427,1.9378662109375,-1.64794921875,2.349853515625
18.4699999,1.5610195398330688,9.57441234588623,-0.9026140570640564,1.3275146484375,-1.5869140625,1.6632080078125
18.4899999,1.580173134803772,9.5624418258667,-0.9169792532920837,0.1983642578125,-1.3427734375,0.1373291015625
18.5099999,1.599326729774475,9.550470352172852,-0.9313444495201111,-0.9765625,-1.1749267578125,-1.46484375
18.5299999,1.6112977266311646,9.545681953430176,-0.9385270476341248,-1.800537109375,-1.0528564453125,-2.4566650390625
18.5499999,1.6089035272598267,9.545681953430176,-0.9385270476341248,-1.922607421875,-0.9613037109375,-2.4871826171875
18.5699999,1.5969325304031372,9.552865028381348,-0.9289502501487732,-1.0986328125,-1.129150390625,-1.52587890625
18.589999900000002,1.580173134803772,9.564835548400879,-0.912190854549408,0.0457763671875,-1.3427734375,0.0152587890625
18.609999900000002,1.5634137392044067,9.576807022094727,-0.9002198576927185,1.03759765625,-1.4801025390625,1.28173828125
18.6299999,1.5538369417190552,9.581595420837402,-0.8930372595787048,1.5869140625,-1.617431640625,1.9683837890625
18.6499999,1.556231141090393,9.579200744628906,-0.8978256583213806,1.4190673828125,-1.5411376953125,1.8157958984375
18.6699999,1.5682021379470825,9.569623947143555,-0.9097966551780701,0.7476806640625,-1.46484375,0.946044921875
18.6899999,1.5849615335464478,9.560047149658203,-0.9241618514060974,-0.2593994140625,-1.2969970703125,-0.4425048828125
18.7099999,1.599326729774475,9.548076629638672,-0.9361328482627869,-1.2054443359375,-1.1138916015625,-1.6021728515625
18.7299999,1.6065093278884888,9.543288230895996,-0.9385270476341248,-1.5411376953125,-1.068115234375,-2.0751953125
18.749999900000002,1.6041151285171509,9.548076629638672,-0.933738648891449,-1.3275146484375,-1.1138916015625,-1.8310546875
18.769999900000002,1.5921441316604614,9.557653427124023,-0.9193734526634216,-0.5645751953125,-1.28173828125,-0.8544921875
18.7899999,1.577778935432434,9.569623947143555,-0.9050082564353943,0.2899169921875,-1.40380859375,0.396728515625
18.8099999,1.5658079385757446,9.579200744628906,-0.8954314589500427,1.068115234375,-1.495361328125,1.2969970703125
18.8299999,1.5634137392044067,9.579200744628906,-0.8954314589500427,1.251220703125,-1.556396484375,1.5716552734375
18.8499999,1.5705963373184204,9.57441234588623,-0.9026140570640564,0.9765625,-1.46484375,1.190185546875
18.8699999,1.5825673341751099,9.567230224609375,-0.9145850539207458,0.274658203125,-1.3885498046875,0.274658203125
18.8899999,1.5969325304031372,9.555258750915527,-0.9289502501487732,-0.518798828125,-1.220703125,-0.79345703125
18.909999900000003,1.6041151285171509,9.550470352172852,-0.9361328482627869,-1.15966796875,-1.190185546875,-1.617431640625
18.929999900000002,1.6041151285171509,9.548076629638672,-0.9385270476341248,-1.373291015625,-1.15966796875,-1.7547607421875
18.9499999,1.5969325304031372,9.552865028381348,-0.9289502501487732,-0.9002685546875,-1.1444091796875,-1.15966796875
18.9699999,1.5873557329177856,9.5624418258667,-0.9193734526634216,-0.091552734375,-1.2664794921875,-0.2593994140625
18.9899999,1.5753847360610962,9.57201862335205,-0.9074024558067322,0.701904296875,-1.4495849609375,0.7171630859375
19.0099999,1.5682021379470825,9.579200744628906,-0.9026140570640564,1.03759765625,-1.556396484375,1.312255859375
19.0299999,1.5658079385757446,9.579200744628906,-0.9050082564353943,0.8544921875,-1.4495849609375,1.2359619140625
19.0499999,1.5705963373184204,9.57201862335205,-0.912190854549408,0.4730224609375,-1.3580322265625,0.6256103515625
19.0699999,1.580173134803772,9.5624418258667,-0.9217676520347595,-0.0762939453125,-1.28173828125,-0.244140625
19.089999900000002,1.5873557329177856,9.552865028381348,-0.9289502501487732,-0.762939453125,-1.2054443359375,-1.068115234375
19.109999900000002,1.5921441316604614,9.548076629638672,-0.9313444495201111,-1.0223388671875,-1.190185546875,-1.434326171875
19.1299999,1.5921441316604614,9.550470352172852,-0.9313444495201111,-0.9307861328125,-1.1138916015625,-1.3427734375
19.1499999,1.5849615335464478,9.555258750915527,-0.9265560507774353,-0.48828125,-1.2054443359375,-0.701904296875
19.1699999,1.580173134803772,9.567230224609375,-0.9193734526634216,0.213623046875,-1.4190673828125,0.030517578125
19.1899999,1.5729905366897583,9.57201862335205,-0.9097966551780701,0.7171630859375,-1.4801025390625,0.7781982421875
19.2099999,1.5682021379470825,9.57201862335205,-0.9050082564353943,0.762939453125,-1.495361328125,0.9918212890625
19.2299999,1.5729905366897583,9.569623947143555,-0.9050082564353943,0.5645751953125,-1.434326171875,0.7476806640625
19.249999900000002,1.580173134803772,9.5624418258667,-0.9074024558067322,0.18310546875,-1.3580322265625,0.152587890625
19.269999900000002,1.5897499322891235,9.557653427124023,-0.9145850539207458,-0.244140625,-1.2359619140625,-0.54931640625
19.2899999,1.5969325304031372,9.552865028381348,-0.9217676520347595,-0.732421875,-1.1444091796875,-1.0833740234375
19.3099999,1.599326729774475,9.552865028381348,-0.9265560507774353,-0.9002685546875,-1.1444091796875,-1.251220703125
19.3299999,1.5945383310317993,9.557653427124023,-0.9241618514060974,-0.732421875,-1.251220703125,-0.9765625
19.3499999,1.5873557329177856,9.564835548400879,-0.9193734526634216,-0.1983642578125,-1.2664794921875,-0.3204345703125
19.3699999,1.577778935432434,9.569623947143555,-0.912190854549408,0.3509521484375,-1.3427734375,0.335693359375
19.3899999,1.5729905366897583,9.569623947143555,-0.9074024558067322,0.54931640625,-1.40380859375,0.7171630859375
19.409999900000003,1.5705963373184204,9.567230224609375,-0.9074024558067322,0.6103515625,-1.3885498046875,0.7476806640625
19.429999900000002,1.5753847360610962,9.5624418258667,-0.9097966551780701,0.42724609375,-1.4190673828125,0.42724609375
19.4499999,1.5825673341751099,9.557653427124023,-0.9169792532920837,0,-1.3427734375,-0.1068115234375
19.4699999,1.5921441316604614,9.552865028381348,-0.9217676520347595,-0.4119873046875,-1.2054443359375,-0.640869140625
19.4899999,1.5969325304031372,9.550470352172852,-0.9265560507774353,-0.701904296875,-1.220703125,-1.0223388671875
19.5099999,1.599326729774475,9.550470352172852,-0.9265560507774353,-0.6866455078125,-1.190185546875,-0.9765625
19.5299999,1.5945383310317993,9.555258750915527,-0.9241618514060974,-0.274658203125,-1.28173828125,-0.6103515625
19.5499999,1.5849615335464478,9.5624418258667,-0.9193734526634216,0.1068115234375,-1.2969970703125,-0.1068115234375
19.5699999,1.577778935432434,9.567230224609375,-0.9145850539207458,0.3814697265625,-1.40380859375,0.396728515625
19.589999900000002,1.5705963373184204,9.569623947143555,-0.912190854549408,0.4730224609375,-1.3580322265625,0.640869140625
19.609999900000002,1.5705963373184204,9.569623947143555,-0.9145850539207458,0.4425048828125,-1.4190673828125,0.5340576171875
19.6299999,1.5753847360610962,9.567230224609375,-0.9145850539207458,0.18310546875,-1.3427734375,0.1373291015625
19.6499999,1.5825673341751099,9.5624418258667,-0.9193734526634216,-0.1068115234375,-1.3275146484375,-0.30517578125
19.6699999,1.5897499322891235,9.560047149658203,-0.9217676520347595,-0.4425048828125,-1.1749267578125,-0.6866455078125
19.6899999,1.5945383310317993,9.557653427124023,-0.9241618514060974,-0.5340576171875,-1.220703125,-0.8544921875
19.7099999,1.5921441316604614,9.560047149658203,-0.9241618514060974,-0.4730224609375,-1.251220703125,-0.7476806640625
19.7299999,1.5873557329177856,9.5624418258667,-0.9193734526634216,-0.2593994140625,-1.28173828125,-0.396728515625
19.749999900000002,1.5825673341751099,9.564835548400879,-0.9145850539207458,0.1373291015625,-1.4190673828125,0
19.769999900000002,1.577778935432434,9.567230224609375,-0.9097966551780701,0.274658203125,-1.3580322265625,0.3662109375
19.7899999,1.5753847360610962,9.567230224609375,-0.9097966551780701,0.30517578125,-1.373291015625,0.42724609375
19.8099999,1.577778935432434,9.567230224609375,-0.9097966551780701,0.244140625,-1.3885498046875,0.30517578125
19.8299999,1.580173134803772,9.5624418258667,-0.9145850539207458,0.152587890625,-1.312255859375,0.0762939453125
19.8499999,1.5849615335464478,9.560047149658203,-0.9193734526634216,-0.0762939453125,-1.28173828125,-0.335693359375
19.8699999,1.5897499322891235,9.560047149658203,-0.9241618514060974,-0.3509521484375,-1.1749267578125,-0.5645751953125
19.8899999,1.5897499322891235,9.557653427124023,-0.9289502501487732,-0.5035400390625,-1.28173828125,-0.6561279296875
19.909999900000003,1.5873557329177856,9.557653427124023,-0.9265560507774353,-0.3662109375,-1.2054443359375,-0.579833984375
19.929999900000002,1.5849615335464478,9.560047149658203,-0.9217676520347595,-0.1373291015625,-1.312255859375,-0.274658203125
19.9499999,1.5825673341751099,9.5624418258667,-0.9193734526634216,0.152587890625,-1.434326171875,0.0457763671875
19.9699999,1.5825673341751099,9.564835548400879,-0.9145850539207458,0.2288818359375,-1.312255859375,0.213623046875
19.9899999,1.580173134803772,9.564835548400879,-0.9169792532920837,0.18310546875,-1.40380859375,0.3509521484375
20.0099999,1.5825673341751099,9.564835548400879,-0.9217676520347595,0.2593994140625,-1.40380859375,0.244140625
20.0299999,1.5825673341751099,9.564835548400879,-0.9217676520347595,0,-1.312255859375,-0.1068115234375
20.0499999,1.5873557329177856,9.5624418258667,-0.9241618514060974,-0.1220703125,-1.312255859375,-0.3509521484375
20.0699999,1.5873557329177856,9.5624418258667,-0.9241618514060974,-0.3509521484375,-1.220703125,-0.4730224609375
20.089999900000002,1.5897499322891235,9.560047149658203,-0.9217676520347595,-0.3204345703125,-1.28173828125,-0.54931640625
20.109999900000002,1.5873557329177856,9.560047149658203,-0.9193734526634216,-0.213623046875,-1.3580322265625,-0.4730224609375
20.1299999,1.5825673341751099,9.560047149658203,-0.9169792532920837,-0.244140625,-1.3275146484375,-0.2288818359375
20.1499999,1.577778935432434,9.5624418258667,-0.9169792532920837,0.030517578125,-1.3580322265625,0
20.1699999,1.5753847360610962,9.564835548400879,-0.9169792532920837,0.091552734375,-1.3427734375,0.2593994140625
20.1899999,1.5753847360610962,9.564835548400879,-0.9169792532920837,0.2899169921875,-1.3580322265625,0.30517578125
20.2099999,1.580173134803772,9.564835548400879,-0.9193734526634216,0.18310546875,-1.373291015625,0.152587890625
20.2299999,1.5849615335464478,9.5624418258667,-0.9241618514060974,0.0152587890625,-1.312255859375,-0.0152587890625
20.249999900000002,1.5897499322891235,9.560047149658203,-0.9289502501487732,-0.152587890625,-1.312255859375,-0.2593994140625
20.269999900000002,1.5921441316604614,9.560047149658203,-0.933738648891449,-0.244140625,-1.2664794921875,-0.4425048828125
20.2899999,1.5945383310317993,9.557653427124023,-0.933738648891449,-0.3509521484375,-1.220703125,-0.4425048828125
20.3099999,1.5921441316604614,9.560047149658203,-0.9313444495201111,-0.274658203125,-1.251220703125,-0.42724609375
20.3299999,1.5873557329177856,9.5624418258667,-0.9241618514060974,-0.1220703125,-1.2664794921875,-0.2593994140625
20.3499999,1.5825673341751099,9.564835548400879,-0.9193734526634216,0.030517578125,-1.3275146484375,-0.030517578125
20.3699999,1.577778935432434,9.564835548400879,-0.9145850539207458,0.152587890625,-1.40380859375,0.2288818359375
20.3899999,1.5753847360610962,9.564835548400879,-0.9097966551780701,0.2288818359375,-1.3885498046875,0.244140625
20.409999900000003,1.577778935432434,9.564835548400879,-0.9097966551780701,0.2288818359375,-1.312255859375,0.1678466796875
20.429999900000002,1.577778935432434,9.5624418258667,-0.9145850539207458,0.0457763671875,-1.312255859375,-0.091552734375
20.4499999,1.5825673341751099,9.560047149658203,-0.9193734526634216,-0.1220703125,-1.2359619140625,-0.3662109375
20.4699999,1.5825673341751099,9.560047149658203,-0.9265560507774353,-0.30517578125,-1.2664794921875,-0.5950927734375
20.4899999,1.5849615335464478,9.560047149658203,-0.9289502501487732,-0.396728515625,-1.3275146484375,-0.6256103515625
20.5099999,1.5849615335464478,9.560047149658203,-0.9289502501487732,-0.2593994140625,-1.2664794921875,-0.396728515625
20.5299999,1.5849615335464478,9.5624418258667,-0.9265560507774353,-0.0762939453125,-1.2969970703125,-0.1373291015625
20.5499999,1.5849615335464478,9.5624418258667,-0.9217676520347595,0.1068115234375,-1.3580322265625,0.1678466796875
20.5699999,1.5825673341751099,9.564835548400879,-0.9169792532920837,0.30517578125,-1.3580322265625,0.3814697265625
