# Time (seconds),Accel_X,Accel_Y,Accel_Z,Gyro_X,Gyro_Y,Gyro_Z
0.0099999,11.39400577545166,-2.3750481605529785,-3.3925838470458984,-65.8416748046875,-63.0950927734375,15.1824951171875
0.029999900000000003,11.602301597595215,-2.2816741466522217,-3.646369218826294,-4.9896240234375,-22.8118896484375,24.5361328125
0.0499999,11.75553035736084,-1.9823989868164062,-4.02465295791626,11.8865966796875,8.453369140625,19.3939208984375
0.0699999,11.769895553588867,-1.7932571172714233,-4.206612586975098,5.0506591796875,14.9078369140625,6.9580078125
0.08999990000000001,11.599906921386719,-1.745373010635376,-4.194641590118408,13.4735107421875,21.9268798828125,-0.518798828125
0.10999990000000001,11.331756591796875,-1.7956513166427612,-4.060565948486328,21.7132568359375,31.3873291015625,-2.227783203125
0.1299999,10.919954299926758,-1.9321208000183105,-3.840299606323242,34.7442626953125,41.44287109375,13.885498046875
0.14999990000000002,10.465055465698242,-2.1164743900299072,-3.6535518169403076,31.1126708984375,43.88427734375,28.3966064453125
0.1699999,9.99339771270752,-2.346317768096924,-3.4596214294433594,32.684326171875,45.440673828125,22.03369140625
0.1899999,9.557653427124023,-2.607285737991333,-3.2537200450897217,33.721923828125,41.290283203125,14.6484375
0.20999990000000002,9.224859237670898,-2.829946517944336,-3.021482467651367,27.4505615234375,27.2064208984375,15.869140625
0.2299999,8.995016098022461,-2.9927520751953125,-2.7437551021575928,28.6712646484375,16.6473388671875,18.096923828125
0.2499999,8.820239067077637,-3.1076738834381104,-2.4660277366638184,31.7535400390625,11.9476318359375,11.0626220703125
0.2699999,8.734047889709473,-3.287238836288452,-2.3127987384796143,30.029296875,3.1585693359375,13.61083984375
0.28999990000000003,8.7484130859375,-3.4165258407592773,-2.1739351749420166,35.6292724609375,-25.054931640625,9.1094970703125
0.3099999,8.860940933227539,-3.536235809326172,-2.2697031497955322,28.6712646484375,-23.3612060546875,-11.71875
0.3299999,9.038111686706543,-3.552995204925537,-2.43011474609375,27.4200439453125,2.838134765625,-14.984130859375
0.34999990000000003,9.208099365234375,-3.5003228187561035,-2.5785553455352783,64.178466796875,9.9334716796875,6.500244140625
0.3699999,9.35654067993164,-3.3710360527038574,-2.5953147411346436,85.693359375,-5.706787109375,25.6500244140625
0.3899999,9.452308654785156,-3.272873640060425,-2.3965959548950195,63.446044921875,-4.7760009765625,19.5465087890625
0.40999990000000003,9.57441234588623,-3.155557870864868,-2.0159177780151367,38.5894775390625,15.533447265625,2.6092529296875
0.4299999,9.710882186889648,-3.066972494125366,-1.5418659448623657,38.116455078125,23.92578125,-7.354736328125
0.4499999,9.856928825378418,-2.9975404739379883,-1.1085153818130493,44.43359375,23.7579345703125,-10.7574462890625
0.4699999,10.007762908935547,-2.964021682739258,-0.6991068720817566,50.9796142578125,19.9432373046875,-11.077880859375
0.4899999,10.113107681274414,-2.983175277709961,-0.40462008118629456,49.86572265625,11.4898681640625,-6.195068359375
0.5099999,10.163386344909668,-3.045424461364746,-0.2537853717803955,44.647216796875,14.6942138671875,-4.8065185546875
0.5299999,10.120290756225586,-3.2297780513763428,-0.26096799969673157,30.914306640625,11.4898681640625,-6.9122314453125
0.5499999,9.943120002746582,-3.5003228187561035,-0.4381389021873474,27.2064208984375,7.4615478515625,0.3204345703125
0.5699999,9.670180320739746,-3.8594532012939453,-0.6823474764823914,34.5458984375,4.5013427734375,6.011962890625
0.5899998999999999,9.313444137573242,-4.223371982574463,-1.0223240852355957,28.472900390625,3.2501220703125,-3.9825439453125
0.6099998999999999,8.975862503051758,-4.477157115936279,-1.3335703611373901,23.1781005859375,5.7220458984375,-16.66259765625
0.6299999,8.700529098510742,-4.613626480102539,-1.5705963373184204,14.8468017578125,10.5133056640625,-18.4326171875
0.6499999,8.530540466308594,-4.616020679473877,-1.7166426181793213,1.2664794921875,17.547607421875,-24.139404296875
0.6699999,8.516175270080566,-4.4508209228515625,-1.7334020137786865,8.36181640625,17.5323486328125,-33.14208984375
0.6899999,8.619126319885254,-4.125209331512451,-1.644816517829895,12.481689453125,19.6685791015625,-36.7431640625
0.7099999,8.796297073364258,-3.708618402481079,-1.4915876388549805,6.2255859375,26.336669921875,-32.3638916015625
0.7299998999999999,8.96389102935791,-3.2561142444610596,-1.2880805730819702,10.284423828125,25.5279541015625,-23.0255126953125
0.7499998999999999,9.097966194152832,-2.8347349166870117,-1.05105459690094,26.7333984375,15.0604248046875,-16.7999267578125
0.7699999,9.14585018157959,-2.492363929748535,-0.8259995579719543,26.885986328125,9.33837890625,-13.092041015625
0.7899999,9.095572471618652,-2.2625205516815186,-0.6368576288223267,7.110595703125,17.852783203125,-8.3465576171875
0.8099999,8.971074104309082,-2.1499931812286377,-0.4908113479614258,6.9732666015625,16.3726806640625,-2.227783203125
0.8299999,8.738836288452148,-2.1954829692840576,-0.3902548849582672,24.6124267578125,3.90625,3.1585693359375
0.8499998999999999,8.44434928894043,-2.360682964324951,-0.3256114423274994,25.2532958984375,-0.8392333984375,-0.7171630859375
0.8699998999999999,8.176198959350586,-2.564189910888672,-0.3256114423274994,9.7198486328125,-1.77001953125,-0.79345703125
0.8899999,7.94635534286499,-2.7748796939849854,-0.3711012601852417,3.6468505859375,-0.8392333984375,8.148193359375
0.9099999,7.759607791900635,-2.983175277709961,-0.507570743560791,5.0506591796875,-0.2899169921875,5.43212890625
0.9299999,7.572859764099121,-3.184288263320923,-0.7469909191131592,3.3416748046875,1.129150390625,-6.6986083984375
0.9499999,7.441178798675537,-3.3231520652770996,-1.0654197931289673,10.2996826171875,-2.2430419921875,-5.6304931640625
0.9699998999999999,7.354987621307373,-3.4165258407592773,-1.3910311460494995,25.57373046875,-3.72314453125,3.662109375
0.9899998999999999,7.280767440795898,-3.44765043258667,-1.6711528301239014,28.86962890625,3.2501220703125,-2.1514892578125
1.0099999,7.220912456512451,-3.4356794357299805,-1.8363527059555054,29.632568359375,3.8604736328125,-10.2691650390625
1.0299999,7.141903877258301,-3.3423056602478027,-1.9297266006469727,32.04345703125,1.495361328125,-13.5650634765625
1.0499999,7.182605266571045,-3.134010076522827,-1.941697597503662,43.5638427734375,0.79345703125,-11.871337890625
1.0699999,7.321468830108643,-2.8107926845550537,-1.886630892753601,48.9959716796875,8.30078125,-11.2152099609375
1.0899999,7.558494567871094,-2.427720546722412,-1.778891921043396,42.0989990234375,19.3328857421875,-20.4925537109375
1.1099999,7.848193168640137,-2.0159177780151367,-1.580173134803772,50.7659912109375,19.0582275390625,-19.989013671875
1.1299999,8.063671112060547,-1.6136919260025024,-1.3311761617660522,65.2618408203125,12.4053955078125,-10.986328125
1.1499999,8.17380428314209,-1.256955862045288,-1.0223240852355957,71.1212158203125,10.55908203125,-8.4991455078125
1.1699998999999999,8.200140953063965,-0.9457096457481384,-0.7134721279144287,68.206787109375,5.8746337890625,-12.8631591796875
1.1899998999999999,8.159439086914062,-0.6727706789970398,-0.4165911078453064,65.7958984375,-1.861572265625,-15.9912109375
1.2099999,8.070854187011719,-0.4620809257030487,-0.15083470940589905,63.629150390625,-3.326416015625,-12.1917724609375
1.2299999,7.989450931549072,-0.28969839215278625,0.047884032130241394,60.333251953125,-1.922607421875,-9.82666015625
1.2499999,7.929595947265625,-0.14365209639072418,0.1867477297782898,57.9833984375,-5.767822265625,-11.2457275390625
1.2699999,7.8960771560668945,-0.05267243832349777,0.26815059781074524,61.4013671875,-11.8560791015625,-13.9312744140625
1.2899999,7.841010570526123,-0.031124621629714966,0.24660277366638184,62.713623046875,-13.824462890625,-10.650634765625
1.3099999,7.836222171783447,-0.08858546614646912,0.12689268589019775,65.4296875,-17.181396484375,-2.86865234375
1.3299999,7.91283655166626,-0.1867477297782898,-0.06703764945268631,68.9697265625,-21.148681640625,-9.2620849609375
1.3499999,7.99184513092041,-0.2513911724090576,-0.2944868206977844,66.650390625,-16.754150390625,-18.4478759765625
1.3699999,8.085219383239746,-0.24181437492370605,-0.38307225704193115,66.558837890625,-12.481689453125,-17.4102783203125
1.3899999,8.192957878112793,-0.1867477297782898,-0.33997663855552673,62.2711181640625,-20.050048828125,-9.2620849609375
1.4099999,8.305485725402832,-0.06224924325942993,-0.21308395266532898,56.2744140625,-30.1666259765625,-10.650634765625
1.4299998999999999,8.38449478149414,0.07661445438861847,-0.05267243832349777,45.41015625,-26.7791748046875,-15.0909423828125
1.4499999,8.38449478149414,0.2825157940387726,-0.004788403399288654,44.4488525390625,-25.238037109375,-19.866943359375
1.4699999,8.456320762634277,0.507570743560791,-0.11252748221158981,51.6357421875,-41.2445068359375,-8.880615234375
1.4899999,8.561665534973145,0.8068459630012512,-0.3232172429561615,52.825927734375,-47.2259521484375,-13.9312744140625
1.5099999,8.678980827331543,1.0654197931289673,-0.6224924325942993,39.9627685546875,-28.86962890625,-20.721435546875
1.5299999,8.755595207214355,1.41257905960083,-0.8786720037460327,37.353515625,-23.98681640625,-18.9056396484375
1.5499999,8.633491516113281,1.5849615335464478,-0.9528923034667969,48.8128662109375,-37.53662109375,-3.4332275390625
1.5699999,8.398859977722168,1.659181833267212,-0.9074024558067322,49.25537109375,-48.5076904296875,-0.3662109375
1.5899999,8.226476669311523,1.6136919260025024,-0.7876923680305481,39.7796630859375,-49.957275390625,-14.007568359375
1.6099999,8.219294548034668,1.5849615335464478,-0.7541735172271729,39.581298828125,-56.9000244140625,-12.3748779296875
1.6299999,8.26239013671875,1.5298948287963867,-0.8738836050033569,36.041259765625,-58.3343505859375,-0.67138671875
1.6499999,8.35336971282959,1.525106430053711,-1.1204863786697388,30.1666259765625,-67.9168701171875,6.4849853515625
1.6699999,8.473079681396484,1.5466543436050415,-1.4532804489135742,20.111083984375,-64.056396484375,-13.3056640625
1.6899998999999999,8.671798706054688,1.4652514457702637,-1.7381904125213623,13.1988525390625,-55.4046630859375,-20.3399658203125
1.7099999,8.89445972442627,1.3982137441635132,-2.011129379272461,3.6163330078125,-59.9212646484375,-5.859375
1.7299999,9.114726066589355,1.290474772453308,-2.315192937850952,-3.387451171875,-67.0013427734375,0.0457763671875
1.7499999,9.315838813781738,1.1683704853057861,-2.609679937362671,-8.60595703125,-59.2041015625,-15.045166015625
1.7699999,9.536105155944824,1.0079588890075684,-2.9712042808532715,-17.88330078125,-45.7916259765625,-15.68603515625
1.7899999,9.737217903137207,0.9217676520347595,-3.2968156337738037,-21.5301513671875,-45.5474853515625,-4.3487548828125
1.8099999,9.9000244140625,0.8164227604866028,-3.5027170181274414,-25.32958984375,-54.6875,7.0037841796875
1.8299999,9.799467086791992,0.7182605266571045,-3.732560396194458,-23.529052734375,-87.615966796875,20.477294921875
1.8499999,9.80904483795166,0.5937620401382446,-3.861847400665283,-12.75634765625,-103.0120849609375,9.5062255859375
1.8699999,9.835380554199219,0.524330198764801,-4.113238334655762,-24.7650146484375,-78.18603515625,21.209716796875
1.8899999,10.029311180114746,0.42856210470199585,-4.41969633102417,-46.417236328125,-61.248779296875,45.196533203125
1.9099999,10.381258964538574,0.395043283700943,-4.750096321105957,-58.6700439453125,-43.27392578125,33.599853515625
1.9299998999999999,10.654197692871094,0.545877993106842,-4.977545261383057,-64.605712890625,-21.0113525390625,10.2691650390625
1.9499999,10.805032730102539,0.7852981686592102,-5.035006046295166,-74.27978515625,-3.1890869140625,10.8489990234375
1.9699999,10.8505220413208,1.0965443849563599,-4.879383087158203,-82.000732421875,-6.195068359375,35.5072021484375
1.9899999,10.81700325012207,1.2713210582733154,-4.642356872558594,-69.88525390625,-27.77099609375,48.9044189453125
2.0099999,10.737994194030762,1.2282254695892334,-4.565742492675781,-49.285888671875,-52.3834228515625,55.2520751953125
2.0299999,10.639832496643066,1.0630255937576294,-4.587290287017822,-9.796142578125,-63.6444091796875,80.7952880859375
2.0499999,10.453084945678711,0.8451532125473022,-4.687847137451172,-18.61572265625,-58.3648681640625,109.55810546875
2.0699999,10.163386344909668,0.5410895943641663,-4.81473970413208,-73.8525390625,-44.12841796875,117.8131103515625
2.0899999,9.773131370544434,0.16998831927776337,-4.886565685272217,-81.4208984375,-32.2418212890625,124.6490478515625
2.1099999,9.476250648498535,-0.2513911724090576,-5.085284233093262,-53.1768798828125,-45.135498046875,130.7830810546875
2.1299999,9.311050415039062,-0.6440402865409851,-5.367800235748291,-40.71044921875,-50.47607421875,129.1961669921875
2.1499999,9.306262016296387,-0.9002198576927185,-5.829881191253662,-69.9615478515625,-30.94482421875,119.62890625
2.1699999,9.387664794921875,-1.2665326595306396,-6.44279670715332,-97.8546142578125,-10.92529296875,132.232666015625
2.1899999,9.442731857299805,-1.8411411046981812,-7.177816867828369,-84.5794677734375,10.3759765625,163.909912109375
2.2099999,9.423578262329102,-2.7102363109588623,-7.903259754180908,-44.158935546875,-20.93505859375,173.797607421875
2.2299999,9.354146003723145,-3.7636849880218506,-8.432378768920898,-1.312255859375,-53.7567138671875,178.497314453125
2.2499999,9.363722801208496,-4.630385875701904,-8.722076416015625,10.8642578125,-54.6875,161.8499755859375
2.2699999,9.452308654785156,-5.245696067810059,-8.820239067077637,-4.7149658203125,-18.829345703125,153.99169921875
2.2899999,9.63187313079834,-5.688623428344727,-8.913613319396973,-27.496337890625,25.08544921875,173.7518310546875
2.3099999,9.739612579345703,-6.19379997253418,-9.057265281677246,-25.390625,48.919677734375,187.43896484375
2.3299999,9.528923034667969,-7.015010833740234,-9.222464561462402,0.06103515625,58.28857421875,173.6297607421875
2.3499999,8.942343711853027,-8.149862289428711,-9.26795482635498,18.463134765625,56.5643310546875,141.66259765625
2.3699999,8.015787124633789,-9.344569206237793,-9.066842079162598,28.01513671875,51.3916015625,98.876953125
2.3899999,6.888118267059326,-10.342951774597168,-8.547300338745117,25.421142578125,50.140380859375,51.513671875
2.4099999,5.664681434631348,-11.113883972167969,-7.68538761138916,4.669189453125,73.0133056640625,24.1851806640625
2.4299999,4.745307922363281,-11.425130844116211,-6.773196697235107,-0.3509521484375,90.301513671875,21.820068359375
2.4499999,3.9815573692321777,-11.355698585510254,-5.770026206970215,61.065673828125,-16.1285400390625,-10.8795166015625
2.4699999,3.7469255924224854,-10.860098838806152,-4.946420669555664,29.11376953125,40.0390625,-49.041748046875
2.4899999,3.804386615753174,-9.986215591430664,-4.264073371887207,-1.5716552734375,109.2987060546875,-39.4439697265625
2.5099999,3.971980571746826,-9.028534889221191,-3.581725835800171,26.1077880859375,95.7183837890625,17.2271728515625
2.5299999,4.163516521453857,-8.233659744262695,-2.9305028915405273,26.458740234375,88.8824462890625,28.4881591796875
2.5499999,4.244919776916504,-7.807491779327393,-2.293645143508911,14.739990234375,78.369140625,1.89208984375
2.5699999,4.182670593261719,-7.63989782333374,-1.6903064250946045,17.5018310546875,69.915771484375,-13.397216796875
2.5899999,4.206612586975098,-7.649474620819092,-1.1540051698684692,10.2081298828125,59.539794921875,-18.6309814453125
2.6099999,4.175487995147705,-7.65186882019043,-0.7948749661445618,3.8604736328125,51.6815185546875,-15.9149169921875
2.6299999,4.23773717880249,-7.60637903213501,-0.545877993106842,15.899658203125,40.618896484375,-6.622314453125
2.6499999,4.355052947998047,-7.587224960327148,-0.5315127968788147,10.650634765625,30.4107666015625,-6.16455078125
2.6699999,4.570530891418457,-7.5417351722717285,-0.7182605266571045,9.7808837890625,27.6336669921875,-1.4801025390625
2.6899999,4.836287498474121,-7.589619159698486,-1.048660397529602,8.23974609375,27.6947021484375,14.9078369140625
2.7099999,5.097255229949951,-7.735665798187256,-1.4484920501708984,7.659912109375,27.8472900390625,2.716064453125
2.7299999,5.363011837005615,-7.931990146636963,-1.766920804977417,32.4859619140625,16.7083740234375,-25.482177734375
2.7499999,5.664681434631348,-8.17141056060791,-1.9776105880737305,33.99658203125,10.467529296875,-28.839111328125
2.7699999,6.007051944732666,-8.374917984008789,-2.0470423698425293,17.5933837890625,18.6767578125,-12.20703125
2.7899999,6.471527099609375,-8.463502883911133,-2.0374655723571777,6.89697265625,26.18408203125,-13.4735107421875
2.8099999,6.979097843170166,-8.439560890197754,-1.98958158493042,10.986328125,26.6571044921875,-27.89306640625
2.8299999,7.484274387359619,-8.355764389038086,-1.9488801956176758,14.373779296875,26.0772705078125,-29.510498046875
2.8499999,7.898471355438232,-8.248024940490723,-1.8602946996688843,16.265869140625,25.360107421875,-16.3421630859375
2.8699999,8.159439086914062,-8.152256965637207,-1.7190368175506592,13.48876953125,25.634765625,-14.8773193359375
2.8899999,8.209717750549316,-8.13789176940918,-1.525106430053711,5.5084228515625,26.0467529296875,-27.0843505859375
2.9099999,8.11634349822998,-8.13789176940918,-1.292868971824646,2.227783203125,19.927978515625,-33.966064453125
2.9299999,7.8529815673828125,-8.183381080627441,-1.1444283723831177,10.9100341796875,16.357421875,-27.3590087890625
2.9499999,7.496245384216309,-8.245630264282227,-1.1013327836990356,19.1802978515625,12.1917724609375,-19.378662109375
2.9699999,7.036558628082275,-8.293514251708984,-1.170764684677124,21.3165283203125,5.6915283203125,-32.012939453125
2.9899999,6.572083473205566,-8.248024940490723,-1.3311761617660522,19.989013671875,1.8157958984375,-42.8314208984375
3.0099999,6.143521785736084,-8.037335395812988,-1.5514427423477173,5.4931640625,13.97705078125,-48.0194091796875
3.0299999,5.774814605712891,-7.745242595672607,-1.8195933103561401,-8.48388671875,19.8516845703125,-54.8553466796875
3.0499999,5.4875102043151855,-7.354987621307373,-2.1068975925445557,5.0201416015625,6.7901611328125,-33.935546875
3.0699999,5.240907669067383,-7.01979923248291,-2.434903144836426,14.9383544921875,-7.6446533203125,-40.5731201171875
3.0899999,5.085284233093262,-6.687005519866943,-2.7246015071868896,-5.584716796875,9.1400146484375,-60.272216796875
3.1099999,4.994304656982422,-6.3733649253845215,-2.9759926795959473,-27.557373046875,32.4859619140625,-73.05908203125
3.1299999,5.044582843780518,-6.01423454284668,-3.181894063949585,-13.3819580078125,24.139404296875,-72.1282958984375
3.1499999,5.1595048904418945,-5.628767967224121,-3.313575267791748,10.467529296875,13.702392578125,-67.68798828125
3.1699999,5.322310447692871,-5.236119270324707,-3.380612850189209,6.9732666015625,17.364501953125,-78.9031982421875
3.1899999,5.540182590484619,-4.771644115447998,-3.406949043273926,1.007080078125,23.1170654296875,-83.1146240234375
3.2099999,5.810727596282959,-4.299986362457275,-3.2824504375457764,25.6805419921875,12.908935546875,-72.8759765625
3.2299999,6.00226354598999,-3.8283286094665527,-3.0573954582214355,35.82763671875,9.33837890625,-68.145751953125
3.2499999,6.184223175048828,-3.3877954483032227,-2.7006595134735107,24.5819091796875,20.6756591796875,-74.005126953125
3.2699999,6.327875137329102,-2.913743495941162,-2.3295583724975586,33.26416015625,7.080078125,-69.5648193359375
3.2899999,6.404489517211914,-2.492363929748535,-1.9560627937316895,59.99755859375,-10.2996826171875,-58.59375
3.3099999,6.418854713439941,-2.099714994430542,-1.6927006244659424,65.3533935546875,-12.8936767578125,-61.2335205078125
3.3299999000000002,6.512228488922119,-1.6615760326385498,-1.5658079385757446,57.3577880859375,-15.838623046875,-69.9920654296875
3.3499999,6.6846113204956055,-1.2330138683319092,-1.5418659448623657,60.72998046875,-21.91162109375,-75.1190185546875
3.3699999,6.871358871459961,-0.8140285611152649,-1.5514427423477173,67.0013427734375,-20.3704833984375,-65.4296875
3.3899999,7.082048416137695,-0.4668693244457245,-1.5658079385757446,68.5577392578125,-21.5911865234375,-57.464599609375
3.4099999,7.252037048339844,-0.17956513166427612,-1.6136919260025024,61.981201171875,-26.2908935546875,-65.8721923828125
3.4299999,7.271190643310547,-0.019153613597154617,-1.6352397203445435,70.3582763671875,-27.9388427734375,-66.83349609375
3.4499999,7.220912456512451,0.11013327538967133,-1.680729627609253,82.122802734375,-28.7017822265625,-64.0411376953125
3.4699999,7.180211067199707,0.3232172429561615,-1.764526605606079,76.1260986328125,-32.6995849609375,-73.54736328125
3.4899999,7.12035608291626,0.6344634294509888,-1.8148049116134644,71.563720703125,-34.7442626953125,-81.3446044921875
3.5099999,7.003039836883545,1.0007762908935547,-1.8507179021835327,77.63671875,-36.43798828125,-71.624755859375
3.5299999,6.916848659515381,1.3718775510787964,-1.8483237028121948,86.2884521484375,-44.525146484375,-64.4989013671875
3.5499999,6.8378400802612305,1.6759412288665771,-1.8794482946395874,97.35107421875,-59.14306640625,-71.197509765625
3.5699999,6.873753070831299,1.9297266006469727,-1.9129672050476074,104.5074462890625,-69.5343017578125,-83.343505859375
3.5899999,7.000645637512207,2.3295583724975586,-1.98958158493042,103.5614013671875,-68.0084228515625,-78.216552734375
3.6099999,7.24485445022583,2.75812029838562,-2.075772762298584,89.0960693359375,-69.3817138671875,-59.50927734375
3.6299999,7.436390399932861,3.1507694721221924,-2.1045033931732178,86.151123046875,-79.16259765625,-35.369873046875
3.6499999,7.632715225219727,3.4093432426452637,-2.2194249629974365,60.7452392578125,-78.8116455078125,-41.168212890625
3.6699999,7.6566572189331055,3.4979286193847656,-2.4803929328918457,46.93603515625,-76.5228271484375,-41.2445068359375
3.6899999,7.615955829620361,3.44765043258667,-2.8826189041137695,53.009033203125,-73.2574462890625,-23.223876953125
3.7099999,7.608773231506348,3.339911460876465,-3.4979286193847656,51.6357421875,-78.0029296875,-11.6424560546875
3.7299999,7.603984832763672,3.177105665206909,-4.101267337799072,38.87939453125,-73.9593505859375,-12.8631591796875
3.7499999,7.627926826477051,2.9496564865112305,-4.656722068786621,20.904541015625,-55.1300048828125,-18.280029296875
3.7699999,7.785943984985352,2.7557260990142822,-5.157110691070557,-13.1072998046875,-25.7415771484375,-36.9873046875
3.7899999,8.003816604614258,2.6431987285614014,-5.614402770996094,-61.34033203125,14.09912109375,-67.8863525390625
3.8099999,8.324639320373535,2.6839001178741455,-5.995080947875977,-81.35986328125,48.980712890625,-92.6666259765625
3.8299999000000002,8.765172004699707,2.7700912952423096,-6.325480937957764,-79.986572265625,68.817138671875,-95.489501953125
3.8499999,9.222464561462402,2.918531894683838,-6.48828649520874,-79.2388916015625,80.596923828125,-79.6356201171875
3.8699999,9.502586364746094,3.093308687210083,-6.361393928527832,-72.20458984375,84.9456787109375,-69.1680908203125
3.8899999,9.734824180603027,3.1651346683502197,-5.9088897705078125,-59.5550537109375,70.49560546875,-57.586669921875
3.9099999,9.749189376831055,3.201047658920288,-5.327098846435547,-58.77685546875,40.1763916015625,-47.6531982421875
3.9299999,9.718064308166504,3.251325845718384,-4.546588897705078,-40.46630859375,28.74755859375,-33.660888671875
3.9499999,9.782708168029785,3.399766445159912,-3.8139634132385254,-30.57861328125,17.8680419921875,-15.8233642578125
3.9699999,9.880870819091797,3.780444383621216,-3.1076738834381104,-40.2679443359375,16.5557861328125,3.2196044921875
3.9899999,10.182539939880371,4.288015365600586,-2.360682964324951,-52.978515625,14.678955078125,17.364501953125
4.0099999,10.42195987701416,4.812345504760742,-1.824381709098816,-72.845458984375,-12.0391845703125,32.318115234375
4.029999900000001,10.673351287841797,5.169081687927246,-1.479616641998291,-65.765380859375,-26.3519287109375,63.9801025390625
4.0499999,10.771512985229492,5.257667064666748,-1.3120225667953491,-37.1551513671875,-28.3203125,96.37451171875
4.069999900000001,10.730812072753906,5.25527286529541,-1.137245774269104,-22.6287841796875,-22.0184326171875,108.2305908203125
4.0899999000000005,10.678139686584473,5.027823448181152,-0.9911994934082031,-48.583984375,-49.49951171875,105.3466796875
4.1099999,10.47702693939209,4.69024133682251,-0.790086567401886,-65.73486328125,-64.971923828125,113.9678955078125
4.1299999000000005,10.467450141906738,4.125209331512451,-0.8068459630012512,-55.908203125,-63.2171630859375,124.69482421875
4.1499999,10.623072624206543,3.3446998596191406,-1.091755986213684,-30.4718017578125,-51.9561767578125,146.636962890625
4.1699999000000005,11.010933876037598,2.535459518432617,-1.5203180313110352,-8.48388671875,-32.501220703125,164.031982421875
4.1899999,11.458649635314941,1.7812861204147339,-1.9919757843017578,-27.1453857421875,-20.4925537109375,161.285400390625
4.209999900000001,11.908759117126465,1.1013327836990356,-2.4612393379211426,-67.352294921875,-18.6767578125,146.9573974609375
4.2299999,12.303802490234375,0.49320554733276367,-2.7892448902130127,-90.2252197265625,-28.3966064453125,130.8746337890625
4.249999900000001,12.658143997192383,-0.11013327538967133,-3.1866824626922607,-82.916259765625,-25.5584716796875,124.0386962890625
4.2699999,13.010091781616211,-0.7015010714530945,-3.4787750244140625,-75.225830078125,-18.585205078125,133.4075927734375
4.289999900000001,13.318943977355957,-1.2545616626739502,-3.737348794937134,-71.1669921875,-19.500732421875,139.0380859375
4.3099999,13.443442344665527,-1.8770540952682495,-3.912125587463379,-70.6634521484375,-21.7437744140625,140.6097412109375
4.329999900000001,13.366827964782715,-2.6240451335906982,-4.0078935623168945,-67.7032470703125,-10.4827880859375,134.5062255859375
4.3499999,13.050793647766113,-3.485957622528076,-4.0294413566589355,-63.9495849609375,2.0294189453125,114.68505859375
4.369999900000001,12.533645629882812,-4.4723687171936035,-3.9264907836914062,-56.2591552734375,12.8936767578125,90.14892578125
4.3899999,11.951854705810547,-5.480327606201172,-3.780444383621216,-55.3131103515625,24.9481201171875,77.7130126953125
4.409999900000001,11.348516464233398,-6.512228488922119,-3.646369218826294,-53.4820556640625,33.26416015625,76.568603515625
4.4299999,10.776301383972168,-7.572859764099121,-3.60566782951355,-35.400390625,41.4276123046875,76.812744140625
4.449999900000001,10.27591323852539,-8.611943244934082,-3.6727054119110107,-9.979248046875,40.9698486328125,60.516357421875
4.4699999,9.86889934539795,-9.44991397857666,-3.823540210723877,2.197265625,37.9180908203125,29.388427734375
4.489999900000001,9.603142738342285,-9.95748519897461,-4.0294413566589355,5.2642822265625,47.3785400390625,11.53564453125
4.5099999,9.41400146484375,-10.019734382629395,-4.137180328369141,18.798828125,67.3980712890625,15.2587890625
4.529999900000001,9.220070838928223,-9.732429504394531,-4.156333923339844,25.0244140625,85.235595703125,16.845703125
4.5499999,8.935160636901855,-9.253589630126953,-3.9815573692321777,17.3187255859375,91.8121337890625,-2.349853515625
4.569999900000001,8.559270858764648,-8.652645111083984,-3.5649664402008057,23.7884521484375,91.9036865234375,-22.8271484375
4.5899999000000005,8.090007781982422,-8.027758598327637,-2.889801502227783,48.2940673828125,91.4764404296875,-20.1873779296875
4.609999900000001,7.620744228363037,-7.400477409362793,-2.0614075660705566,55.0537109375,86.6241455078125,-9.368896484375
4.6299999000000005,7.103596210479736,-6.845022678375244,-1.1252747774124146,41.8701171875,81.2530517578125,-13.7939453125
4.6499999,6.651092529296875,-6.5050458908081055,-0.2968810200691223,32.8826904296875,71.8994140625,-35.2783203125
4.6699999000000005,6.390124320983887,-6.253654956817627,0.27054479718208313,44.1741943359375,57.0831298828125,-48.1109619140625
4.6899999,6.327875137329102,-6.119579315185547,0.5482721924781799,51.727294921875,50.2166748046875,-41.3055419921875
4.709999900000001,6.497863292694092,-6.016628742218018,0.5506663918495178,36.0107421875,52.734375,-42.449951171875
4.7299999,6.737283706665039,-5.868188381195068,0.4165911078453064,30.426025390625,49.5452880859375,-57.2509765625
4.749999900000001,7.017405033111572,-5.657498836517334,0.2322375625371933,35.980224609375,43.1060791015625,-67.901611328125
4.7699999,7.173028469085693,-5.461174011230469,0.10534487664699554,25.81787109375,50.994873046875,-60.4705810546875
4.789999900000001,7.237671852111816,-5.20978307723999,0.038307227194309235,9.8876953125,56.671142578125,-57.0831298828125
4.8099999,7.252037048339844,-4.924872875213623,0.07661445438861847,16.6778564453125,44.677734375,-57.2357177734375
4.829999900000001,7.223306655883789,-4.639962673187256,0.2082955539226532,24.1546630859375,36.2091064453125,-49.6978759765625
4.8499999,7.261613845825195,-4.3406877517700195,0.40462008118629456,9.857177734375,43.1976318359375,-51.8341064453125
4.869999900000001,7.3669586181640625,-3.9624037742614746,0.646434485912323,-4.0130615234375,48.2635498046875,-61.1419677734375
4.8899999,7.513004779815674,-3.598485231399536,0.8331822156906128,6.805419921875,36.1785888671875,-47.0733642578125
4.909999900000001,7.65186882019043,-3.201047658920288,0.9552865028381348,37.384033203125,13.214111328125,-17.5933837890625
4.9299999,7.766790390014648,-2.8227639198303223,0.950498104095459,46.7376708984375,4.0130615234375,0.0152587890625
4.949999900000001,7.747636795043945,-2.516305923461914,0.8307880163192749,27.4810791015625,15.44189453125,-6.2103271484375
4.9699999,7.608773231506348,-2.3726539611816406,0.6153098344802856,19.95849609375,19.2413330078125,-13.5955810546875
4.989999900000001,7.321468830108643,-2.319981336593628,0.3711012601852417,46.3409423828125,-4.058837890625,8.148193359375
5.0099999,6.98628044128418,-2.3367409706115723,0.0933738648891449,64.361572265625,-20.2178955078125,21.1029052734375
5.029999900000001,6.720524311065674,-2.2697031497955322,-0.1388636976480484,62.1490478515625,-13.1683349609375,13.7481689453125
5.0499999,6.567295074462891,-2.121262788772583,-0.2753331959247589,59.3719482421875,-12.939453125,15.3656005859375
5.069999900000001,6.490680694580078,-1.9297266006469727,-0.31364041566848755,60.97412109375,-24.5819091796875,20.355224609375
5.0899999000000005,6.447585105895996,-1.7310078144073486,-0.2537853717803955,69.88525390625,-35.858154296875,19.22607421875
5.109999900000001,6.380547523498535,-1.5610195398330688,-0.17477671802043915,67.7032470703125,-36.7584228515625,8.2550048828125
5.1299999000000005,6.232107162475586,-1.4389152526855469,-0.11971008777618408,63.140869140625,-35.5072021484375,-4.150390625
5.1499999,6.01423454284668,-1.3527239561080933,-0.11971008777618408,61.920166015625,-36.468505859375,-20.965576171875
5.1699999000000005,5.784391403198242,-1.2617442607879639,-0.14844051003456116,67.19970703125,-37.6739501953125,-49.346923828125
5.1899999,5.540182590484619,-1.0845733880996704,-0.16759411990642548,70.4498291015625,-35.9954833984375,-78.887939453125
5.209999900000001,5.4444146156311035,-0.6823474764823914,-0.2322375625371933,65.9637451171875,-36.4990234375,-88.43994140625
5.2299999,5.621585369110107,0.011971008032560349,-0.33518823981285095,62.4847412109375,-36.285400390625,-92.4530029296875
5.249999900000001,6.054935932159424,0.8978256583213806,-0.42856210470199585,71.441650390625,-40.9393310546875,-87.7227783203125
5.2699999,6.607996463775635,1.7860745191574097,-0.5027823448181152,78.2623291015625,-44.0826416015625,-76.446533203125
5.289999900000001,7.273584842681885,2.6168625354766846,-0.608127236366272,76.4312744140625,-49.4842529296875,-69.3817138671875
5.3099999,7.888894557952881,3.2992098331451416,-0.7852981686592102,77.81982421875,-58.16650390625,-60.882568359375
5.329999900000001,8.427590370178223,3.7421371936798096,-1.039083480834961,73.1964111328125,-47.4853515625,-52.3223876953125
5.3499999,8.853757858276367,3.9264907836914062,-1.280897855758667,67.9473876953125,-31.6314697265625,-54.74853515625
5.369999900000001,9.126696586608887,3.9432501792907715,-1.4867992401123047,53.4515380859375,-19.6533203125,-66.619873046875
5.3899999,9.157821655273438,3.9240965843200684,-1.5442601442337036,57.6324462890625,-26.1077880859375,-56.884765625
5.409999900000001,9.057265281677246,3.971980571746826,-1.4772224426269531,84.1522216796875,-49.713134765625,-23.7274169921875
5.4299999,8.89445972442627,3.9863457679748535,-1.3239935636520386,80.1544189453125,-56.8084716796875,-8.85009765625
5.449999900000001,8.932766914367676,4.031835556030273,-1.1324573755264282,60.9283447265625,-49.9267578125,-29.449462890625
5.4699999,9.097966194152832,4.019864559173584,-0.9672574996948242,42.999267578125,-37.078857421875,-56.8695068359375
5.489999900000001,9.258378028869629,4.108449935913086,-0.8427590131759644,35.9344482421875,-31.92138671875,-46.661376953125
5.5099999,9.397241592407227,4.23773717880249,-0.8307880163192749,38.14697265625,-45.654296875,-18.646240234375
5.529999900000001,9.366117477416992,4.381389141082764,-0.9097966551780701,39.9017333984375,-64.239501953125,-12.542724609375
5.5499999,9.265560150146484,4.395754337310791,-1.158793568611145,28.2440185546875,-63.0340576171875,-28.594970703125
5.569999900000001,9.14345645904541,4.321534156799316,-1.5634137392044067,12.6800537109375,-45.501708984375,-36.7431640625
5.5899999000000005,9.033323287963867,4.218583583831787,-2.118868589401245,23.6053466796875,-55.7861328125,-6.8817138671875
5.609999900000001,8.947132110595703,4.072536945343018,-2.7293899059295654,33.0657958984375,-73.8372802734375,16.326904296875
5.6299999000000005,8.87051773071289,3.9456443786621094,-3.2992098331451416,13.5650634765625,-56.0455322265625,-6.9427490234375
5.6499999,8.829815864562988,3.7876269817352295,-3.756502389907837,-24.1851806640625,-23.8494873046875,-34.7137451171875
5.6699999000000005,8.743624687194824,3.5721490383148193,-4.089296340942383,-39.4287109375,-12.3291015625,-17.6239013671875
5.6899999,8.707711219787598,3.3901896476745605,-4.20421838760376,4.8828125,-54.6112060546875,27.9083251953125
5.709999900000001,8.662221908569336,3.181894063949585,-4.189853191375732,33.782958984375,-83.7860107421875,41.7938232421875
5.7299999,8.779537200927734,3.095702886581421,-4.060565948486328,16.571044921875,-71.6400146484375,31.524658203125
5.749999900000001,9.119514465332031,3.177105665206909,-3.9815573692321777,-10.6048583984375,-46.3104248046875,23.895263671875
5.7699999,9.548076629638672,3.315969467163086,-3.928884983062744,-27.5115966796875,-27.34375,32.2113037109375
5.789999900000001,10.02452278137207,3.5194764137268066,-3.8355112075805664,-19.7601318359375,-26.30615234375,43.0145263671875
5.8099999,10.3549222946167,3.7181951999664307,-3.7014358043670654,-23.62060546875,-33.0352783203125,47.393798828125
5.829999900000001,10.407594680786133,3.928884983062744,-3.4332852363586426,-39.5355224609375,-39.5050048828125,57.7850341796875
5.8499999,10.170568466186523,3.9887399673461914,-3.1220390796661377,-46.20361328125,-47.210693359375,80.169677734375
5.869999900000001,9.746794700622559,3.84269380569458,-2.9257144927978516,-48.5687255859375,-60.3179931640625,99.822998046875
5.8899999,9.279925346374512,3.399766445159912,-2.9161376953125,-44.73876953125,-58.807373046875,109.893798828125
5.909999900000001,8.83699893951416,2.8155810832977295,-3.064578056335449,-37.17041015625,-47.54638671875,119.6136474609375
5.9299999,8.465897560119629,2.142810583114624,-3.3303346633911133,-40.069580078125,-49.4232177734375,126.64794921875
5.949999900000001,8.271966934204102,1.53707754611969,-3.7158010005950928,-54.046630859375,-63.29345703125,125.5035400390625
5.9699999,8.310274124145508,0.9888052940368652,-4.225766181945801,-53.5430908203125,-72.44873046875,125.213623046875
5.989999900000001,8.710105895996094,0.5339069962501526,-4.948814868927002,-45.379638671875,-77.2552490234375,139.9078369140625
6.0099999,9.459490776062012,0.1867477297782898,-5.853823184967041,-42.3431396484375,-81.787109375,152.6641845703125
6.029999900000001,10.393229484558105,-0.12928688526153564,-6.8162922859191895,-49.163818359375,-76.0955810546875,161.56005859375
6.0499999,11.346121788024902,-0.507570743560791,-7.702147006988525,-59.02099609375,-66.162109375,158.69140625
6.069999900000001,12.167332649230957,-0.9864110946655273,-8.456320762634277,-62.774658203125,-51.9256591796875,152.618408203125
6.0899999000000005,12.667720794677734,-1.625662922859192,-8.98543930053711,-61.3555908203125,-28.9154052734375,157.71484375
6.109999900000001,12.832921028137207,-2.406172752380371,-9.349357604980469,-65.5059814453125,-1.9683837890625,160.2020263671875
6.1299999000000005,12.667720794677734,-3.335123062133789,-9.5624418258667,-68.8018798828125,14.373779296875,158.5540771484375
6.149999900000001,12.301408767700195,-4.369418144226074,-9.72285270690918,-64.39208984375,31.768798828125,154.998779296875
6.1699999000000005,11.829751014709473,-5.473145008087158,-9.830592155456543,-54.229736328125,62.9119873046875,147.7203369140625
6.1899999,11.274295806884766,-6.586448669433594,-9.832986831665039,-41.0614013671875,100.189208984375,133.6212158203125
6.209999900000001,10.632649421691895,-7.680599212646484,-9.610325813293457,-29.144287109375,123.6114501953125,112.60986328125
6.2299999,9.9000244140625,-8.635885238647461,-9.033323287963867,-14.83154296875,132.8582763671875,85.63232421875
6.249999900000001,9.205705642700195,-9.435548782348633,-8.169015884399414,-14.95361328125,131.9427490234375,56.121826171875
6.2699999,8.597578048706055,-10.002974510192871,-7.168240070343018,-23.0255126953125,133.209228515625,37.65869140625
6.289999900000001,8.128314971923828,-10.340557098388672,-6.253654956817627,-13.5650634765625,141.7083740234375,25.6500244140625
6.3099999,7.6997528076171875,-10.398017883300781,-5.446808815002441,9.7198486328125,144.10400390625,12.1002197265625
6.329999900000001,7.3023152351379395,-10.251971244812012,-4.819528102874756,10.986328125,141.845703125,-10.711669921875
6.3499999,6.912060260772705,-9.919178009033203,-4.247313976287842,-3.387451171875,141.571044921875,-33.14208984375
6.369999900000001,6.588842868804932,-9.493009567260742,-3.734954595565796,0.9613037109375,144.622802734375,-40.435791015625
6.3899999,6.404489517211914,-9.042900085449219,-3.251325845718384,22.2930908203125,137.0849609375,-32.9132080078125
6.409999900000001,6.289567947387695,-8.614337921142578,-2.782062292098999,35.2020263671875,127.44140625,-37.6434326171875
6.4299999,6.200982570648193,-8.125920295715332,-2.190694570541382,39.093017578125,123.6724853515625,-54.412841796875
6.449999900000001,6.174646377563477,-7.510610580444336,-1.479616641998291,38.848876953125,117.645263671875,-69.39697265625
6.4699999,6.13633918762207,-6.811503887176514,-0.6392518281936646,40.6494140625,107.8643798828125,-63.3087158203125
6.489999900000001,6.162675380706787,-6.042964935302734,0.2346317619085312,48.7823486328125,89.0655517578125,-49.957275390625
6.5099999,6.217741966247559,-5.34625244140625,1.0055646896362305,55.0079345703125,62.3931884765625,-53.5736083984375
6.529999900000001,6.4380083084106445,-4.671087741851807,1.4963760375976562,52.734375,34.66796875,-68.634033203125
6.5499999,6.763619899749756,-4.034229755401611,1.7525556087493896,64.5294189453125,22.552490234375,-53.436279296875
6.569999900000001,7.16584587097168,-3.5170822143554688,1.6903064250946045,52.55126953125,29.937744140625,-19.04296875
6.5899999000000005,7.5201873779296875,-3.184288263320923,1.4891934394836426,32.135009765625,42.1600341796875,-27.069091796875
6.609999900000001,7.668628215789795,-3.162740468978882,1.2521674633026123,27.6641845703125,34.85107421875,-47.4700927734375
6.6299999000000005,7.673416614532471,-3.265691041946411,1.0462661981582642,37.1551513671875,13.946533203125,-53.8330078125
6.649999900000001,7.589619159698486,-3.3710360527038574,0.9145850539207458,39.2913818359375,10.009765625,-35.6597900390625
6.6699999000000005,7.548917770385742,-3.3303346633911133,0.8451532125473022,27.77099609375,15.80810546875,-22.5982666015625
6.6899999,7.513004779815674,-3.2106244564056396,0.8092401623725891,17.7764892578125,20.050048828125,-29.0679931640625
6.709999900000001,7.422025203704834,-3.0765492916107178,0.7565677165985107,14.34326171875,19.04296875,-38.9862060546875
6.7299999,7.316680431365967,-2.9712042808532715,0.689530074596405,31.402587890625,5.0048828125,-28.076171875
6.749999900000001,7.105990409851074,-2.8778305053710938,0.5530605912208557,41.7633056640625,-6.500244140625,-3.5247802734375
6.7699999,6.885724067687988,-2.8850131034851074,0.4165911078453064,36.3922119140625,-3.8909912109375,-4.7607421875
6.789999900000001,6.648698329925537,-2.935291290283203,0.26336219906806946,36.80419921875,-2.3651123046875,-18.6004638671875
6.8099999,6.53377628326416,-3.0526070594787598,0.14604631066322327,47.0123291015625,-8.2855224609375,-29.2510986328125
6.829999900000001,6.54574728012085,-3.071760892868042,0.06464344263076782,50.6439208984375,-9.796142578125,-26.91650390625
6.8499999,6.75883150100708,-2.935291290283203,-0.009576806798577309,53.4820556640625,-9.8419189453125,-30.792236328125
6.869999900000001,7.036558628082275,-2.5785553455352783,-0.05985504388809204,57.92236328125,-13.1378173828125,-38.726806640625
6.8899999,7.237671852111816,-2.209848165512085,-0.043095629662275314,60.24169921875,-14.1448974609375,-44.9676513671875
6.909999900000001,7.204153060913086,-1.843535304069519,0,52.581787109375,-11.688232421875,-49.2401123046875
6.9299999,7.058106422424316,-1.4724340438842773,0.002394201699644327,52.67333984375,-17.425537109375,-54.5196533203125
6.949999900000001,6.9455790519714355,-1.0127472877502441,-0.05027823522686958,71.319580078125,-29.72412109375,-54.168701171875
6.9699999,6.936002254486084,-0.4812345504760742,-0.1867477297782898,75.469970703125,-27.923583984375,-50.35400390625
6.989999900000001,7.053318023681641,0.14844051003456116,-0.3447650372982025,65.7501220703125,-14.984130859375,-48.8739013671875
7.0099999,7.247248649597168,0.7493851184844971,-0.4165911078453064,66.95556640625,-18.463134765625,-49.3316650390625
7.029999900000001,7.242460250854492,1.1516109704971313,-0.3758896589279175,61.95068359375,-20.9808349609375,-48.3551025390625
7.0499999,7.086836814880371,1.4221558570861816,-0.26815059781074524,57.220458984375,-14.5721435546875,-58.9141845703125
7.069999900000001,6.919242858886719,1.6831238269805908,-0.2298433631658554,60.0738525390625,-17.9443359375,-68.756103515625
7.0899999000000005,6.7277069091796875,1.9488801956176758,-0.27054479718208313,69.2901611328125,-21.575927734375,-64.7735595703125
7.109999900000001,6.584054470062256,2.22660756111145,-0.38546648621559143,66.558837890625,-17.3797607421875,-59.2193603515625
7.1299999000000005,6.514622688293457,2.561795711517334,-0.5099649429321289,62.8509521484375,-19.6533203125,-60.1806640625
7.149999900000001,6.418854713439941,2.87064790725708,-0.6153098344802856,60.6689453125,-20.20263671875,-69.8089599609375
7.1699999000000005,6.349422931671143,3.201047658920288,-0.6727706789970398,65.582275390625,-20.32470703125,-66.2689208984375
7.1899999,6.3302693367004395,3.512293815612793,-0.7158663272857666,79.254150390625,-32.3333740234375,-43.792724609375
7.209999900000001,6.414066314697266,3.687070608139038,-0.8044517636299133,75.86669921875,-37.3687744140625,-37.41455078125
7.2299999,6.777985095977783,3.912125587463379,-1.0199298858642578,59.783935546875,-33.111572265625,-58.7158203125
7.249999900000001,7.283161640167236,4.23773717880249,-1.3455413579940796,55.8013916015625,-28.13720703125,-61.9354248046875
7.2699999,7.927201747894287,4.797980308532715,-1.6328455209732056,70.2362060546875,-33.7371826171875,-32.0587158203125
7.289999900000001,8.516175270080566,5.39174222946167,-1.7908629179000854,80.4595947265625,-45.8831787109375,-6.7291259765625
7.3099999,8.951920509338379,5.880159378051758,-1.7932571172714233,56.121826171875,-38.848876953125,-15.869140625
7.329999900000001,9.071630477905273,6.066906929016113,-1.6328455209732056,40.1763916015625,-31.1737060546875,-34.85107421875
7.3499999,8.9064302444458,6.045359134674072,-1.45806884765625,56.671142578125,-46.20361328125,-17.88330078125
7.369999900000001,8.552088737487793,5.944802761077881,-1.2952631711959839,79.6966552734375,-72.784423828125,12.8936767578125
7.3899999,8.195352554321289,5.870582580566406,-1.1563993692398071,77.6519775390625,-95.2301025390625,22.94921875
7.409999900000001,7.953537940979004,5.829881191253662,-1.1037269830703735,52.79541015625,-104.2633056640625,23.162841796875
7.4299999,8.001421928405762,5.784391403198242,-1.2282254695892334,47.9278564453125,-113.22021484375,54.840087890625
7.449999900000001,8.233659744262695,5.549759387969971,-1.580173134803772,48.76708984375,-119.537353515625,87.5091552734375
7.4699999,8.520963668823242,5.106832027435303,-2.2170307636260986,40.1611328125,-111.358642578125,89.29443359375
7.489999900000001,8.681375503540039,4.381389141082764,-3.0573954582214355,37.4908447265625,-103.57666015625,75.469970703125
7.5099999,8.765172004699707,3.5266590118408203,-4.098873138427734,37.6434326171875,-114.8223876953125,97.10693359375
7.529999900000001,8.69334602355957,2.6216509342193604,-5.142745018005371,31.646728515625,-127.197265625,104.766845703125
7.5499999,8.564059257507324,1.7501614093780518,-6.121973514556885,17.5933837890625,-101.3336181640625,94.1619873046875
7.569999900000001,8.422801971435547,0.9696516990661621,-6.909666061401367,11.932373046875,-79.5440673828125,75.714111328125
7.5899999000000005,8.195352554321289,0.3471592366695404,-7.338228225708008,8.97216796875,-60.4248046875,61.2030029296875
7.609999900000001,8.022970199584961,-0.12210428714752197,-7.589619159698486,-16.3726806640625,-57.3883056640625,46.539306640625
7.6299999000000005,8.003816604614258,-0.3064578175544739,-7.680599212646484,-37.0635986328125,-58.3038330078125,48.7823486328125
7.649999900000001,8.245630264282227,-0.3016694188117981,-7.800309181213379,-36.590576171875,-52.276611328125,62.3779296875
7.6699999000000005,8.75080680847168,-0.009576806798577309,-8.034940719604492,-43.6859130859375,-29.0985107421875,61.0809326171875
7.6899999,9.327810287475586,0.49320554733276367,-8.274360656738281,-49.407958984375,-8.36181640625,53.5888671875
7.709999900000001,9.81143856048584,1.0606313943862915,-8.35097599029541,-52.3223876953125,-15.56396484375,64.8651123046875
7.7299999,10.144232749938965,1.558625340461731,-8.233659744262695,-54.0313720703125,-24.7955322265625,73.05908203125
7.749999900000001,10.374075889587402,1.8914192914962769,-7.967903137207031,-55.23681640625,-24.7039794921875,74.8748779296875
7.7699999,10.553641319274902,2.0590133666992188,-7.694964408874512,-51.4068603515625,-25.2227783203125,84.53369140625
7.789999900000001,10.735600471496582,2.0877439975738525,-7.50582218170166,-46.0662841796875,-20.1568603515625,97.320556640625
7.8099999,10.862493515014648,1.9776105880737305,-7.42681360244751,-37.8570556640625,-1.64794921875,99.67041015625
7.829999900000001,10.931924819946289,1.699883222579956,-7.354987621307373,-33.2183837890625,19.561767578125,82.794189453125
7.8499999,10.831368446350098,1.3120225667953491,-7.3023152351379395,-50.079345703125,30.09033203125,58.3343505859375
7.869999900000001,10.711658477783203,0.871489405632019,-7.266402244567871,-68.9697265625,18.951416015625,35.5377197265625
7.8899999,10.699687004089355,0.47165772318840027,-7.407660007476807,-74.1424560546875,-0.885009765625,41.046142578125
7.909999900000001,10.900800704956055,0.05506663769483566,-7.802703380584717,-74.8443603515625,0.7781982421875,83.1298828125
7.9299999,11.334151268005371,-0.43335050344467163,-8.453926086425781,-87.6312255859375,26.2298583984375,111.7706298828125
7.949999900000001,11.865663528442383,-1.0773907899856567,-9.193734169006348,-98.358154296875,50.78125,109.7259521484375
7.9699999,12.270283699035645,-1.9105730056762695,-9.715670585632324,-93.6126708984375,77.239990234375,102.2796630859375
7.989999900000001,12.375628471374512,-2.875436305999756,-9.830592155456543,-89.4622802734375,106.2469482421875,111.9842529296875
8.0099999,12.176909446716309,-3.936067581176758,-9.406818389892578,-81.4208984375,117.1417236328125,116.5618896484375
8.0299999,11.66455078125,-4.999093055725098,-8.525752067565918,-70.6787109375,118.7896728515625,106.8878173828125
8.049999900000001,10.958261489868164,-6.011840343475342,-7.3693528175354,-59.9822998046875,120.4986572265625,89.691162109375
8.069999900000001,10.187328338623047,-6.873753070831299,-6.205770969390869,-58.319091796875,121.795654296875,69.6258544921875
8.0899999,9.59835433959961,-7.5417351722717285,-5.238513469696045,-60.7147216796875,114.56298828125,54.4281005859375
8.1099999,9.222464561462402,-8.010998725891113,-4.6471452713012695,-56.4727783203125,115.7379150390625,47.8363037109375
8.129999900000001,8.966285705566406,-8.283937454223633,-4.261679172515869,-23.193359375,133.9263916015625,50.628662109375
8.149999900000001,8.738836288452148,-8.391676902770996,-3.9432501792907715,7.14111328125,136.871337890625,44.708251953125
8.1699999,8.432378768920898,-8.238448143005371,-3.442862033843994,14.404296875,122.650146484375,24.47509765625
8.1899999,8.099584579467773,-7.903259754180908,-2.765302896499634,4.974365234375,117.9046630859375,6.0272216796875
8.2099999,7.73087739944458,-7.412448406219482,-1.9847931861877441,8.270263671875,127.685546875,11.8865966796875
8.229999900000001,7.441178798675537,-6.909666061401367,-1.2210428714752197,25.8941650390625,112.5335693359375,11.444091796875
8.2499999,7.1921820640563965,-6.5050458908081055,-0.6177040338516235,30.731201171875,90.118408203125,-9.58251953125
8.2699999,7.060500621795654,-6.107608318328857,-0.11013327538967133,43.3807373046875,72.9217529296875,-20.050048828125
8.2899999,7.129932880401611,-5.7772088050842285,0.2322375625371933,54.656982421875,65.36865234375,-7.99560546875
8.309999900000001,7.364564418792725,-5.410895824432373,0.4357447028160095,50.9490966796875,64.239501953125,-4.9591064453125
8.3299999,7.65186882019043,-5.03021764755249,0.5267243981361389,49.957275390625,56.304931640625,-11.871337890625
8.3499999,7.8745293617248535,-4.642356872558594,0.5770025849342346,53.9093017578125,49.468994140625,-8.4686279296875
8.3699999,7.970297336578369,-4.3191399574279785,0.6153098344802856,54.38232421875,44.0216064453125,5.7830810546875
8.389999900000001,7.922413349151611,-4.084507942199707,0.6320692300796509,43.5333251953125,44.98291015625,5.8441162109375
8.4099999,7.750030994415283,-3.955221176147461,0.667982280254364,49.224853515625,37.7349853515625,5.523681640625
8.4299999,7.489062786102295,-3.9456443786621094,0.6823474764823914,54.7637939453125,28.6407470703125,11.260986328125
8.4499999,7.177816867828369,-3.9624037742614746,0.6751648783683777,44.3267822265625,32.8369140625,12.02392578125
8.469999900000001,6.88332986831665,-3.9408559799194336,0.6392518281936646,37.8265380859375,28.0303955078125,8.7127685546875
8.4899999,6.660669326782227,-3.9671921730041504,0.569819986820221,43.304443359375,11.2457275390625,14.892578125
8.5099999,6.464344501495361,-3.955221176147461,0.4572925269603729,50.5218505859375,4.669189453125,14.3890380859375
8.5299999,6.3949127197265625,-3.9384617805480957,0.2537853717803955,47.9583740234375,-0.7171630859375,5.401611328125
8.549999900000001,6.358999729156494,-3.885789394378662,0.06464344263076782,56.4117431640625,-8.1939697265625,8.514404296875
8.569999900000001,6.296750545501709,-3.84269380569458,-0.09576806426048279,58.3343505859375,-7.5225830078125,10.0250244140625
8.5899999,6.138733386993408,-3.8307228088378906,-0.18914192914962769,53.1158447265625,-7.9193115234375,-3.082275390625
8.6099999,5.889736175537109,-3.7852327823638916,-0.21308395266532898,54.840087890625,-12.5579833984375,-28.3355712890625
8.629999900000001,5.537788391113281,-3.713406801223755,-0.16519992053508759,58.7615966796875,-16.4642333984375,-49.4842529296875
8.649999900000001,5.173870086669922,-3.5960910320281982,-0.07661445438861847,56.488037109375,-18.00537109375,-57.6934814453125
8.6699999,4.774038314819336,-3.361459255218506,0.06224924325942993,56.6558837890625,-25.604248046875,-67.7642822265625
8.6899999,4.460397720336914,-3.0382418632507324,0.1843535304069519,50.9185791015625,-29.8614501953125,-95.9930419921875
8.709999900000001,4.311957359313965,-2.4899697303771973,0.2059013396501541,47.943115234375,-33.8134765625,-120.1934814453125
8.729999900000001,4.479551315307617,-1.699883222579956,0.06703764945268631,52.978515625,-38.7725830078125,-118.65234375
8.7499999,5.015852451324463,-0.6943184733390808,-0.23942017555236816,64.4073486328125,-51.9256591796875,-105.3009033203125
8.7699999,5.729324817657471,0.3758896589279175,-0.586579442024231,73.7762451171875,-55.3741455078125,-103.515625
8.7899999,6.517016887664795,1.381454348564148,-0.9193734526634216,69.5343017578125,-49.6673583984375,-106.4910888671875
8.809999900000001,7.2568254470825195,2.3032219409942627,-1.1994950771331787,67.2760009765625,-50.1556396484375,-102.5543212890625
8.8299999,7.802703380584717,3.0621838569641113,-1.335964560508728,73.3642578125,-48.0194091796875,-89.4775390625
8.8499999,8.121131896972656,3.6367924213409424,-1.400607943534851,75.927734375,-47.2564697265625,-66.6961669921875
8.8699999,8.31985092163086,4.132391929626465,-1.4676456451416016,79.9407958984375,-57.098388671875,-51.3916015625
8.889999900000001,8.434772491455078,4.477157115936279,-1.5490485429763794,90.3167724609375,-65.4296875,-32.16552734375
8.9099999,8.520963668823242,4.620809078216553,-1.6663644313812256,87.8753662109375,-57.9986572265625,-12.7716064453125
8.9299999,8.544905662536621,4.60165548324585,-1.821987509727478,74.64599609375,-46.600341796875,-12.6953125
8.9499999,8.463502883911133,4.489128112792969,-1.9560627937316895,77.1942138671875,-53.375244140625,-12.4359130859375
8.969999900000001,8.300697326660156,4.273650169372559,-2.008735179901123,87.6007080078125,-61.1419677734375,7.171630859375
8.9899999,8.111555099487305,3.993528366088867,-2.0207061767578125,76.5533447265625,-60.3485107421875,18.280029296875
9.0099999,8.066065788269043,3.691859006881714,-2.094926595687866,54.7943115234375,-55.6640625,1.373291015625
9.0299999,8.13789176940918,3.4524388313293457,-2.3319525718688965,47.4395751953125,-53.6346435546875,-22.4609375
9.049999900000001,8.238448143005371,3.337517261505127,-2.631227731704712,63.41552734375,-53.52783203125,-2.716064453125
9.069999900000001,8.389283180236816,3.354276657104492,-2.985569477081299,64.483642578125,-57.0831298828125,27.9541015625
9.0899999,8.53293514251709,3.3925838470458984,-3.308786630630493,43.27392578125,-57.830810546875,21.8353271484375
9.1099999,8.652645111083984,3.354276657104492,-3.579331636428833,13.5498046875,-45.1202392578125,-13.031005859375
9.129999900000001,8.662221908569336,3.2178070545196533,-3.8091750144958496,-8.2244873046875,-18.6920166015625,-37.0941162109375
9.149999900000001,8.56884765625,3.177105665206909,-3.976768970489502,-0.7476806640625,-20.477294921875,-27.587890625
9.1699999,8.542511940002441,3.248931646347046,-4.027047157287598,21.697998046875,-62.07275390625,5.645751953125
9.1899999,8.62391471862793,3.4524388313293457,-4.048594951629639,8.1024169921875,-78.338623046875,7.5836181640625
9.209999900000001,8.858546257019043,3.6774938106536865,-4.079719543457031,-25.4364013671875,-47.42431640625,-0.579833984375
9.229999900000001,9.224859237670898,3.823540210723877,-4.307168960571289,-52.1087646484375,-19.0887451171875,-5.5389404296875
9.2499999,9.667786598205566,3.914519786834717,-4.572925090789795,-41.80908203125,-29.052734375,3.5400390625
9.2699999,10.079588890075684,3.912125587463379,-4.857835292816162,-46.5087890625,-30.2581787109375,7.476806640625
9.2899999,10.469843864440918,3.9432501792907715,-5.080495834350586,-79.345703125,-5.2947998046875,4.852294921875
9.309999900000001,10.860098838806152,4.039018154144287,-5.161899089813232,-97.4884033203125,10.19287109375,9.6435546875
9.3299999,11.106701850891113,4.23773717880249,-5.056553840637207,-95.52001953125,-0.8392333984375,24.5208740234375
9.3499999,11.243170738220215,4.388571739196777,-4.8051629066467285,-93.5821533203125,-15.3045654296875,52.8717041015625
9.3699999,11.204863548278809,4.412513732910156,-4.532223701477051,-93.44482421875,-25.7415771484375,88.531494140625
9.389999900000001,10.970232009887695,4.094084739685059,-4.323928356170654,-75.103759765625,-40.252685546875,124.6490478515625
9.4099999,10.565611839294434,3.464409828186035,-4.2760443687438965,-50.1251220703125,-61.065673828125,157.5469970703125
9.4299999,10.230423927307129,2.6360161304473877,-4.388571739196777,-36.956787109375,-67.6116943359375,175.628662109375
9.4499999,10.019734382629395,1.7142484188079834,-4.534617900848389,-35.308837890625,-42.0379638671875,206.6802978515625
9.469999900000001,9.885659217834473,0.7637503147125244,-4.707000732421875,-42.7703857421875,-1.5716552734375,232.2845458984375
9.4899999,9.794678688049316,-0.09816227108240128,-4.78122091293335,-52.7801513671875,19.7906494140625,216.36962890625
9.5099999,9.674968719482422,-0.8858546018600464,-4.649539470672607,-65.7196044921875,21.17919921875,187.2406005859375
9.5299999,9.617507934570312,-1.5825673341751099,-4.331110954284668,-96.527099609375,28.076171875,170.0897216796875
9.549999900000001,9.828198432922363,-2.075772762298584,-3.9815573692321777,-115.2191162109375,27.0538330078125,143.218994140625
9.569999900000001,10.287884712219238,-2.5115175247192383,-3.663128614425659,-91.2017822265625,11.41357421875,129.69970703125
9.5899999,10.884040832519531,-2.9759926795959473,-3.5386300086975098,-69.6563720703125,-1.800537109375,126.434326171875
9.6099999,11.372458457946777,-3.643975019454956,-3.600879430770874,-74.03564453125,0.0152587890625,110.0616455078125
9.629999900000001,11.626243591308594,-4.4532151222229,-3.8091750144958496,-74.0814208984375,4.2877197265625,85.968017578125
9.649999900000001,11.54005241394043,-5.403713226318359,-4.168305397033691,-61.9354248046875,3.1280517578125,63.0950927734375
9.6699999,11.1474027633667,-6.339846134185791,-4.623203277587891,-50.2471923828125,10.68115234375,49.1485595703125
9.6899999,10.493785858154297,-7.103596210479736,-5.054159641265869,-42.2210693359375,30.303955078125,46.4935302734375
9.709999900000001,9.703699111938477,-7.673416614532471,-5.370194435119629,-42.0074462890625,40.069580078125,38.87939453125
9.729999900000001,8.789113998413086,-7.953537940979004,-5.372588634490967,-31.982421875,39.825439453125,22.5067138671875
9.7499999,7.876923561096191,-7.955932140350342,-5.049371242523193,-26.1077880859375,42.66357421875,5.584716796875
9.7699999,6.952761650085449,-7.73087739944458,-4.402936935424805,-36.9415283203125,52.978515625,-4.7760009765625
9.7899999,5.966350555419922,-7.352593421936035,-3.5242648124694824,-42.54150390625,62.896728515625,-6.6680908203125
9.809999900000001,4.9583916664123535,-7.053318023681641,-2.626439332962036,-46.5850830078125,50.4913330078125,-12.5579833984375
9.8299999,3.8786067962646484,-6.92881965637207,-1.8794482946395874,-45.074462890625,26.397705078125,-21.820068359375
9.8499999,2.894589900970459,-7.005434036254883,-1.4700398445129395,-29.9530029296875,-2.01416015625,-33.6456298828125
9.8699999,2.0015525817871094,-7.3238630294799805,-1.3766659498214722,-9.2620849609375,-24.9176025390625,-35.5377197265625
9.889999900000001,1.3120225667953491,-7.778761386871338,-1.6184803247451782,0.1678466796875,-43.02978515625,-51.239013671875
9.9099999,0.9002198576927185,-8.274360656738281,-2.0254945755004883,14.892578125,-66.0552978515625,-86.151123046875
9.9299999,0.8427590131759644,-8.643068313598633,-2.5450363159179688,31.9366455078125,-79.1778564453125,-111.358642578125
9.9499999,1.2210428714752197,-8.760383605957031,-3.160346269607544,41.68701171875,-85.5865478515625,-122.5128173828125
9.969999900000001,1.9800047874450684,-8.573636054992676,-3.845088005065918,52.490234375,-88.8824462890625,-126.068115234375
9.9899999,3.0382418632507324,-8.097189903259277,-4.613626480102539,62.7899169921875,-96.5728759765625,-141.0675048828125
10.0099999,4.290409564971924,-7.311892032623291,-5.463568210601807,75.408935546875,-100.860595703125,-159.5916748046875
10.0299999,5.7556610107421875,-6.229712963104248,-6.3973069190979,93.5211181640625,-101.6387939453125,-168.5943603515625
10.049999900000001,7.295132637023926,-4.960785865783691,-7.343016624450684,111.75537109375,-93.4295654296875,-159.1796875
10.069999900000001,8.765172004699707,-3.6104562282562256,-8.236053466796875,119.8883056640625,-73.1048583984375,-152.0233154296875
10.0899999,9.998186111450195,-2.3702597618103027,-8.947132110595703,123.8555908203125,-58.135986328125,-162.567138671875
10.1099999,10.809821128845215,-1.2258312702178955,-9.351752281188965,132.965087890625,-51.7120361328125,-167.78564453125
10.129999900000001,11.24795913696289,-0.14844051003456116,-9.387664794921875,133.11767578125,-36.895751953125,-162.4755859375
10.149999900000001,11.41555404663086,0.8068459630012512,-9.169792175292969,113.250732421875,-22.857666015625,-160.2630615234375
10.1699999,11.334151268005371,1.6424223184585571,-8.875306129455566,106.2774658203125,-12.237548828125,-154.8004150390625
10.1899999,11.30063247680664,2.3127987384796143,-8.755595207214355,112.2589111328125,-7.5836181640625,-144.378662109375
10.209999900000001,11.240777015686035,2.8131868839263916,-8.880094528198242,111.9384765625,-2.349853515625,-131.439208984375
10.229999900000001,11.17852783203125,3.1028854846954346,-9.133879661560059,105.804443359375,21.7132568359375,-118.8507080078125
10.2499999,11.02051067352295,3.2632968425750732,-9.342175483703613,91.796875,39.093017578125,-111.053466796875
10.2699999,10.735600471496582,3.3063924312591553,-9.327810287475586,81.54296875,45.257568359375,-109.7412109375
10.2899999,10.319009780883789,3.3207578659057617,-9.074024200439453,72.7996826171875,51.26953125,-107.421875
10.309999900000001,9.895236015319824,3.40216064453125,-8.611943244934082,64.9566650390625,60.72998046875,-89.9658203125
10.3299999,9.497797966003418,3.5242648124694824,-8.042123794555664,42.8466796875,70.526123046875,-82.275390625
10.3499999,9.153033256530762,3.6966474056243896,-7.400477409362793,27.6336669921875,71.9146728515625,-83.8165283203125
10.3699999,8.844181060791016,3.883395195007324,-6.718130111694336,24.10888671875,68.206787109375,-80.291748046875
10.389999900000001,8.619126319885254,4.084507942199707,-6.086060523986816,5.4779052734375,69.51904296875,-77.484130859375
10.4099999,8.432378768920898,4.266467571258545,-5.559336185455322,-15.533447265625,72.3114013671875,-70.1904296875
10.4299999,8.324639320373535,4.424484729766846,-5.17626428604126,-13.4735107421875,61.4013671875,-52.764892578125
10.4499999,8.259995460510254,4.5394062995910645,-5.008669853210449,-15.4571533203125,51.0406494140625,-48.2330322265625
10.469999900000001,8.22887134552002,4.651933670043945,-4.987122058868408,-34.0423583984375,56.671142578125,-56.396484375
10.4899999,8.279149055480957,4.838681697845459,-5.102043628692627,-46.38671875,57.4951171875,-50.5828857421875
10.5099999,8.276755332946777,5.003881454467773,-5.2480902671813965,-49.74365234375,52.1240234375,-18.1884765625
10.5299999,8.164227485656738,5.0876784324646,-5.384559631347656,-57.67822265625,54.5501708984375,-10.101318359375
10.549999900000001,7.982268333435059,5.123591423034668,-5.501875400543213,-66.864013671875,53.802490234375,-23.3612060546875
10.569999900000001,7.800309181213379,5.197812080383301,-5.542576789855957,-69.9920654296875,53.4820556640625,-32.6995849609375
10.5899999,7.65186882019043,5.315127849578857,-5.518634796142578,-78.7353515625,61.9964599609375,-9.2315673828125
10.6099999,7.594407558441162,5.509057998657227,-5.403713226318359,-86.1358642578125,64.7735595703125,18.1732177734375
10.629999900000001,7.556100368499756,5.674258232116699,-5.212177276611328,-87.58544921875,61.859130859375,26.3824462890625
10.649999900000001,7.429207801818848,5.7125654220581055,-4.953603267669678,-79.9102783203125,57.525634765625,35.3851318359375
10.6699999,7.283161640167236,5.679046630859375,-4.666299343109131,-71.6552734375,56.4117431640625,48.3245849609375
10.6899999,7.086836814880371,5.521028995513916,-4.388571739196777,-83.0078125,62.9425048828125,61.8896484375
10.709999900000001,6.92881965637207,5.286397457122803,-4.106055736541748,-91.1712646484375,67.0166015625,65.3228759765625
10.729999900000001,6.8043212890625,4.9583916664123535,-3.797203779220581,-88.714599609375,63.720703125,62.2406005859375
10.7499999,6.730101108551025,4.594472885131836,-3.4308910369873047,-79.40673828125,55.6182861328125,68.0694580078125
10.7699999,6.71334171295166,4.23773717880249,-2.999934673309326,-78.67431640625,52.0477294921875,74.8138427734375
10.7899999,6.72531270980835,3.9025487899780273,-2.542642116546631,-86.456298828125,54.1229248046875,74.615478515625
10.809999900000001,6.687005519866943,3.5458126068115234,-2.0638017654418945,-77.81982421875,52.093505859375,78.1097412109375
10.8299999,6.584054470062256,3.1292216777801514,-1.6112977266311646,-70.9381103515625,47.149658203125,84.6405029296875
10.8499999,6.40927791595459,2.6455929279327393,-1.2210428714752197,-77.63671875,43.5638427734375,80.963134765625
10.8699999,6.232107162475586,2.1308395862579346,-0.9169792532920837,-80.902099609375,39.031982421875,78.91845703125
10.889999900000001,6.13633918762207,1.599326729774475,-0.7613561153411865,-76.3702392578125,36.8499755859375,78.521728515625
10.9099999,6.1052141189575195,1.1109095811843872,-0.6823474764823914,-59.4329833984375,29.4036865234375,87.188720703125
10.9299999,6.110002517700195,0.6320692300796509,-0.6272808313369751,-57.7392578125,26.8096923828125,88.623046875
10.9499999,6.121973514556885,0.24420857429504395,-0.5650315880775452,-77.1942138671875,33.6456298828125,69.122314453125
10.969999900000001,6.0621185302734375,-0.07900865375995636,-0.42377370595932007,-81.9854736328125,32.4554443359375,62.2100830078125
10.9899999,5.896918773651123,-0.35673606395721436,-0.20350714027881622,-73.883056640625,23.895263671875,75.0274658203125
11.0099999,5.623979568481445,-0.629675030708313,0.05746084079146385,-90.850830078125,22.3846435546875,61.1419677734375
11.0299999,5.284003257751465,-0.9313444495201111,0.31124621629714966,-106.170654296875,17.2576904296875,41.4886474609375
11.049999900000001,4.991910457611084,-1.290474772453308,0.5793967843055725,-87.9974365234375,2.2735595703125,43.02978515625
11.069999900000001,4.867412090301514,-1.7334020137786865,0.7637503147125244,-79.5135498046875,-6.89697265625,45.7000732421875
11.0899999,4.845864295959473,-2.2242133617401123,0.8858546018600464,-88.043212890625,-5.889892578125,44.647216796875
11.1099999,4.9799394607543945,-2.7293899059295654,0.9169792532920837,-90.2557373046875,-10.0860595703125,37.200927734375
11.129999900000001,5.284003257751465,-3.2106244564056396,0.828393816947937,-75.50048828125,-25.5126953125,30.1361083984375
11.149999900000001,5.736507415771484,-3.56017804145813,0.6392518281936646,-57.2509765625,-36.1328125,38.4674072265625
11.1699999,6.320692539215088,-3.7421371936798096,0.35673606395721436,-63.53759765625,-37.1551513671875,40.2374267578125
11.1899999,6.8043212890625,-3.93367338180542,0.14365209639072418,-67.81005859375,-41.5802001953125,49.1943359375
11.209999900000001,7.022193431854248,-4.311957359313965,0.040701430290937424,-57.0068359375,-52.1087646484375,59.783935546875
11.229999900000001,6.959944248199463,-4.862623691558838,-0.011971008032560349,-59.2041015625,-60.1654052734375,39.55078125
11.2499999,6.799532890319824,-5.552153587341309,-0.002394201699644327,-61.8896484375,-69.1375732421875,18.218994140625
11.2699999,6.777985095977783,-6.265625953674316,0.019153613597154617,-64.8193359375,-88.409423828125,9.8419189453125
11.2899999,6.876147270202637,-6.904877662658691,-0.07182604819536209,-44.6929931640625,-90.8966064453125,10.7574462890625
11.309999900000001,6.962338447570801,-7.3693528175354,-0.07182604819536209,-22.0489501953125,-94.9249267578125,6.3323974609375
11.3299999,7.036558628082275,-7.690176010131836,-0.19871874153614044,-31.4178466796875,-113.677978515625,-20.782470703125
11.3499999,7.0341644287109375,-7.747636795043945,-0.2968810200691223,-34.60693359375,-126.40380859375,-36.5447998046875
11.3699999,7.127538681030273,-7.68538761138916,-0.5770025849342346,-32.4554443359375,-130.4779052734375,-34.9273681640625
11.389999900000001,7.259219646453857,-7.532158374786377,-0.9481038451194763,-30.670166015625,-131.744384765625,-48.03466796875
11.4099999,7.400477409362793,-7.3885064125061035,-1.4484920501708984,-21.1029052734375,-138.5345458984375,-70.8160400390625
11.4299999,7.603984832763672,-7.101202011108398,-2.1308395862579346,-10.9405517578125,-157.2265625,-86.0748291015625
11.4499999,7.9631147384643555,-6.567295074462891,-3.0190882682800293,4.058837890625,-172.3480224609375,-93.2464599609375
11.469999900000001,8.372523307800293,-5.872976779937744,-4.003105163574219,25.8636474609375,-169.708251953125,-83.1756591796875
11.4899999,8.786720275878906,-5.169081687927246,-5.066130638122559,38.055419921875,-164.306640625,-71.1517333984375
11.5099999,8.99740982055664,-4.666299343109131,-6.143521785736084,41.168212890625,-166.595458984375,-79.681396484375
11.5299999,9.05247688293457,-4.3861775398254395,-7.275979042053223,49.9725341796875,-163.4674072265625,-95.5963134765625
11.549999900000001,9.157821655273438,-4.168305397033691,-8.449137687683105,63.4002685546875,-147.76611328125,-111.0076904296875
11.569999900000001,9.39245319366455,-3.8810009956359863,-9.543288230895996,72.296142578125,-122.0550537109375,-119.598388671875
11.5899999,9.68933391571045,-3.4811692237854004,-10.340557098388672,70.2362060546875,-94.4061279296875,-122.1923828125
11.6099999,9.904812812805176,-2.9664158821105957,-10.76193618774414,66.4215087890625,-75.2410888671875,-125.579833984375
11.629999900000001,10.127472877502441,-2.3343467712402344,-10.843339920043945,73.1658935546875,-54.1229248046875,-130.67626953125
11.649999900000001,10.285490036010742,-1.625662922859192,-10.680533409118652,77.2705078125,-27.4810791015625,-138.36669921875
11.6699999,10.414777755737305,-0.8786720037460327,-10.350133895874023,68.115234375,2.5787353515625,-135.6964111328125
11.6899999,10.390835762023926,-0.17477671802043915,-9.914389610290527,64.788818359375,20.8282470703125,-131.0882568359375
11.709999900000001,10.280701637268066,0.43335050344467163,-9.528923034667969,76.2481689453125,13.916015625,-128.1280517578125
11.729999900000001,10.103530883789062,0.9528923034667969,-9.239224433898926,93.7042236328125,12.0086669921875,-121.1090087890625
11.7499999,9.955090522766113,1.4077905416488647,-9.059659004211426,91.8731689453125,27.7862548828125,-110.107421875
11.7699999,9.828198432922363,1.7573440074920654,-8.954314231872559,77.5604248046875,38.330078125,-101.654052734375
11.7899999,9.651026725769043,2.0207061767578125,-8.810662269592285,74.9359130859375,41.1224365234375,-98.2818603515625
11.809999900000001,9.47146224975586,2.161964178085327,-8.71489429473877,76.629638671875,36.68212890625,-104.522705078125
11.8299999,9.299078941345215,2.248155355453491,-8.609549522399902,76.2786865234375,40.2069091796875,-99.1668701171875
11.8499999,9.186552047729492,2.3295583724975586,-8.485051155090332,66.558837890625,51.3458251953125,-94.940185546875
11.8699999,9.153033256530762,2.451662540435791,-8.322244644165039,51.1016845703125,55.450439453125,-102.4169921875
11.889999900000001,9.102754592895508,2.607285737991333,-8.034940719604492,45.806884765625,51.6357421875,-96.3134765625
11.9099999,9.026140213012695,2.75812029838562,-7.661445617675781,33.4930419921875,54.4586181640625,-84.77783203125
11.9299999,8.882488250732422,2.892195701599121,-7.2352776527404785,11.41357421875,61.6607666015625,-91.61376953125
11.9499999,8.647856712341309,2.9903578758239746,-6.768408298492432,0.2288818359375,54.6875,-99.4415283203125
11.969999900000001,8.35336971282959,3.069366693496704,-6.270414352416992,11.77978515625,35.003662109375,-84.9151611328125
11.9899999,8.039729118347168,3.162740468978882,-5.7772088050842285,15.0909423828125,19.4854736328125,-57.9833984375
12.0099999,7.807491779327393,3.287238836288452,-5.3797712326049805,-5.1727294921875,16.3116455078125,-53.6651611328125
12.0299999,7.682993412017822,3.4165258407592773,-5.128379821777344,-25.146484375,19.6685791015625,-69.2901611328125
12.049999900000001,7.659051418304443,3.5003228187561035,-5.080495834350586,-26.4892578125,19.775390625,-60.05859375
12.069999900000001,7.726089000701904,3.550601005554199,-5.224148273468018,-24.566650390625,13.4735107421875,-32.440185546875
12.0899999,7.836222171783447,3.5458126068115234,-5.523423194885254,-26.5045166015625,4.2572021484375,-19.9127197265625
12.1099999,7.982268333435059,3.557783842086792,-5.916072368621826,-27.099609375,1.0223388671875,-22.7508544921875
12.129999900000001,8.106766700744629,3.648763418197632,-6.36378812789917,-33.6151123046875,12.75634765625,-28.6865234375
12.149999900000001,8.257601737976074,3.955221176147461,-6.833051681518555,-51.2542724609375,32.8521728515625,-22.5830078125
12.1699999,8.370129585266113,4.4292731285095215,-7.280767440795898,-59.600830078125,41.0003662109375,2.716064453125
12.1899999,8.33182144165039,4.922478675842285,-7.625532627105713,-51.94091796875,43.64013671875,29.8919677734375
12.209999900000001,8.133103370666504,5.303156852722168,-7.869740962982178,-45.22705078125,47.5921630859375,40.22216796875
12.229999900000001,7.790732383728027,5.504269599914551,-8.003816604614258,-58.59375,60.0738525390625,31.3262939453125
12.2499999,7.319074630737305,5.51624059677124,-7.999027729034424,-74.4171142578125,78.1097412109375,33.1878662109375
12.2699999,6.828263282775879,5.4252610206604,-7.888894557952881,-73.3795166015625,84.53369140625,45.989990234375
12.289999900000002,6.380547523498535,5.2265424728393555,-7.663839817047119,-58.563232421875,78.826904296875,57.67822265625
12.309999900000001,6.01423454284668,4.898536682128906,-7.304709434509277,-45.6695556640625,75.1495361328125,65.91796875
12.3299999,5.810727596282959,4.5394062995910645,-6.852205276489258,-51.5899658203125,80.7037353515625,58.41064453125
12.3499999,5.779603004455566,4.151545524597168,-6.287173748016357,-58.7921142578125,82.3822021484375,53.0242919921875
12.3699999,5.904101371765137,3.823540210723877,-5.640739440917969,-53.1768798828125,75.347900390625,55.0689697265625
12.389999900000001,6.107608318328857,3.509899616241455,-4.965574264526367,-53.1005859375,70.2667236328125,50.2471923828125
12.4099999,6.378153324127197,3.270479440689087,-4.304774761199951,-52.001953125,66.009521484375,43.3197021484375
12.4299999,6.6391215324401855,3.064578056335449,-3.667917013168335,-51.9866943359375,63.17138671875,41.259765625
12.4499999,6.856993675231934,2.9017724990844727,-3.0621838569641113,-59.3719482421875,63.7969970703125,41.3818359375
12.469999900000001,6.9910688400268555,2.7724854946136475,-2.5115175247192383,-69.0155029296875,64.0411376953125,39.5660400390625
12.4899999,7.067683219909668,2.6408045291900635,-1.98958158493042,-67.9779052734375,59.2041015625,37.4755859375
12.5099999,7.108384609222412,2.477998733520508,-1.5658079385757446,-67.169189453125,57.586669921875,35.15625
12.5299999,7.206547260284424,2.3511061668395996,-1.3239935636520386,-73.944091796875,57.4951171875,34.5458984375
12.549999900000001,7.357381820678711,2.231395959854126,-1.216254472732544,-74.15771484375,57.3272705078125,43.15185546875
12.569999900000001,7.481880187988281,2.0638017654418945,-1.2114660739898682,-69.793701171875,57.5408935546875,52.24609375
12.5899999,7.625532627105713,1.9177556037902832,-1.280897855758667,-59.722900390625,52.67333984375,50.5828857421875
12.6099999,7.7213006019592285,1.7597382068634033,-1.3048399686813354,-57.6171875,54.0618896484375,51.4068603515625
12.629999900000001,7.759607791900635,1.5897499322891235,-1.2330138683319092,-67.535400390625,62.774658203125,58.319091796875
12.649999900000001,7.738059997558594,1.4389152526855469,-1.0438719987869263,-76.7364501953125,66.864013671875,56.33544921875
12.6699999,7.582436561584473,1.237802267074585,-0.6751648783683777,-71.6400146484375,61.03515625,51.5289306640625
12.6899999,7.259219646453857,0.912190854549408,-0.1149216815829277,-64.0411376953125,52.3681640625,57.0068359375
12.709999900000001,6.842628479003906,0.5027823448181152,0.4812345504760742,-73.4710693359375,47.2412109375,57.3883056640625
12.729999900000001,6.3518171310424805,0.05267243832349777,1.0678139925003052,-79.6356201171875,35.6292724609375,59.6771240234375
12.7499999,5.913678169250488,-0.36152446269989014,1.5059528350830078,-82.2601318359375,29.4036865234375,57.8460693359375
12.7699999,5.635950565338135,-0.7589619159698486,1.8315643072128296,-81.939697265625,21.1944580078125,48.8433837890625
12.789999900000002,5.499481201171875,-1.1228805780410767,2.073378562927246,-82.672119140625,11.8408203125,51.2847900390625
12.809999900000001,5.485116004943848,-1.4844050407409668,2.2361843585968018,-96.405029296875,8.72802734375,48.8739013671875
12.8299999,5.583278179168701,-1.7764976024627686,2.255337953567505,-106.62841796875,1.0528564453125,46.1883544921875
12.8499999,5.75326681137085,-2.140416383743286,2.1811177730560303,-91.8426513671875,-16.0980224609375,57.6171875
12.8699999,5.841852188110352,-2.564189910888672,1.9847931861877441,-75.6988525390625,-32.806396484375,76.0498046875
12.889999900000001,5.774814605712891,-3.1435868740081787,1.7812861204147339,-83.0230712890625,-41.7327880859375,72.3114013671875
12.9099999,5.406107425689697,-3.864241600036621,1.5825673341751099,-91.4459228515625,-55.6488037109375,55.755615234375
12.9299999,5.027823448181152,-4.764461517333984,1.4269442558288574,-122.833251953125,-84.8541259765625,38.9862060546875
12.9499999,4.738125324249268,-5.719748020172119,1.0414776802062988,-109.9090576171875,-87.7532958984375,21.575927734375
12.969999900000001,4.73573112487793,-6.567295074462891,0.6727706789970398,-59.814453125,-73.8677978515625,6.53076171875
12.9899999,4.884171485900879,-7.139509677886963,0.3016694188117981,-35.2783203125,-68.3441162109375,-10.5743408203125
13.0099999,5.145139217376709,-7.42681360244751,0.023942016065120697,-42.938232421875,-85.113525390625,-26.275634765625
13.0299999,5.432443618774414,-7.424419403076172,-0.12689268589019775,-39.24560546875,-113.7847900390625,-38.2232666015625
13.049999900000001,5.858611583709717,-7.338228225708008,-0.2944868206977844,-23.529052734375,-135.07080078125,-54.4281005859375
13.069999900000001,6.36378812789917,-7.2113356590271,-0.5554547905921936,-1.52587890625,-147.88818359375,-63.140869140625
13.0899999,6.950367450714111,-7.036558628082275,-0.9768342971801758,6.0272216796875,-160.0799560546875,-61.21826171875
13.1099999,7.682993412017822,-6.845022678375244,-1.680729627609253,-8.392333984375,-176.7120361328125,-69.8699951171875
13.129999900000001,8.4108304977417,-6.689399719238281,-2.5737667083740234,0.18310546875,-180.755615234375,-88.31787109375
13.149999900000001,9.064447402954102,-6.596025466918945,-3.5936968326568604,37.4755859375,-169.7235107421875,-96.9696044921875
13.1699999,9.521739959716797,-6.447585105895996,-4.611232280731201,59.7076416015625,-167.3431396484375,-100.189208984375
13.1899999,9.655815124511719,-6.160281181335449,-5.4875102043151855,62.92724609375,-171.9512939453125,-113.3880615234375
13.209999900000001,9.569623947143555,-5.7125654220581055,-6.311115741729736,63.04931640625,-171.600341796875,-127.5177001953125
13.229999900000001,9.402029991149902,-5.154716491699219,-7.196970462799072,73.54736328125,-164.7186279296875,-130.9967041015625
13.2499999,9.459490776062012,-4.321534156799316,-8.291120529174805,87.5396728515625,-150.3448486328125,-132.26318359375
13.2699999,10.022128105163574,-3.095702886581421,-9.514557838439941,80.2459716796875,-131.4239501953125,-153.4423828125
13.289999900000002,10.99656867980957,-1.5466543436050415,-10.436325073242188,74.3865966796875,-78.216552734375,-163.63525390625
13.309999900000001,12.102689743041992,0.05746084079146385,-10.826580047607422,58.868408203125,-12.5579833984375,-146.6522216796875
13.3299999,12.69405746459961,1.2234370708465576,-10.486603736877441,54.4891357421875,5.096435546875,-126.5869140625
13.3499999,12.430695533752441,1.599326729774475,-9.612719535827637,74.2645263671875,-9.4451904296875,-109.5428466796875
13.3699999,11.453861236572266,1.3766659498214722,-8.676587104797363,84.014892578125,-22.2015380859375,-101.348876953125
13.389999900000001,10.237606048583984,0.9193734526634216,-7.953537940979004,91.0186767578125,-23.1170654296875,-112.4267578125
13.4099999,9.114726066589355,0.6536170840263367,-7.496245384216309,99.395751953125,-19.0277099609375,-113.46435546875
13.4299999,8.35097599029541,0.7445967197418213,-7.386112213134766,83.953857421875,-15.167236328125,-105.2093505859375
13.4499999,8.044517517089844,1.2114660739898682,-7.536946773529053,68.939208984375,-14.190673828125,-105.77392578125
13.469999900000001,8.090007781982422,1.8171991109848022,-7.99184513092041,70.9228515625,-1.495361328125,-107.5897216796875
13.4899999,8.418013572692871,2.494758129119873,-8.628703117370605,67.626953125,18.5699462890625,-96.19140625
13.5099999,8.918401718139648,3.1938650608062744,-9.284713745117188,58.10546875,31.219482421875,-88.6383056640625
13.5299999,9.330204010009766,3.7493197917938232,-9.751583099365234,53.5736083984375,36.4532470703125,-78.9794921875
13.549999900000001,9.59596061706543,4.082113742828369,-10.019734382629395,42.6788330078125,47.18017578125,-65.582275390625
13.569999900000001,9.684545516967773,4.1395745277404785,-10.089165687561035,33.447265625,51.81884765625,-62.31689453125
13.5899999,9.641449928283691,4.003105163574219,-9.945513725280762,30.8380126953125,50.9490966796875,-61.9354248046875
13.6099999,9.452308654785156,3.7397429943084717,-9.617507934570312,17.578125,55.8013916015625,-65.2008056640625
13.629999900000001,9.172186851501465,3.5027170181274414,-9.148244857788086,-2.0599365234375,64.697265625,-64.9871826171875
13.649999900000001,8.78193187713623,3.270479440689087,-8.578424453735352,-5.401611328125,60.5316162109375,-60.943603515625
13.6699999,8.283937454223633,3.0190882682800293,-7.994239330291748,2.2430419921875,46.966552734375,-61.9659423828125
13.6899999,7.812280178070068,2.8658595085144043,-7.491456985473633,4.57763671875,30.94482421875,-67.474365234375
13.709999900000001,7.419631004333496,2.8586769104003906,-7.0557122230529785,5.096435546875,26.85546875,-48.6602783203125
13.729999900000001,7.19936466217041,2.9903578758239746,-6.852205276489258,-14.495849609375,37.9791259765625,-28.3355712890625
13.7499999,7.1490864753723145,3.28963303565979,-6.854599475860596,-19.8974609375,41.3818359375,-30.6243896484375
13.7699999,7.1706342697143555,3.6176388263702393,-7.017405033111572,-8.819580078125,38.63525390625,-25.8331298828125
13.789999900000002,7.319074630737305,4.022258758544922,-7.328651428222656,-16.571044921875,39.276123046875,-26.2451171875
13.809999900000001,7.462726593017578,4.443638324737549,-7.599195957183838,-39.5050048828125,56.8389892578125,-26.824951171875
13.8299999,7.5848307609558105,4.819528102874756,-7.802703380584717,-59.6771240234375,75.6072998046875,-14.95361328125
13.8499999,7.599195957183838,5.12119722366333,-7.8745293617248535,-62.530517578125,86.8377685546875,-8.6212158203125
13.8699999,7.448361396789551,5.257667064666748,-7.797914981842041,-56.45751953125,87.982177734375,-3.3721923828125
13.889999900000001,7.1251444816589355,5.329493045806885,-7.575253963470459,-52.337646484375,86.0137939453125,10.4522705078125
13.9099999,6.773196697235107,5.317522048950195,-7.311892032623291,-62.1337890625,84.5489501953125,20.111083984375
13.9299999,6.361393928527832,5.233725070953369,-7.0557122230529785,-71.59423828125,90.9271240234375,23.98681640625
13.9499999,6.026205539703369,5.0900726318359375,-6.845022678375244,-55.35888671875,91.766357421875,36.62109375
13.969999900000001,5.743690013885498,4.867412090301514,-6.627150535583496,-42.54150390625,88.92822265625,45.3643798828125
13.9899999,5.535394191741943,4.587290287017822,-6.3518171310424805,-44.49462890625,89.66064453125,49.3927001953125
14.0099999,5.418078422546387,4.311957359313965,-5.983109951019287,-49.8046875,89.9810791015625,46.356201171875
14.0299999,5.363011837005615,4.022258758544922,-5.473145008087158,-43.5333251953125,89.7674560546875,46.2799072265625
14.049999900000001,5.4252610206604,3.7684733867645264,-4.867412090301514,-34.9273681640625,87.46337890625,47.8515625
14.069999900000001,5.57370138168335,3.624821424484253,-4.1611223220825195,-34.912109375,87.2039794921875,46.4019775390625
14.0899999,5.78678560256958,3.557783842086792,-3.40216064453125,-42.96875,90.88134765625,48.0194091796875
14.1099999,6.007051944732666,3.531447410583496,-2.6647465229034424,-47.210693359375,90.7745361328125,50.6439208984375
14.129999900000001,6.145915985107422,3.466804027557373,-2.0015525817871094,-41.2750244140625,84.503173828125,56.33544921875
14.149999900000001,6.22731876373291,3.354276657104492,-1.4317326545715332,-32.7301025390625,72.6776123046875,58.837890625
14.1699999,6.277596950531006,3.181894063949585,-0.9361328482627869,-33.69140625,70.0836181640625,59.3109130859375
14.1899999,6.347028732299805,2.9664158821105957,-0.5219359993934631,-43.45703125,71.59423828125,61.6912841796875
14.209999900000001,6.466738700866699,2.7509377002716064,-0.16519992053508759,-44.281005859375,66.6351318359375,71.96044921875
14.229999900000001,6.62236213684082,2.497152328491211,0.12449848651885986,-45.34912109375,57.1746826171875,76.3702392578125
14.2499999,6.7708024978637695,2.1715409755706787,0.35673606395721436,-50.750732421875,49.9725341796875,77.4383544921875
14.2699999,6.936002254486084,1.8315643072128296,0.4908113479614258,-58.53271484375,49.224853515625,80.230712890625
14.289999900000002,7.026981830596924,1.400607943534851,0.5793967843055725,-63.8275146484375,51.4373779296875,86.700439453125
14.309999900000001,7.072471618652344,0.9026140570640564,0.6991068720817566,-58.8226318359375,45.6390380859375,90.850830078125
14.3299999,7.072471618652344,0.33997663855552673,0.8619126081466675,-61.920166015625,39.520263671875,82.061767578125
14.3499999,6.943184852600098,-0.26336219906806946,1.115697979927063,-74.70703125,44.25048828125,70.5413818359375
14.3699999,6.694188117980957,-0.8643068075180054,1.4245500564575195,-73.8677978515625,35.064697265625,75.86669921875
14.389999900000001,6.356605529785156,-1.45806884765625,1.7597382068634033,-65.7958984375,17.578125,76.72119140625
14.4099999,5.978321552276611,-1.9728221893310547,2.078166961669922,-67.596435546875,9.307861328125,70.770263671875
14.4299999,5.626373767852783,-2.4229321479797363,2.363077163696289,-85.99853515625,12.8631591796875,60.2874755859375
14.4499999,5.39174222946167,-2.7748796939849854,2.564189910888672,-104.4464111328125,9.9639892578125,45.4559326171875
14.469999900000001,5.245696067810059,-3.047818660736084,2.6862943172454834,-103.8818359375,-7.5836181640625,38.909912109375
14.4899999,5.102043628692627,-3.335123062133789,2.7892448902130127,-92.041015625,-33.0810546875,50.2471923828125
14.5099999,4.989516258239746,-3.7397429943084717,2.8371291160583496,-98.8616943359375,-47.7752685546875,52.6123046875
14.5299999,4.944026470184326,-4.199429988861084,2.7509377002716064,-113.677978515625,-58.837890625,32.379150390625
14.549999900000001,5.032611846923828,-4.666299343109131,2.5043349266052246,-112.5335693359375,-72.601318359375,6.5460205078125
14.569999900000001,5.281609058380127,-5.0900726318359375,2.1092917919158936,-94.6197509765625,-91.6748046875,4.119873046875
14.5899999,5.57370138168335,-5.535394191741943,1.6663644313812256,-81.390380859375,-110.90087890625,23.956298828125
14.6099999,5.884947776794434,-5.9735331535339355,1.2018892765045166,-80.078125,-127.838134765625,22.1405029296875
14.629999900000001,6.203376770019531,-6.382941722869873,0.6943184733390808,-74.8748779296875,-144.7296142578125,-1.983642578125
14.649999900000001,6.593631267547607,-6.703764915466309,0.11252748221158981,-61.2335205078125,-152.9998779296875,-6.591796875
14.6699999,7.017405033111572,-6.94079065322876,-0.5386953949928284,-49.9420166015625,-148.8189697265625,10.498046875
14.6899999,7.412448406219482,-7.110779285430908,-1.2186486721038818,-40.283203125,-145.6298828125,18.341064453125
14.709999900000001,7.781155586242676,-7.225700855255127,-1.9536685943603516,-33.538818359375,-162.3992919921875,2.9144287109375
14.729999900000001,8.142680168151855,-7.2568254470825195,-2.762908697128296,-21.8048095703125,-177.3529052734375,-13.8702392578125
14.7499999,8.487444877624512,-7.295132637023926,-3.6320040225982666,-10.498046875,-166.7938232421875,-11.2457275390625
14.7699999,8.734047889709473,-7.484274387359619,-4.577713489532471,-9.7503662109375,-154.96826171875,-10.955810546875
14.789999900000002,8.846575736999512,-7.881711959838867,-5.56173038482666,0.3509521484375,-158.447265625,-35.33935546875
14.809999900000001,8.942343711853027,-8.279149055480957,-6.610390663146973,19.378662109375,-160.980224609375,-66.375732421875
14.8299999,9.097966194152832,-8.456320762634277,-7.587224960327148,34.454345703125,-144.134521484375,-82.427978515625
14.8499999,9.35893440246582,-8.2312650680542,-8.382100105285645,38.604736328125,-113.006591796875,-91.461181640625
14.8699999,9.643844604492188,-7.623138427734375,-8.846575736999512,39.9627685546875,-94.78759765625,-108.734130859375
14.889999900000001,9.816226959228516,-6.785167694091797,-9.009381294250488,48.6907958984375,-88.104248046875,-126.64794921875
14.9099999,9.840168952941895,-5.789179801940918,-8.911218643188477,59.722900390625,-74.6612548828125,-134.246826171875
14.9299999,9.708487510681152,-4.7189717292785645,-8.614337921142578,62.98828125,-55.9234619140625,-137.51220703125
14.9499999,9.406818389892578,-3.6846764087677,-8.236053466796875,55.6793212890625,-51.025390625,-144.4549560546875
14.969999900000001,9.066842079162598,-2.784456491470337,-7.920019149780273,46.93603515625,-58.349609375,-155.1055908203125
14.9899999,8.78432559967041,-1.946485996246338,-7.759607791900635,49.468994140625,-53.6956787109375,-170.989990234375
15.0099999,8.662221908569336,-1.161187767982483,-7.740454196929932,60.9283447265625,-33.0810546875,-177.4139404296875
15.0299999,8.645462036132812,-0.4668693244457245,-7.800309181213379,67.0318603515625,-20.8740234375,-167.1142578125
15.049999900000001,8.60236644744873,0.11252748221158981,-7.881711959838867,61.248779296875,-21.05712890625,-153.076171875
15.069999900000001,8.588001251220703,0.5530605912208557,-7.996633529663086,49.957275390625,-9.185791015625,-156.7840576171875
15.0899999,8.588001251220703,0.8595184087753296,-8.10437297821045,50.140380859375,11.0321044921875,-170.3338623046875
15.1099999,8.647856712341309,1.1492167711257935,-8.212111473083496,54.19921875,14.7247314453125,-159.97314453125
15.129999900000001,8.791508674621582,1.4628572463989258,-8.307879447937012,44.73876953125,11.9476318359375,-133.7127685546875
15.149999900000001,8.951920509338379,1.8148049116134644,-8.394071578979492,31.9061279296875,27.0538330078125,-124.9542236328125
15.1699999,9.059659004211426,2.188300371170044,-8.494627952575684,28.1829833984375,46.966552734375,-123.3062744140625
15.1899999,9.083600997924805,2.5498247146606445,-8.561665534973145,25.8636474609375,52.6275634765625,-116.4093017578125
15.209999900000001,9.033323287963867,2.9520506858825684,-8.56645393371582,18.157958984375,45.0592041015625,-110.90087890625
15.229999900000001,8.911218643188477,3.3207578659057617,-8.456320762634277,13.0767822265625,48.5076904296875,-102.3101806640625
15.2499999,8.705317497253418,3.598485231399536,-8.31985092163086,2.1820068359375,66.9708251953125,-81.35986328125
15.2699999,8.580819129943848,3.8977603912353516,-8.20492935180664,-8.4686279296875,77.0721435546875,-72.1588134765625
15.289999900000002,8.418013572692871,4.132391929626465,-8.020575523376465,-5.3863525390625,73.30322265625,-68.1610107421875
15.309999900000001,8.190564155578613,4.299986362457275,-7.807491779327393,0.5950927734375,63.8275146484375,-49.8809814453125
15.3299999,7.936778545379639,4.381389141082764,-7.575253963470459,3.2958984375,55.7098388671875,-42.633056640625
15.3499999,7.620744228363037,4.307168960571289,-7.354987621307373,4.6234130859375,51.9561767578125,-43.0145263671875
15.3699999,7.283161640167236,4.0964789390563965,-7.175422668457031,5.4931640625,51.0406494140625,-40.8172607421875
15.389999900000001,7.010222434997559,3.864241600036621,-7.022193431854248,2.4261474609375,46.722412109375,-42.5567626953125
15.4099999,6.88332986831665,3.706224203109741,-6.828263282775879,0.1678466796875,38.75732421875,-44.12841796875
15.4299999,6.890512466430664,3.670311212539673,-6.615179061889648,-12.908935546875,40.618896484375,-47.1038818359375
15.4499999,7.041347026824951,3.799597978591919,-6.368576526641846,-25.0091552734375,45.8221435546875,-54.62646484375
15.469999900000001,7.264008045196533,4.065354347229004,-6.09324312210083,-25.970458984375,47.088623046875,-49.6978759765625
15.4899999,7.522581577301025,4.474762916564941,-5.8203043937683105,-30.4107666015625,43.76220703125,-34.1033935546875
15.5099999,7.745242595672607,4.9583916664123535,-5.566518783569336,-46.8292236328125,45.013427734375,-27.1148681640625
15.5299999,7.910442352294922,5.485116004943848,-5.3342814445495605,-58.3343505859375,50.506591796875,-19.6075439453125
15.549999900000001,7.970297336578369,5.949591159820557,-5.149928092956543,-64.4989013671875,55.4962158203125,-10.406494140625
15.569999900000001,7.9176249504089355,6.323086738586426,-5.015852451324463,-68.6187744140625,56.884765625,3.35693359375
15.5899999,7.750030994415283,6.567295074462891,-4.900930881500244,-67.07763671875,53.52783203125,22.2320556640625
15.6099999,7.503427982330322,6.66785192489624,-4.845864295959473,-72.052001953125,57.464599609375,31.9976806640625
15.629999900000001,7.2113356590271,6.617573261260986,-4.824316501617432,-76.9500732421875,63.262939453125,39.459228515625
15.649999900000001,6.876147270202637,6.430825710296631,-4.78122091293335,-72.08251953125,66.9708251953125,49.5758056640625
15.6699999,6.562506675720215,6.160281181335449,-4.702212333679199,-63.934326171875,65.8111572265625,59.295654296875
15.6899999,6.236895561218262,5.817910194396973,-4.505887508392334,-58.685302734375,63.3544921875,71.1212158203125
15.709999900000001,5.95677375793457,5.432443618774414,-4.225766181945801,-55.8013916015625,64.4378662109375,82.1380615234375
15.729999900000001,5.736507415771484,4.99669885635376,-3.8714241981506348,-56.427001953125,61.9964599609375,79.864501953125
15.7499999,5.626373767852783,4.580107688903809,-3.5027170181274414,-53.253173828125,53.6956787109375,74.89013671875
15.7699999,5.633556365966797,4.197035789489746,-3.0885202884674072,-37.9638671875,45.989990234375,83.648681640625
15.789999900000002,5.789179801940918,3.883395195007324,-2.719813108444214,-42.54150390625,48.9044189453125,83.831787109375
15.809999900000001,6.0190229415893555,3.670311212539673,-2.3774423599243164,-48.6297607421875,50.1708984375,74.1424560546875
15.8299999,6.3063273429870605,3.509899616241455,-2.0661959648132324,-41.5496826171875,46.1578369140625,67.3675537109375
15.8499999,6.6127848625183105,3.4548330307006836,-1.7812861204147339,-38.970947265625,44.6014404296875,68.511962890625
15.869999900000002,6.936002254486084,3.4356794357299805,-1.4724340438842773,-42.938232421875,48.2330322265625,75.3173828125
15.889999900000001,7.252037048339844,3.4117374420166016,-1.1659762859344482,-54.3212890625,55.1300048828125,75.4547119140625
15.9099999,7.445967197418213,3.2609026432037354,-0.8619126081466675,-53.6346435546875,56.0455322265625,79.5135498046875
15.9299999,7.560888767242432,2.9903578758239746,-0.6320692300796509,-40.1611328125,42.6025390625,87.8143310546875
15.9499999,7.4986395835876465,2.557007312774658,-0.45489832758903503,-34.6221923828125,34.11865234375,92.132568359375
15.969999900000001,7.321468830108643,1.9704279899597168,-0.3064578175544739,-36.0107421875,36.8499755859375,99.395751953125
15.9899999,7.15387487411499,1.3192051649093628,-0.1867477297782898,-42.0989990234375,42.4041748046875,95.5810546875
16.0099999,7.022193431854248,0.6919242739677429,-0.016759412363171577,-49.6063232421875,42.449951171875,77.789306640625
16.0299999,6.983886241912842,0.11252748221158981,0.21787235140800476,-52.978515625,40.4205322265625,72.32666015625
16.0499999,7.01979923248291,-0.3232172429561615,0.5123591423034668,-54.9774169921875,36.3922119140625,77.972412109375
16.0699999,7.062894821166992,-0.6440402865409851,0.8044517636299133,-55.938720703125,29.4647216796875,82.4432373046875
16.089999900000002,7.036558628082275,-0.9361328482627869,1.0223240852355957,-58.8836669921875,27.374267578125,75.439453125
16.109999900000002,6.916848659515381,-1.280897855758667,1.1563993692398071,-60.1043701171875,25.634765625,73.5015869140625
16.1299999,6.761225700378418,-1.702277421951294,1.1994950771331787,-62.9425048828125,18.463134765625,68.7408447265625
16.1499999,6.560112476348877,-2.188300371170044,1.2090718746185303,-64.453125,12.725830078125,57.6324462890625
16.1699999,6.4380083084106445,-2.6240451335906982,1.1540051698684692,-65.643310546875,9.765625,48.858642578125
16.1899999,6.390124320983887,-3.0310592651367188,1.1037269830703735,-67.474365234375,7.75146484375,45.379638671875
16.2099999,6.512228488922119,-3.3949780464172363,0.9959878921508789,-76.3092041015625,7.3394775390625,36.5142822265625
16.2299999,6.732495307922363,-3.708618402481079,0.8930372595787048,-81.1309814453125,6.9580078125,25.2685546875
16.249999900000002,6.971915245056152,-3.9384617805480957,0.828393816947937,-73.974609375,-1.7547607421875,27.1759033203125
16.269999900000002,7.029376029968262,-4.003105163574219,0.8212111592292786,-80.2764892578125,-4.1656494140625,28.6865234375
16.2899999,6.952761650085449,-3.9624037742614746,0.8978256583213806,-88.80615234375,-10.2691650390625,31.73828125
16.3099999,6.66785192489624,-3.869029998779297,0.9888052940368652,-90.0421142578125,-21.636962890625,39.9932861328125
16.3299999,6.2392897605896,-3.8714241981506348,1.0989385843276978,-86.151123046875,-27.16064453125,50.59814453125
16.3499999,5.726930618286133,-4.02465295791626,1.1204863786697388,-87.188720703125,-33.7982177734375,60.760498046875
16.3699999,5.377377033233643,-4.486733913421631,0.9744400978088379,-89.29443359375,-49.2706298828125,63.41552734375
16.3899999,5.212177276611328,-5.1331682205200195,0.7350199222564697,-88.6688232421875,-59.26513671875,52.398681640625
16.4099999,5.413290023803711,-5.947196960449219,0.42377370595932007,-87.0513916015625,-57.403564453125,31.3873291015625
16.429999900000002,5.87776517868042,-6.653486728668213,0.12210428714752197,-92.3004150390625,-52.3681640625,17.08984375
16.4499999,6.552929878234863,-7.1251444816589355,-0.14604631066322327,-96.2371826171875,-60.394287109375,10.345458984375
16.4699999,7.196970462799072,-7.299921035766602,-0.33997663855552673,-79.254150390625,-79.345703125,14.9993896484375
16.4899999,7.704541206359863,-7.268796443939209,-0.4884171485900879,-58.380126953125,-91.949462890625,18.4326171875
16.5099999,8.061277389526367,-7.062894821166992,-0.6943184733390808,-58.6090087890625,-110.260009765625,10.3607177734375
16.5299999,8.178592681884766,-6.7061591148376465,-0.912190854549408,-56.1065673828125,-128.7841796875,11.1236572265625
16.5499999,8.11634349822998,-6.392518520355225,-1.2282254695892334,-51.7425537109375,-136.2762451171875,26.214599609375
16.5699999,8.111555099487305,-6.208165168762207,-1.8291701078414917,-57.1746826171875,-138.0157470703125,39.4134521484375
16.589999900000002,8.485051155090332,-6.212953567504883,-2.808398485183716,-49.102783203125,-151.611328125,36.3311767578125
16.609999900000002,9.260771751403809,-6.378153324127197,-4.1156325340271,-24.5208740234375,-147.7813720703125,42.6483154296875
16.6299999,10.295066833496094,-6.670246124267578,-5.485116004943848,-5.8441162109375,-109.375,57.12890625
16.6499999,11.240777015686035,-7.029376029968262,-6.607996463775635,-10.6658935546875,-71.685791015625,55.1605224609375
16.6699999,11.93748950958252,-7.465120792388916,-7.326257228851318,-22.4456787109375,-59.478759765625,39.886474609375
16.6899999,12.310985565185547,-7.857769966125488,-7.625532627105713,-17.5933837890625,-47.1954345703125,25.848388671875
16.7099999,12.619836807250977,-8.068459510803223,-7.60637903213501,4.791259765625,-19.9737548828125,27.1759033203125
16.7299999,12.938265800476074,-8.099584579467773,-7.42681360244751,1.1749267578125,3.4027099609375,25.1007080078125
16.749999900000002,13.074735641479492,-8.001421928405762,-7.050923824310303,-5.8441162109375,20.172119140625,15.6707763671875
16.769999900000002,12.986149787902832,-7.910442352294922,-6.631938934326172,0.06103515625,33.9202880859375,4.82177734375
16.7899999,12.643778800964355,-7.876923561096191,-6.287173748016357,8.5906982421875,43.6248779296875,-3.3111572265625
16.8099999,12.138602256774902,-7.881711959838867,-6.050147533416748,13.18359375,57.31201171875,-9.8724365234375
16.8299999,11.552022933959961,-7.915230751037598,-5.916072368621826,11.7645263671875,73.4405517578125,-16.204833984375
16.8499999,10.903194427490234,-7.934384346008301,-5.762843608856201,18.3258056640625,83.221435546875,-23.3154296875
16.8699999,10.232817649841309,-7.94635534286499,-5.501875400543213,30.8685302734375,84.77783203125,-31.8450927734375
16.8899999,9.57201862335205,-7.908048152923584,-5.118803024291992,31.43310546875,82.0465087890625,-40.7867431640625
16.9099999,9.028534889221191,-7.752425193786621,-4.659116744995117,28.4576416015625,77.8656005859375,-42.510986328125
16.929999900000002,8.643068313598633,-7.51779317855835,-4.177882194519043,33.782958984375,76.8890380859375,-32.8216552734375
16.9499999,8.401253700256348,-7.2568254470825195,-3.7636849880218506,34.60693359375,78.826904296875,-26.79443359375
16.9699999,8.236053466796875,-7.048529624938965,-3.44765043258667,41.7633056640625,78.8421630859375,-26.611328125
16.9899999,8.101978302001953,-6.921637058258057,-3.2824504375457764,46.7376708984375,69.9462890625,-28.74755859375
17.0099999,8.01339340209961,-6.823474884033203,-3.248931646347046,54.7027587890625,56.6253662109375,-29.11376953125
17.0299999,7.951143741607666,-6.7492547035217285,-3.3255462646484375,55.9539794921875,65.00244140625,-22.3236083984375
17.0499999,7.86734676361084,-6.665457725524902,-3.3854012489318848,54.840087890625,73.6846923828125,-17.88330078125
17.0699999,7.714118003845215,-6.586448669433594,-3.335123062133789,54.8248291015625,73.6083984375,-28.656005859375
17.089999900000002,7.424419403076172,-6.495469093322754,-3.1220390796661377,55.450439453125,67.9931640625,-39.5965576171875
17.109999900000002,7.089231014251709,-6.368576526641846,-2.7772738933563232,56.09130859375,62.7593994140625,-43.3807373046875
17.1299999,6.744466304779053,-6.18182897567749,-2.3511061668395996,55.206298828125,65.093994140625,-44.647216796875
17.1499999,6.517016887664795,-5.9519853591918945,-1.9153614044189453,62.4237060546875,60.943603515625,-44.49462890625
17.1699999,6.3949127197265625,-5.700594425201416,-1.4891934394836426,75.7904052734375,48.065185546875,-41.3055419921875
17.1899999,6.3949127197265625,-5.458779811859131,-1.0414776802062988,83.343505859375,36.0870361328125,-35.1104736328125
17.2099999,6.509834289550781,-5.212177276611328,-0.6200982332229614,83.55712890625,25.726318359375,-32.4249267578125
17.2299999,6.670246124267578,-4.967968463897705,-0.2322375625371933,84.6710205078125,19.287109375,-30.609130859375
17.249999900000002,6.8809356689453125,-4.721365928649902,0.10055647045373917,97.2137451171875,9.4451904296875,-27.3895263671875
17.269999900000002,7.041347026824951,-4.481945514678955,0.3902548849582672,108.6883544921875,4.3487548828125,-19.012451171875
17.2899999,7.1490864753723145,-4.309563159942627,0.5913678407669067,95.245361328125,7.5836181640625,-20.69091796875
17.3099999,7.180211067199707,-4.175487995147705,0.7876923680305481,92.315673828125,-3.143310546875,-22.796630859375
17.3299999,7.103596210479736,-4.173093795776367,0.9193734526634216,96.1151123046875,-11.1541748046875,-22.064208984375
17.3499999,6.957550048828125,-4.185064792633057,1.0055646896362305,92.8802490234375,-15.5487060546875,-23.0865478515625
17.3699999,6.801927089691162,-4.20421838760376,1.0247182846069336,83.5113525390625,-14.22119140625,-39.12353515625
17.3899999,6.672640323638916,-4.072536945343018,0.9672574996948242,77.9876708984375,-13.3819580078125,-48.2330322265625
17.409999900000003,6.63433313369751,-3.845088005065918,0.8475474119186401,77.972412109375,-12.3138427734375,-47.9583740234375
17.429999900000002,6.619967937469482,-3.4955344200134277,0.7398083209991455,78.369140625,-9.9639892578125,-49.49951171875
17.4499999,6.648698329925537,-3.028665065765381,0.629675030708313,83.4503173828125,-20.8282470703125,-50.2777099609375
17.4699999,6.665457725524902,-2.4396915435791016,0.5003881454467773,83.4197998046875,-28.9154052734375,-53.7261962890625
17.4899999,6.636727333068848,-1.7597382068634033,0.3519476354122162,87.615966796875,-27.5115966796875,-47.5921630859375
17.5099999,6.502651691436768,-1.0749965906143188,0.17956513166427612,92.9107666015625,-30.426025390625,-34.6527099609375
17.5299999,6.203376770019531,-0.4836287498474121,0.033518824726343155,90.728759765625,-32.867431640625,-36.468505859375
17.5499999,5.837063789367676,-0.011971008032560349,-0.05746084079146385,89.202880859375,-35.5682373046875,-47.5616455078125
17.5699999,5.485116004943848,0.3256114423274994,-0.05027823522686958,96.3287353515625,-44.525146484375,-45.8221435546875
17.589999900000002,5.202600479125977,0.5961562395095825,0.07900865375995636,100.4791259765625,-51.7120361328125,-35.7208251953125
17.609999900000002,5.114014625549316,0.8571242094039917,0.2561795711517334,96.7254638671875,-64.605712890625,-34.637451171875
17.6299999,5.25527286529541,1.1348515748977661,0.3902548849582672,79.4830322265625,-73.272705078125,-46.4324951171875
17.6499999,5.5760955810546875,1.4197616577148438,0.3974374830722809,72.9217529296875,-72.0367431640625,-46.5545654296875
17.6699999,6.042964935302734,1.7621324062347412,0.1867477297782898,79.1168212890625,-74.493408203125,-38.0096435546875
17.6899999,6.627150535583496,2.097320795059204,-0.27054479718208313,75.0274658203125,-81.3446044921875,-37.139892578125
17.7099999,7.127538681030273,2.38462495803833,-0.8403648138046265,66.2384033203125,-91.97998046875,-41.5191650390625
17.7299999,7.618350028991699,2.5905263423919678,-1.455674648284912,65.399169921875,-85.3729248046875,-35.4461669921875
17.749999900000002,8.190564155578613,2.734178304672241,-2.123656988143921,64.5751953125,-84.808349609375,-26.641845703125
17.769999900000002,8.83939266204834,2.8778305053710938,-2.7892448902130127,57.4493408203125,-88.226318359375,-27.1453857421875
17.7899999,9.385271072387695,3.0550012588500977,-3.3446998596191406,58.53271484375,-82.09228515625,-21.087646484375
17.8099999,9.782708168029785,3.24414324760437,-3.708618402481079,60.7147216796875,-77.3162841796875,-11.0931396484375
17.8299999,9.895236015319824,3.375824451446533,-3.8786067962646484,46.1273193359375,-74.737548828125,-7.6446533203125
17.8499999,9.72285270690918,3.3734302520751953,-3.794809579849243,31.79931640625,-72.967529296875,-9.2620849609375
17.8699999,9.308655738830566,3.268085241317749,-3.550601005554199,30.731201171875,-79.7882080078125,-6.500244140625
17.8899999,8.875306129455566,3.177105665206909,-3.378218650817871,26.519775390625,-89.35546875,-0.518798828125
17.909999900000003,8.62391471862793,3.136404275894165,-3.3016040325164795,12.481689453125,-92.3004150390625,2.1514892578125
17.929999900000002,8.621520042419434,3.141192674636841,-3.445256233215332,-7.0953369140625,-79.6661376953125,4.058837890625
17.9499999,8.851364135742188,3.1675288677215576,-3.713406801223755,-13.2598876953125,-73.089599609375,10.43701171875
17.9699999,9.042900085449219,3.138798475265503,-4.015076160430908,-18.8446044921875,-73.7762451171875,19.0582275390625
17.9899999,9.097966194152832,3.1028854846954346,-4.285621166229248,-37.139892578125,-72.32666015625,21.575927734375
18.0099999,8.959102630615234,3.0837318897247314,-4.51067590713501,-42.41943359375,-80.13916015625,36.31591796875
18.0299999,8.71489429473877,3.028665065765381,-4.790797710418701,-41.839599609375,-87.34130859375,61.2335205078125
18.0499999,8.329427719116211,2.87064790725708,-5.106832027435303,-55.877685546875,-72.8759765625,75.3326416015625
18.0699999,7.90086555480957,2.516305923461914,-5.504269599914551,-81.085205078125,-53.8787841796875,70.892333984375
18.089999900000002,7.510610580444336,2.1116859912872314,-5.892130374908447,-87.158203125,-52.947998046875,53.5125732421875
18.109999900000002,7.338228225708008,1.7597382068634033,-6.287173748016357,-81.787109375,-57.464599609375,47.0428466796875
18.1299999,7.4770917892456055,1.6903064250946045,-6.6391215324401855,-74.493408203125,-62.0574951171875,62.469482421875
18.1499999,7.728483200073242,1.9321208000183105,-6.821080684661865,-62.0574951171875,-73.2879638671875,88.958740234375
18.1699999,8.08043098449707,2.2912509441375732,-6.9024834632873535,-77.7130126953125,-79.2694091796875,102.60009765625
18.1899999,8.355764389038086,2.717418909072876,-6.995857238769531,-122.74169921875,-72.2198486328125,82.7178955078125
18.2099999,8.655038833618164,3.0166940689086914,-7.216124057769775,-171.417236328125,-33.782958984375,56.9305419921875
18.2299999,8.820239067077637,3.248931646347046,-7.599195957183838,-161.895751953125,-21.78955078125,91.217041015625
18.249999900000002,8.87051773071289,3.2345664501190186,-8.018181800842285,-119.2626953125,-60.4705810546875,140.594482421875
18.269999900000002,8.760383605957031,2.8347349166870117,-8.60236644744873,-106.1859130859375,-102.05078125,177.886962890625
18.2899999,8.53532886505127,1.98958158493042,-9.17936897277832,-84.6099853515625,-94.6197509765625,206.11572265625
18.3099999,8.336610794067383,0.7781155705451965,-9.93593692779541,-64.544677734375,-76.7822265625,209.381103515625
18.3299999,8.212111473083496,-0.5937620401382446,-10.714052200317383,-51.1932373046875,-47.1038818359375,211.578369140625
18.3499999,8.145073890686035,-1.9297266006469727,-11.32457447052002,-48.6602783203125,-2.105712890625,228.240966796875
18.3699999,8.063671112060547,-3.0573954582214355,-11.647790908813477,-40.0238037109375,11.7034912109375,211.5478515625
18.3899999,7.94635534286499,-4.010287761688232,-11.628637313842773,-26.031494140625,2.9449462890625,181.8389892578125
18.409999900000003,7.668628215789795,-4.757278919219971,-11.267112731933594,-15.4571533203125,11.23046875,180.4962158203125
18.429999900000002,7.4100542068481445,-5.370194435119629,-10.682928085327148,-18.49365234375,29.266357421875,178.22265625
18.4499999,7.309497833251953,-5.863399982452393,-10.0580415725708,-38.055419921875,50.4302978515625,152.9083251953125
18.4699999,7.448361396789551,-6.2847795486450195,-9.476250648498535,-47.2412109375,75.4547119140625,124.45068359375
18.4899999,7.778761386871338,-6.66785192489624,-8.983044624328613,-38.0859375,84.9151611328125,116.51611328125
18.5099999,8.121131896972656,-7.060500621795654,-8.56884765625,-23.5595703125,84.442138671875,111.8316650390625
18.5299999,8.291120529174805,-7.489062786102295,-8.180987358093262,-17.852783203125,86.6851806640625,102.142333984375
18.5499999,8.252813339233398,-7.908048152923584,-7.783549785614014,-12.7716064453125,93.4906005859375,79.376220703125
18.5699999,8.020575523376465,-8.276755332946777,-7.417236804962158,-10.9100341796875,94.879150390625,52.0782470703125
18.589999900000002,7.666234016418457,-8.585607528686523,-7.141903877258301,-7.598876953125,86.0137939453125,42.2515869140625
18.609999900000002,7.292738437652588,-8.923190116882324,-7.0557122230529785,-1.983642578125,72.784423828125,32.8369140625
18.6299999,6.916848659515381,-9.284713745117188,-7.168240070343018,13.397216796875,74.188232421875,15.8843994140625
18.6499999,6.696582317352295,-9.641449928283691,-7.383718013763428,38.3758544921875,82.2601318359375,3.5400390625
18.6699999,6.607996463775635,-9.849745750427246,-7.515398979187012,49.13330078125,77.0721435546875,-5.3253173828125
18.6899999,6.660669326782227,-9.830592155456543,-7.412448406219482,46.6461181640625,77.5604248046875,-16.4642333984375
18.7099999,6.761225700378418,-9.59596061706543,-7.048529624938965,43.39599609375,81.23779296875,-27.9541015625
18.7299999,6.797138690948486,-9.241618156433105,-6.509834289550781,52.2003173828125,91.9189453125,-33.26416015625
18.749999900000002,6.698976516723633,-8.827422142028809,-5.832275390625,69.3511962890625,84.6405029296875,-29.96826171875
18.769999900000002,6.466738700866699,-8.418013572692871,-5.0685248374938965,78.765869140625,74.5697021484375,-26.8096923828125
18.7899999,6.1985883712768555,-8.008605003356934,-4.316745758056641,68.3135986328125,77.728271484375,-35.858154296875
18.8099999,5.966350555419922,-7.6111674308776855,-3.603273630142212,59.783935546875,82.855224609375,-48.828125
18.8299999,5.789179801940918,-7.204153060913086,-2.9951462745666504,60.6536865234375,78.18603515625,-53.3599853515625
18.8499999,5.674258232116699,-6.7923502922058105,-2.518700122833252,61.6607666015625,64.788818359375,-51.0101318359375
18.8699999,5.571307182312012,-6.36378812789917,-2.1475989818573,63.3087158203125,51.6204833984375,-46.905517578125
18.8899999,5.506663799285889,-5.959167957305908,-1.886630892753601,63.2171630859375,46.69189453125,-46.7529296875
18.909999900000003,5.485116004943848,-5.592854976654053,-1.7070658206939697,55.999755859375,48.2635498046875,-54.7332763671875
18.929999900000002,5.506663799285889,-5.245696067810059,-1.534683346748352,54.3975830078125,47.2869873046875,-54.62646484375
18.9499999,5.56173038482666,-4.929661273956299,-1.3742717504501343,49.6063232421875,43.9605712890625,-50.537109375
18.9699999,5.612008571624756,-4.63517427444458,-1.2258312702178955,43.487548828125,42.7398681640625,-54.6112060546875
18.9899999,5.702988624572754,-4.331110954284668,-1.1061211824417114,51.4984130859375,34.66796875,-54.4891357421875
19.0099999,5.813121795654297,-4.041412353515625,-1.0773907899856567,54.229736328125,30.5023193359375,-50.3082275390625
19.0299999,5.944802761077881,-3.7708675861358643,-1.0965443849563599,51.7425537109375,30.3802490234375,-44.5098876953125
19.0499999,6.1267619132995605,-3.5218706130981445,-1.158793568611145,55.084228515625,25.6195068359375,-42.7093505859375
19.0699999,6.315904140472412,-3.28963303565979,-1.2258312702178955,63.65966796875,17.913818359375,-43.4417724609375
19.089999900000002,6.507440090179443,-3.112462282180786,-1.2521674633026123,70.220947265625,15.6402587890625,-38.818359375
19.109999900000002,6.643909931182861,-3.002328872680664,-1.2042834758758545,69.9615478515625,17.2882080078125,-36.9110107421875
19.1299999,6.703764915466309,-2.896984100341797,-1.1252747774124146,72.8912353515625,13.092041015625,-42.694091796875
19.1499999,6.696582317352295,-2.7748796939849854,-1.039083480834961,80.3375244140625,7.171630859375,-44.7235107421875
19.1699999,6.655880928039551,-2.5977089405059814,-0.9696516990661621,83.648681640625,7.01904296875,-41.3055419921875
19.1899999,6.6630635261535645,-2.367865562438965,-0.9050082564353943,85.6170654296875,2.532958984375,-39.9017333984375
19.2099999,6.751648902893066,-2.1045033931732178,-0.7924807667732239,88.714599609375,-3.3721923828125,-46.6461181640625
19.2299999,6.878541469573975,-1.802833914756775,-0.6584054827690125,87.554931640625,-3.9215087890625,-54.0771484375
19.249999900000002,7.0341644287109375,-1.4915876388549805,-0.4429273009300232,89.5233154296875,-5.6915283203125,-50.8270263671875
19.269999900000002,7.101202011108398,-1.158793568611145,-0.17238251864910126,92.2393798828125,-13.1378173828125,-49.102783203125
19.2899999,7.2352776527404785,-0.7661445140838623,0.047884032130241394,85.8001708984375,-23.0255126953125,-60.24169921875
19.3099999,7.47230339050293,-0.2561795711517334,0.1867477297782898,87.2802734375,-35.919189453125,-69.732666015625
19.3299999,7.905653953552246,0.33758243918418884,0.16998831927776337,90.2862548828125,-36.80419921875,-61.004638671875
19.3499999,8.465897560119629,0.9792284965515137,0.047884032130241394,86.151123046875,-30.7464599609375,-50.5523681640625
19.3699999,9.011775016784668,1.5466543436050415,-0.10773907601833344,82.3974609375,-35.8123779296875,-46.2799072265625
19.3899999,9.418789863586426,1.9536685943603516,-0.2561795711517334,78.704833984375,-39.154052734375,-42.144775390625
19.409999900000003,9.677363395690918,2.166752576828003,-0.38067805767059326,71.2432861328125,-34.8663330078125,-36.7279052734375
19.429999900000002,9.792284965515137,2.1930887699127197,-0.4884171485900879,68.572998046875,-32.257080078125,-27.862548828125
19.4499999,9.770736694335938,2.0590133666992188,-0.5099649429321289,67.3980712890625,-33.2794189453125,-26.275634765625
19.4699999,9.634267807006836,1.845929503440857,-0.47165772318840027,60.9893798828125,-33.87451171875,-30.1971435546875
19.4899999,9.490615844726562,1.6615760326385498,-0.4118026793003082,57.952880859375,-36.590576171875,-27.5115966796875
19.5099999,9.363722801208496,1.6112977266311646,-0.44771572947502136,49.37744140625,-31.829833984375,-25.146484375
19.5299999,4.929661273956299,-8.647856712341309,-7.630321025848389,32.9742431640625,110.015869140625,34.210205078125
19.5499999,4.9368438720703125,-8.635885238647461,-6.926425457000732,15.1519775390625,106.4910888671875,12.20703125
19.5699999,5.027823448181152,-8.746018409729004,-6.435614109039307,10.4522705078125,98.7396240234375,6.4849853515625
19.589999900000002,5.216965675354004,-8.971074104309082,-6.289567947387695,15.8538818359375,95.2911376953125,4.9896240234375
19.609999900000002,5.370194435119629,-9.232041358947754,-6.339846134185791,25.390625,102.5238037109375,-3.90625
19.6299999,5.461174011230469,-9.488221168518066,-6.485892295837402,35.8123779296875,107.3150634765625,-14.3280029296875
19.6499999,5.4659624099731445,-9.634267807006836,-6.53377628326416,43.731689453125,112.0758056640625,-31.4788818359375
19.6699999,5.398924827575684,-9.586383819580078,-6.347028732299805,52.6885986328125,121.246337890625,-49.530029296875
19.6899999,5.293580055236816,-9.334992408752441,-5.868188381195068,51.8951416015625,130.0506591796875,-62.5152587890625
19.7099999,5.190629482269287,-8.892065048217773,-5.125985622406006,47.607421875,129.8828125,-71.8231201171875
19.7299999,5.135562419891357,-8.341399192810059,-4.194641590118408,57.769775390625,118.6676025390625,-82.244873046875
19.749999900000002,5.147533416748047,-7.750030994415283,-3.220201253890991,66.9403076171875,108.3831787109375,-94.4061279296875
19.769999900000002,5.310339450836182,-7.113173484802246,-2.3080103397369385,69.0460205078125,99.8077392578125,-105.2703857421875
19.7899999,5.609614372253418,-6.447585105895996,-1.5275006294250488,69.061279296875,92.2698974609375,-112.8997802734375
19.8099999,6.016628742218018,-5.743690013885498,-0.912190854549408,71.563720703125,82.1075439453125,-115.6005859375
19.8299999,6.507440090179443,-5.023035049438477,-0.47165772318840027,74.70703125,70.159912109375,-113.6932373046875
19.8499999,6.976703643798828,-4.321534156799316,-0.14604631066322327,75.6072998046875,62.6373291015625,-107.177734375
19.8699999,7.359776020050049,-3.6727054119110107,0.06464344263076782,67.6422119140625,59.08203125,-101.715087890625
19.8899999,7.68538761138916,-3.090914487838745,0.21787235140800476,62.2406005859375,51.6204833984375,-101.715087890625
19.909999900000003,7.86734676361084,-2.6144683361053467,0.3256114423274994,57.4493408203125,42.1295166015625,-94.9249267578125
19.929999900000002,7.9631147384643555,-2.276885747909546,0.3519476354122162,49.7589111328125,38.604736328125,-87.5244140625
19.9499999,7.9846625328063965,-2.1140801906585693,0.3256114423274994,53.7872314453125,29.815673828125,-83.7554931640625
19.9699999,7.893682956695557,-2.051830768585205,0.2082955539226532,62.9425048828125,20.8892822265625,-79.9713134765625
19.9899999,7.711723804473877,-2.0422539710998535,0.05506663769483566,72.9217529296875,10.9405517578125,-67.840576171875
20.0099999,7.417236804962158,-2.032677173614502,-0.1604115068912506,66.5283203125,12.9852294921875,-61.03515625
20.0299999,7.046135425567627,-1.8962076902389526,-0.45010992884635925,61.1724853515625,18.9666748046875,-64.4073486328125
20.0499999,6.655880928039551,-1.6831238269805908,-0.7924807667732239,76.690673828125,13.3514404296875,-51.94091796875
20.0699999,6.2632317543029785,-1.4245500564575195,-1.137245774269104,88.653564453125,8.48388671875,-35.58349609375
20.089999900000002,5.861005783081055,-1.0773907899856567,-1.41257905960083,92.46826171875,10.223388671875,-34.9273681640625
20.109999900000002,5.549759387969971,-0.6991068720817566,-1.5682021379470825,100.372314453125,8.1939697265625,-33.3251953125
