# Time (seconds),Accel_X,Accel_Y,Accel_Z,Gyro_X,Gyro_Y,Gyro_Z
0.0099999,3.2752678394317627,-8.731653213500977,3.2345664501190186,-4.3487548828125,-1.28173828125,-0.396728515625
0.029999900000000003,3.2776620388031006,-8.724471092224121,3.2106244564056396,-2.9296875,-0.762939453125,0.1678466796875
0.0499999,3.272873640060425,-8.71489429473877,3.201047658920288,-0.8544921875,-0.579833984375,0.6866455078125
0.0699999,3.272873640060425,-8.7268648147583,3.2154128551483154,-0.9002685546875,-1.220703125,1.1749267578125
0.08999990000000001,3.2752678394317627,-8.7484130859375,3.2345664501190186,-0.701904296875,-1.9683837890625,0.9765625
0.10999990000000001,3.2824504375457764,-8.78432559967041,3.251325845718384,-1.0528564453125,-2.410888671875,0.091552734375
0.1299999,3.28963303565979,-8.827422142028809,3.2585084438323975,-1.7547607421875,-1.9073486328125,-0.3204345703125
0.14999990000000002,3.2992098331451416,-8.858546257019043,3.2537200450897217,-1.7852783203125,-1.9073486328125,-0.1678466796875
0.1699999,3.3063924312591553,-8.87291145324707,3.2369606494903564,-1.9989013671875,-2.166748046875,-0.2288818359375
0.1899999,3.3039982318878174,-8.87051773071289,3.2154128551483154,-1.9683837890625,-1.4190673828125,-0.335693359375
0.20999990000000002,3.3016040325164795,-8.851364135742188,3.1890766620635986,-0.4425048828125,-0.732421875,0.2899169921875
0.2299999,3.2968156337738037,-8.827422142028809,3.1675288677215576,0.1068115234375,-0.5340576171875,0.6103515625
0.2499999,3.28963303565979,-8.808267593383789,3.155557870864868,-0.79345703125,-0.1373291015625,0.30517578125
0.2699999,3.2752678394317627,-8.791508674621582,3.1483752727508545,-0.9918212890625,0.1220703125,0.06103515625
0.28999990000000003,3.2609026432037354,-8.78432559967041,3.160346269607544,-1.03759765625,-0.396728515625,0.4425048828125
0.3099999,3.24414324760437,-8.78193187713623,3.181894063949585,-1.678466796875,-1.3580322265625,0.732421875
0.3299999,3.2393548488616943,-8.78193187713623,3.201047658920288,-1.4495849609375,-2.01416015625,0.244140625
0.34999990000000003,3.246537446975708,-8.793902397155762,3.220201253890991,-1.129150390625,-1.5716552734375,0.579833984375
0.3699999,3.2585084438323975,-8.808267593383789,3.2297780513763428,-0.2593994140625,-1.0528564453125,1.03759765625
0.3899999,3.270479440689087,-8.829815864562988,3.227383852005005,-0.3204345703125,-1.739501953125,0.7171630859375
0.40999990000000003,3.2752678394317627,-8.858546257019043,3.222595453262329,-1.861572265625,-2.5177001953125,-0.1220703125
0.4299999,3.2776620388031006,-8.892065048217773,3.2082302570343018,-1.8768310546875,-2.685546875,-0.335693359375
0.4499999,3.2824504375457764,-8.923190116882324,3.19865345954895,-0.48828125,-1.556396484375,-0.457763671875
0.4699999,3.292027235031128,-8.944737434387207,3.1890766620635986,0.152587890625,-1.6632080078125,-0.79345703125
0.4899999,3.2992098331451416,-8.951920509338379,3.1747114658355713,0.4730224609375,-1.9378662109375,-1.068115234375
0.5099999,3.3039982318878174,-8.944737434387207,3.162740468978882,0.274658203125,-1.312255859375,-1.15966796875
0.5299999,3.2992098331451416,-8.916007041931152,3.1459810733795166,-0.274658203125,-0.6256103515625,-1.4801025390625
0.5499999,3.294421434402466,-8.880094528198242,3.138798475265503,-0.7781982421875,-0.7781982421875,-1.2664794921875
0.5699999,3.2848446369171143,-8.83699893951416,3.141192674636841,-0.701904296875,-1.007080078125,-1.068115234375
0.5899998999999999,3.2776620388031006,-8.793902397155762,3.1507694721221924,0.7781982421875,-0.823974609375,-1.15966796875
0.6099998999999999,3.272873640060425,-8.760383605957031,3.1651346683502197,0.4425048828125,-0.9613037109375,-0.7171630859375
0.6299999,3.268085241317749,-8.736441612243652,3.1747114658355713,-0.457763671875,-1.6021728515625,-0.5950927734375
0.6499999,3.270479440689087,-8.734047889709473,3.181894063949585,-1.6632080078125,-1.922607421875,-0.42724609375
0.6699999,3.272873640060425,-8.7484130859375,3.181894063949585,-1.0986328125,-2.2430419921875,-0.732421875
0.6899999,3.2824504375457764,-8.78193187713623,3.1723172664642334,-0.9765625,-2.471923828125,-0.79345703125
0.7099999,3.292027235031128,-8.820239067077637,3.160346269607544,-1.4495849609375,-1.9683837890625,-0.732421875
0.7299998999999999,3.3016040325164795,-8.848969459533691,3.1435868740081787,-0.3204345703125,-1.861572265625,-0.579833984375
0.7499998999999999,3.3063924312591553,-8.87051773071289,3.1316158771514893,0.1373291015625,-1.2359619140625,-0.3509521484375
0.7699999,3.3063924312591553,-8.877699851989746,3.1244332790374756,0.0152587890625,-0.9918212890625,-0.4730224609375
0.7899999,3.3039982318878174,-8.875306129455566,3.1244332790374756,-0.1068115234375,-1.251220703125,-0.5340576171875
0.8099999,3.2992098331451416,-8.863334655761719,3.1268274784088135,0.3509521484375,-1.28173828125,-1.068115234375
0.8299999,3.2968156337738037,-8.848969459533691,3.134010076522827,-0.3204345703125,-1.6021728515625,-0.8392333984375
0.8499998999999999,3.2992098331451416,-8.83699893951416,3.141192674636841,-1.5106201171875,-1.861572265625,-0.579833984375
0.8699998999999999,3.3039982318878174,-8.827422142028809,3.1483752727508545,-0.6103515625,-1.40380859375,-0.8544921875
0.8899999,3.313575267791748,-8.822632789611816,3.1459810733795166,1.5106201171875,-0.8392333984375,-0.701904296875
0.9099999,3.3207578659057617,-8.820239067077637,3.1459810733795166,1.434326171875,-1.0223388671875,-0.5645751953125
0.9299999,3.318363666534424,-8.813055992126465,3.138798475265503,0.30517578125,-0.9918212890625,-0.885009765625
0.9499999,3.315969467163086,-8.80587387084961,3.1316158771514893,-0.823974609375,-1.1138916015625,-0.640869140625
0.9699998999999999,3.308786630630493,-8.796297073364258,3.1268274784088135,-1.2969970703125,-1.4801025390625,-0.5645751953125
0.9899998999999999,3.3039982318878174,-8.78193187713623,3.1244332790374756,-1.1444091796875,-1.52587890625,-0.335693359375
1.0099999,3.2968156337738037,-8.769960403442383,3.1268274784088135,-0.8087158203125,-1.2969970703125,0.1220703125
1.0299999,3.2968156337738037,-8.755595207214355,3.1316158771514893,-0.5035400390625,-1.2664794921875,0.091552734375
1.0499999,3.2992098331451416,-8.746018409729004,3.141192674636841,-0.06103515625,-1.3275146484375,0.396728515625
1.0699999,3.2992098331451416,-8.75080680847168,3.160346269607544,-0.885009765625,-2.0599365234375,0.4730224609375
1.0899999,3.3016040325164795,-8.769960403442383,3.1723172664642334,-1.7242431640625,-3.5247802734375,0.3204345703125
1.1099999,3.31118106842041,-8.813055992126465,3.1747114658355713,-2.6702880859375,-4.2572021484375,0.2899169921875
1.1299999,3.315969467163086,-8.853757858276367,3.1531636714935303,-0.946044921875,-2.4871826171875,-0.2593994140625
1.1499999,3.335123062133789,-8.904036521911621,3.1292216777801514,-0.8697509765625,-1.8463134765625,-0.0152587890625
1.1699998999999999,3.3446998596191406,-8.93037223815918,3.090914487838745,0.4119873046875,-1.40380859375,-0.5340576171875
1.1899998999999999,3.35667085647583,-8.932766914367676,3.0597896575927734,0.579833984375,-0.8087158203125,-0.5340576171875
1.2099999,3.35667085647583,-8.916007041931152,3.047818660736084,-0.9002685546875,-0.0152587890625,-0.4425048828125
1.2299999,3.3470940589904785,-8.882488250732422,3.045424461364746,1.0528564453125,0.0762939453125,-0.3204345703125
1.2499999,3.332728862762451,-8.848969459533691,3.0621838569641113,1.3275146484375,-0.3662109375,-0.2288818359375
1.2699999,3.315969467163086,-8.810662269592285,3.0885202884674072,0.213623046875,-0.640869140625,-0.9918212890625
1.2899999,3.3063924312591553,-8.786720275878906,3.112462282180786,-0.91552734375,-1.0833740234375,-0.2593994140625
1.3099999,3.3063924312591553,-8.774748802185059,3.134010076522827,-1.03759765625,-0.9307861328125,0.1220703125
1.3299999,3.308786630630493,-8.779537200927734,3.1435868740081787,0.244140625,-0.9002685546875,-0.06103515625
1.3499999,3.313575267791748,-8.798690795898438,3.1483752727508545,0.0762939453125,-0.9918212890625,-0.18310546875
1.3699999,3.318363666534424,-8.825027465820312,3.1459810733795166,-0.42724609375,-1.7242431640625,-0.3509521484375
1.3899999,3.318363666534424,-8.846575736999512,3.138798475265503,-0.30517578125,-1.9073486328125,-0.244140625
1.4099999,3.318363666534424,-8.860940933227539,3.1268274784088135,-0.396728515625,-1.9378662109375,-0.54931640625
1.4299998999999999,3.3207578659057617,-8.865729331970215,3.117250680923462,-0.5950927734375,-1.8310546875,-0.5950927734375
1.4499999,3.3231520652770996,-8.856152534484863,3.1028854846954346,-0.1678466796875,-1.4495849609375,-0.5645751953125
1.4699999,3.3255462646484375,-8.83699893951416,3.093308687210083,-0.6103515625,-1.5716552734375,-0.244140625
1.4899999,3.3255462646484375,-8.810662269592285,3.0861260890960693,-0.0762939453125,-1.46484375,-0.0762939453125
1.5099999,3.3231520652770996,-8.789113998413086,3.0885202884674072,0.06103515625,-1.28173828125,0.0457763671875
1.5299999,3.3207578659057617,-8.774748802185059,3.093308687210083,0.1068115234375,-1.8463134765625,0.1678466796875
1.5499999,3.318363666534424,-8.78193187713623,3.1028854846954346,-0.701904296875,-2.2430419921875,0.1983642578125
1.5699999,3.318363666534424,-8.796297073364258,3.1076738834381104,-1.2969970703125,-2.2735595703125,-0.091552734375
1.5899999,3.3255462646484375,-8.825027465820312,3.1052796840667725,-1.9073486328125,-2.5787353515625,-0.091552734375
1.6099999,3.337517261505127,-8.856152534484863,3.1028854846954346,-1.89208984375,-2.0599365234375,-0.06103515625
1.6299999,3.3446998596191406,-8.875306129455566,3.0885202884674072,1.4190673828125,-0.91552734375,-0.213623046875
1.6499999,3.354276657104492,-8.882488250732422,3.0837318897247314,0.8087158203125,-0.7781982421875,0.1678466796875
1.6699999,3.3494882583618164,-8.868123054504395,3.07415509223938,0.3204345703125,-0.518798828125,-0.1068115234375
1.6899998999999999,3.3423056602478027,-8.851364135742188,3.069366693496704,0.1373291015625,-0.701904296875,0.2899169921875
1.7099999,3.3279404640197754,-8.832210540771484,3.066972494125366,-0.5645751953125,-0.762939453125,-0.0762939453125
1.7299999,3.315969467163086,-8.820239067077637,3.071760892868042,-0.1983642578125,-0.6256103515625,-0.3814697265625
1.7499999,3.3063924312591553,-8.808267593383789,3.0789434909820557,0.6256103515625,-0.823974609375,0.06103515625
1.7699999,3.3016040325164795,-8.796297073364258,3.095702886581421,-0.3204345703125,-1.068115234375,0.4730224609375
1.7899999,3.3016040325164795,-8.78432559967041,3.114856481552124,-0.6103515625,-1.495361328125,0.7171630859375
1.8099999,3.2992098331451416,-8.777143478393555,3.1316158771514893,-1.52587890625,-2.3956298828125,0.5950927734375
1.8299999,3.2968156337738037,-8.789113998413086,3.141192674636841,-2.532958984375,-3.60107421875,0.48828125
1.8499999,3.2968156337738037,-8.813055992126465,3.1435868740081787,-2.2125244140625,-4.241943359375,0.7781982421875
1.8699999,3.3016040325164795,-8.848969459533691,3.1244332790374756,-1.4495849609375,-4.058837890625,0.8087158203125
1.8899999,3.313575267791748,-8.882488250732422,3.095702886581421,-0.274658203125,-2.9754638671875,0.2593994140625
1.9099999,3.3279404640197754,-8.9064302444458,3.0621838569641113,-0.396728515625,-2.50244140625,0.0152587890625
1.9299998999999999,3.337517261505127,-8.913613319396973,3.0310592651367188,-0.885009765625,-2.197265625,-0.2288818359375
1.9499999,3.3446998596191406,-8.904036521911621,3.0142998695373535,-0.7781982421875,-1.7242431640625,-0.0762939453125
1.9699999,3.3470940589904785,-8.884882926940918,3.0095114707946777,-0.0457763671875,-1.220703125,-0.030517578125
1.9899999,3.3470940589904785,-8.860940933227539,3.0142998695373535,0.2593994140625,-0.5950927734375,-0.0457763671875
2.0099999,3.3446998596191406,-8.846575736999512,3.028665065765381,0.152587890625,-0.6256103515625,0.4119873046875
2.0299999,3.339911460876465,-8.83699893951416,3.043030261993408,0.213623046875,-0.5340576171875,0.457763671875
2.0499999,3.335123062133789,-8.846575736999512,3.0573954582214355,-0.6103515625,-0.54931640625,0.1373291015625
2.0699999,3.3303346633911133,-8.858546257019043,3.066972494125366,-0.2288818359375,-0.3662109375,-0.06103515625
2.0899999,3.3207578659057617,-8.877699851989746,3.0789434909820557,0.3204345703125,-0.2288818359375,-0.0152587890625
2.1099999,3.31118106842041,-8.884882926940918,3.0837318897247314,0.9918212890625,-0.9307861328125,-0.152587890625
2.1299999,3.2992098331451416,-8.880094528198242,3.0837318897247314,0.5950927734375,-1.46484375,-0.244140625
2.1499999,3.2968156337738037,-8.863334655761719,3.0765492916107178,-0.9613037109375,-1.434326171875,-0.3509521484375
2.1699999,3.2968156337738037,-8.827422142028809,3.064578056335449,-0.5950927734375,-1.0528564453125,-0.1373291015625
2.1899999,3.2992098331451416,-8.786720275878906,3.0621838569641113,-0.1373291015625,-0.54931640625,0.6256103515625
2.2099999,3.2992098331451416,-8.7484130859375,3.0550012588500977,-1.220703125,-1.1749267578125,1.4190673828125
2.2299999,3.294421434402466,-8.731653213500977,3.050212860107422,-1.5411376953125,-1.7547607421875,1.4801025390625
2.2499999,3.287238836288452,-8.746018409729004,3.0406360626220703,-0.4730224609375,-1.617431640625,1.6937255859375
2.2699999,3.287238836288452,-8.793902397155762,3.028665065765381,-0.3509521484375,-0.91552734375,1.9378662109375
2.2899999,3.292027235031128,-8.860940933227539,3.0190882682800293,-0.8087158203125,-0.5645751953125,1.3885498046875
2.3099999,3.2992098331451416,-8.925583839416504,3.0190882682800293,-1.0223388671875,-0.0457763671875,1.0528564453125
2.3299999,3.31118106842041,-8.978256225585938,3.023876667022705,0.030517578125,0.2593994140625,0.48828125
2.3499999,3.315969467163086,-9.009381294250488,3.0334534645080566,0.7781982421875,0.4730224609375,0.030517578125
2.3699999,3.315969467163086,-9.016563415527344,3.047818660736084,0.4425048828125,0.91552734375,-0.3814697265625
2.3899999,3.3039982318878174,-9.002198219299316,3.064578056335449,0.0457763671875,0.8697509765625,-0.4730224609375
2.4099999,3.287238836288452,-8.968679428100586,3.0789434909820557,1.2359619140625,0.213623046875,-0.2288818359375
2.4299999,3.268085241317749,-8.93037223815918,3.090914487838745,0.5950927734375,-0.0152587890625,-0.4425048828125
2.4499999,3.2537200450897217,-8.892065048217773,3.098097085952759,0.6561279296875,-0.3662109375,-0.579833984375
2.4699999,3.2417490482330322,-8.851364135742188,3.098097085952759,1.6326904296875,-0.4425048828125,-0.7171630859375
2.4899999,3.2297780513763428,-8.810662269592285,3.098097085952759,0.7171630859375,-0.8697509765625,-0.457763671875
2.5099999,3.224989652633667,-8.767566680908203,3.093308687210083,-0.5950927734375,-1.6632080078125,-0.1068115234375
2.5299999,3.222595453262329,-8.719682693481445,3.093308687210083,-1.6632080078125,-2.227783203125,0.18310546875
2.5499999,3.227383852005005,-8.695740699768066,3.093308687210083,-1.3580322265625,-2.2125244140625,1.2664794921875
2.5699999,3.2369606494903564,-8.707711219787598,3.093308687210083,-0.640869140625,-2.7008056640625,1.9989013671875
2.5899999,3.24414324760437,-8.7484130859375,3.0861260890960693,-0.54931640625,-3.11279296875,1.89208984375
2.6099999,3.2537200450897217,-8.813055992126465,3.0621838569641113,-0.9918212890625,-2.9296875,1.434326171875
2.6299999,3.2609026432037354,-8.884882926940918,3.0310592651367188,-1.89208984375,-2.0294189453125,1.5716552734375
2.6499999,3.272873640060425,-8.939949035644531,2.9975404739379883,-1.861572265625,-0.9613037109375,1.3580322265625
2.6699999,3.2848446369171143,-8.973467826843262,2.978386878967285,-0.7171630859375,0.42724609375,1.007080078125
2.6899999,3.28963303565979,-8.980650901794434,2.978386878967285,0.5340576171875,1.2054443359375,1.1444091796875
2.7099999,3.268085241317749,-8.966285705566406,2.9975404739379883,0.3814697265625,0.9765625,0.4425048828125
2.7299999,3.2417490482330322,-8.932766914367676,3.0334534645080566,0.3814697265625,0.4730224609375,0.79345703125
2.7499999,3.2082302570343018,-8.89685344696045,3.069366693496704,-0.7171630859375,-1.3580322265625,1.03759765625
2.7699999,3.1866824626922607,-8.860940933227539,3.090914487838745,-1.3275146484375,-1.89208984375,0.9307861328125
2.7899999,3.181894063949585,-8.846575736999512,3.1004912853240967,-0.885009765625,-0.8392333984375,1.46484375
2.8099999,3.1914708614349365,-8.858546257019043,3.1052796840667725,0.30517578125,-0.5035400390625,1.3885498046875
2.8299999,3.201047658920288,-8.913613319396973,3.098097085952759,2.01416015625,-1.0833740234375,1.4801025390625
2.8499999,3.220201253890991,-9.002198219299316,3.095702886581421,0.732421875,-1.8157958984375,0.335693359375
2.8699999,3.2393548488616943,-9.100360870361328,3.0861260890960693,0.0152587890625,-0.7781982421875,-1.6021728515625
2.8899999,3.270479440689087,-9.174580574035645,3.07415509223938,1.861572265625,0.762939453125,-2.38037109375
2.9099999,3.2824504375457764,-9.191340446472168,3.0621838569641113,3.143310546875,1.1749267578125,-3.387451171875
2.9299999,3.287238836288452,-9.138668060302734,3.0597896575927734,1.8310546875,1.0986328125,-3.7841796875
2.9499999,3.270479440689087,-9.038111686706543,3.0526070594787598,0.732421875,0.152587890625,-2.593994140625
2.9699999,3.248931646347046,-8.916007041931152,3.047818660736084,-0.7171630859375,-3.4332275390625,-3.0059814453125
2.9899999,3.227383852005005,-8.813055992126465,3.0382418632507324,-0.1983642578125,-2.2125244140625,-3.84521484375
3.0099999,3.2130186557769775,-8.746018409729004,3.0310592651367188,1.7852783203125,2.50244140625,-1.5869140625
3.0299999,3.2178070545196533,-8.724471092224121,3.023876667022705,1.678466796875,2.01416015625,-0.1220703125
3.0499999,3.220201253890991,-8.734047889709473,3.021482467651367,0.1373291015625,-0.9002685546875,-1.5869140625
3.0699999,3.2345664501190186,-8.760383605957031,3.026270866394043,-0.4425048828125,-1.2664794921875,-2.74658203125
3.0899999,3.2537200450897217,-8.791508674621582,3.0382418632507324,-0.030517578125,1.1749267578125,-1.129150390625
3.1099999,3.265691041946411,-8.810662269592285,3.0621838569641113,1.5716552734375,2.9144287109375,-0.1678466796875
3.1299999,3.2776620388031006,-8.810662269592285,3.095702886581421,2.2735595703125,1.3275146484375,-0.701904296875
3.1499999,3.2824504375457764,-8.798690795898438,3.138798475265503,1.3427734375,-0.091552734375,-0.9918212890625
3.1699999,3.270479440689087,-8.779537200927734,3.177105665206909,0,0.5645751953125,-0.2593994140625
3.1899999,3.24414324760437,-8.767566680908203,3.2082302570343018,-1.220703125,-0.244140625,0.2899169921875
3.2099999,3.2082302570343018,-8.757989883422852,3.227383852005005,0.0762939453125,-1.190185546875,0.244140625
3.2299999,3.1675288677215576,-8.769960403442383,3.246537446975708,0.67138671875,-0.7171630859375,0.9307861328125
3.2499999,3.1483752727508545,-8.801085472106934,3.268085241317749,0.48828125,-1.953125,0.9002685546875
3.2699999,3.162740468978882,-8.856152534484863,3.272873640060425,0.030517578125,-4.241943359375,0.2288818359375
3.2899999,3.205836057662964,-8.918401718139648,3.2632968425750732,-0.3662109375,-4.150390625,-0.8544921875
3.3099999,3.2609026432037354,-8.968679428100586,3.222595453262329,1.4801025390625,-2.01416015625,-1.373291015625
3.3299999000000002,3.3063924312591553,-8.98543930053711,3.1651346683502197,1.4190673828125,-1.6326904296875,-0.91552734375
3.3499999,3.315969467163086,-8.956708908081055,3.1028854846954346,0.0762939453125,-1.4190673828125,-1.03759765625
3.3699999,3.3016040325164795,-8.89685344696045,3.0573954582214355,-0.5950927734375,-0.8697509765625,-0.7781982421875
3.3899999,3.270479440689087,-8.834604263305664,3.0358476638793945,-1.3885498046875,-0.67138671875,-0.244140625
3.4099999,3.246537446975708,-8.789113998413086,3.0382418632507324,-1.40380859375,-0.9613037109375,0
3.4299999,3.2321722507476807,-8.765172004699707,3.0573954582214355,-0.3204345703125,-1.1444091796875,-0.0457763671875
3.4499999,3.2297780513763428,-8.762778282165527,3.093308687210083,-0.54931640625,-1.03759765625,-0.030517578125
3.4699999,3.2393548488616943,-8.774748802185059,3.1316158771514893,-1.8157958984375,-1.251220703125,0.2288818359375
3.4899999,3.246537446975708,-8.793902397155762,3.1651346683502197,-1.953125,-1.9073486328125,0.274658203125
3.5099999,3.2585084438323975,-8.81784439086914,3.1866824626922607,-1.953125,-2.716064453125,0.1678466796875
3.5299999,3.270479440689087,-8.841787338256836,3.1866824626922607,-0.9307861328125,-2.7313232421875,0.1068115234375
3.5499999,3.2776620388031006,-8.860940933227539,3.1651346683502197,-0.0152587890625,-1.953125,0.1220703125
3.5699999,3.2848446369171143,-8.87051773071289,3.1268274784088135,-0.3204345703125,-1.6632080078125,0.3204345703125
3.5899999,3.2800562381744385,-8.87051773071289,3.090914487838745,-1.4190673828125,-1.28173828125,0.18310546875
3.6099999,3.270479440689087,-8.863334655761719,3.064578056335449,-0.9307861328125,-1.3427734375,0.54931640625
3.6299999,3.2585084438323975,-8.858546257019043,3.0597896575927734,-0.8392333984375,-1.4495849609375,0.7781982421875
3.6499999,3.24414324760437,-8.846575736999512,3.066972494125366,-0.8544921875,-1.4801025390625,0.3814697265625
3.6699999,3.2345664501190186,-8.841787338256836,3.0861260890960693,-1.7242431640625,-2.4261474609375,0.79345703125
3.6899999,3.2178070545196533,-8.841787338256836,3.1100680828094482,-1.495361328125,-2.86865234375,1.2054443359375
3.7099999,3.2154128551483154,-8.851364135742188,3.134010076522827,1.678466796875,-0.9918212890625,1.220703125
3.7299999,3.2106244564056396,-8.875306129455566,3.1459810733795166,2.8839111328125,0.579833984375,1.1138916015625
3.7499999,3.224989652633667,-8.901641845703125,3.1435868740081787,-0.1373291015625,-2.410888671875,0.457763671875
3.7699999,3.2417490482330322,-8.923190116882324,3.1196448802948,-1.678466796875,-3.3721923828125,0.091552734375
3.7899999,3.265691041946411,-8.944737434387207,3.0813376903533936,0.1983642578125,-0.946044921875,0.1678466796875
3.8099999,3.2824504375457764,-8.947132110595703,3.0406360626220703,0.06103515625,-0.1220703125,-0.396728515625
3.8299999000000002,3.28963303565979,-8.939949035644531,3.0166940689086914,-0.7476806640625,-0.3509521484375,-0.67138671875
3.8499999,3.28963303565979,-8.913613319396973,3.0095114707946777,0.2288818359375,0.091552734375,-0.30517578125
3.8699999,3.2752678394317627,-8.877699851989746,3.021482467651367,1.0528564453125,0.3662109375,0.1983642578125
3.8899999,3.2561142444610596,-8.83699893951416,3.047818660736084,0.6866455078125,0.4119873046875,0.67138671875
3.9099999,3.2297780513763428,-8.798690795898438,3.07415509223938,0.18310546875,0.1220703125,0.701904296875
3.9299999,3.2082302570343018,-8.774748802185059,3.098097085952759,-0.3814697265625,-0.67138671875,0.701904296875
3.9499999,3.1866824626922607,-8.772355079650879,3.1100680828094482,0.1983642578125,-0.946044921875,1.2359619140625
3.9699999,3.1747114658355713,-8.793902397155762,3.1100680828094482,-0.5950927734375,-1.190185546875,1.28173828125
3.9899999,3.1699230670928955,-8.834604263305664,3.1004912853240967,-2.1514892578125,-1.40380859375,0.6103515625
4.0099999,3.1747114658355713,-8.875306129455566,3.0861260890960693,-1.40380859375,-1.495361328125,0.6103515625
4.029999900000001,3.1890766620635986,-8.9064302444458,3.0789434909820557,-0.3204345703125,-0.396728515625,0.79345703125
4.0499999,3.201047658920288,-8.918401718139648,3.0885202884674072,0.0152587890625,0.1678466796875,0.5645751953125
4.069999900000001,3.2082302570343018,-8.916007041931152,3.1100680828094482,-0.274658203125,-1.2359619140625,0.701904296875
4.0899999000000005,3.203441858291626,-8.911218643188477,3.134010076522827,-1.2969970703125,-2.8228759765625,0.6256103515625
4.1099999,3.1938650608062744,-8.908824920654297,3.1531636714935303,-2.25830078125,-3.2958984375,0.3662109375
4.1299999000000005,3.1866824626922607,-8.911218643188477,3.1459810733795166,-0.5340576171875,-2.9449462890625,0.152587890625
4.1499999,3.1866824626922607,-8.913613319396973,3.114856481552124,0.152587890625,-2.471923828125,0.457763671875
4.1699999000000005,3.1938650608062744,-8.911218643188477,3.0765492916107178,-0.396728515625,-0.6561279296875,0.42724609375
4.1899999,3.1938650608062744,-8.904036521911621,3.0382418632507324,-1.0833740234375,-0.4425048828125,0.48828125
4.209999900000001,3.1962592601776123,-8.89685344696045,3.0095114707946777,-1.708984375,-1.6326904296875,0.7171630859375
4.2299999,3.203441858291626,-8.889671325683594,2.9975404739379883,-1.0986328125,-0.9002685546875,0.7476806640625
4.249999900000001,3.2154128551483154,-8.889671325683594,2.9975404739379883,-0.79345703125,-0.1220703125,1.03759765625
4.2699999,3.227383852005005,-8.887276649475098,3.0190882682800293,-0.7171630859375,0.91552734375,1.2664794921875
4.289999900000001,3.222595453262329,-8.887276649475098,3.050212860107422,0.0457763671875,0.6103515625,0.6866455078125
4.3099999,3.203441858291626,-8.889671325683594,3.093308687210083,0.4425048828125,-0.3814697265625,0.6103515625
4.329999900000001,3.1747114658355713,-8.89685344696045,3.1220390796661377,-0.0152587890625,-1.861572265625,0.4730224609375
4.3499999,3.155557870864868,-8.913613319396973,3.134010076522827,-1.2969970703125,-2.4566650390625,0.518798828125
4.369999900000001,3.1483752727508545,-8.935160636901855,3.1196448802948,-1.15966796875,-1.64794921875,0.213623046875
4.3899999,3.155557870864868,-8.954314231872559,3.090914487838745,0.9765625,-1.129150390625,-0.18310546875
4.409999900000001,3.1651346683502197,-8.966285705566406,3.0621838569641113,1.007080078125,-1.220703125,-0.0152587890625
4.4299999,3.1699230670928955,-8.966285705566406,3.043030261993408,-0.213623046875,-0.8392333984375,-0.274658203125
4.449999900000001,3.1723172664642334,-8.951920509338379,3.0358476638793945,0.48828125,-0.7781982421875,-0.4425048828125
4.4699999,3.1675288677215576,-8.939949035644531,3.045424461364746,-0.0457763671875,-1.28173828125,-0.457763671875
4.489999900000001,3.1651346683502197,-8.923190116882324,3.0573954582214355,0.457763671875,-1.5869140625,-0.5645751953125
4.5099999,3.1651346683502197,-8.918401718139648,3.0765492916107178,0.701904296875,-1.800537109375,-0.2899169921875
4.529999900000001,3.1699230670928955,-8.916007041931152,3.0885202884674072,0.457763671875,-1.678466796875,-0.732421875
4.5499999,3.1723172664642334,-8.911218643188477,3.090914487838745,1.52587890625,-1.1444091796875,-0.7171630859375
4.569999900000001,3.1723172664642334,-8.89685344696045,3.0861260890960693,0.5950927734375,-1.617431640625,-0.6866455078125
4.5899999000000005,3.1651346683502197,-8.87051773071289,3.07415509223938,-0.701904296875,-2.0751953125,-0.0152587890625
4.609999900000001,3.1531636714935303,-8.846575736999512,3.0621838569641113,-0.946044921875,-1.9378662109375,0.3662109375
4.6299999000000005,3.1459810733795166,-8.829815864562988,3.0573954582214355,-1.373291015625,-2.4566650390625,0.1373291015625
4.6499999,3.136404275894165,-8.83699893951416,3.0573954582214355,-1.617431640625,-3.0364990234375,0.6256103515625
4.6699999000000005,3.1459810733795166,-8.860940933227539,3.064578056335449,-0.48828125,-2.197265625,0.885009765625
4.6899999,3.155557870864868,-8.887276649475098,3.07415509223938,1.2969970703125,-0.4425048828125,0.091552734375
4.709999900000001,3.177105665206909,-8.918401718139648,3.0885202884674072,0.48828125,-2.01416015625,-0.1068115234375
4.7299999,3.1962592601776123,-8.937555313110352,3.1052796840667725,-1.1444091796875,-2.4566650390625,-0.2593994140625
4.749999900000001,3.2082302570343018,-8.947132110595703,3.112462282180786,-0.6561279296875,-1.7852783203125,-0.0152587890625
4.7699999,3.2154128551483154,-8.947132110595703,3.112462282180786,0.18310546875,-2.0599365234375,-0.518798828125
4.789999900000001,3.2106244564056396,-8.944737434387207,3.090914487838745,-0.030517578125,-2.3651123046875,-0.6866455078125
4.8099999,3.1914708614349365,-8.932766914367676,3.064578056335449,0.1220703125,-2.227783203125,-0.457763671875
4.829999900000001,3.1675288677215576,-8.908824920654297,3.0310592651367188,1.4190673828125,-1.617431640625,-0.274658203125
4.8499999,3.1483752727508545,-8.887276649475098,3.0142998695373535,0.54931640625,-1.556396484375,0.5950927734375
4.869999900000001,3.1459810733795166,-8.87051773071289,3.0142998695373535,-0.4425048828125,-1.6326904296875,0.7476806640625
4.8899999,3.162740468978882,-8.868123054504395,3.021482467651367,0.8697509765625,-1.617431640625,0.5340576171875
4.909999900000001,3.179499864578247,-8.882488250732422,3.0334534645080566,0.91552734375,-1.617431640625,0.1220703125
4.9299999,3.1866824626922607,-8.892065048217773,3.0358476638793945,0.8544921875,-1.312255859375,0.2288818359375
4.949999900000001,3.184288263320923,-8.904036521911621,3.0334534645080566,0.6866455078125,-1.6632080078125,0.7781982421875
4.9699999,3.177105665206909,-8.908824920654297,3.0310592651367188,-0.0762939453125,-1.617431640625,0.6561279296875
4.989999900000001,3.1699230670928955,-8.923190116882324,3.0310592651367188,-0.274658203125,-0.9613037109375,0.42724609375
5.0099999,3.162740468978882,-8.935160636901855,3.0382418632507324,0.091552734375,-0.8087158203125,-0.2593994140625
5.029999900000001,3.157952070236206,-8.939949035644531,3.0526070594787598,0.030517578125,-1.251220703125,-0.30517578125
5.0499999,3.157952070236206,-8.932766914367676,3.069366693496704,-1.068115234375,-2.6702880859375,-0.1068115234375
5.069999900000001,3.162740468978882,-8.920795440673828,3.090914487838745,-0.7781982421875,-2.1514892578125,0.152587890625
5.0899999000000005,3.177105665206909,-8.913613319396973,3.1076738834381104,1.068115234375,-0.67138671875,0.30517578125
5.109999900000001,3.184288263320923,-8.918401718139648,3.114856481552124,-0.152587890625,-1.1444091796875,-0.3662109375
5.1299999000000005,3.179499864578247,-8.93037223815918,3.117250680923462,-1.1749267578125,-2.2735595703125,-0.67138671875
5.1499999,3.160346269607544,-8.937555313110352,3.1028854846954346,0.3204345703125,-3.4942626953125,-0.5035400390625
5.1699999000000005,3.1459810733795166,-8.947132110595703,3.0837318897247314,0.3509521484375,-1.7242431640625,-0.4425048828125
5.1899999,3.1435868740081787,-8.956708908081055,3.0550012588500977,0.213623046875,-1.1138916015625,-0.732421875
5.209999900000001,3.1531636714935303,-8.954314231872559,3.0310592651367188,0.0762939453125,-2.01416015625,-1.1138916015625
5.2299999,3.1699230670928955,-8.939949035644531,3.0142998695373535,1.312255859375,-1.2359619140625,-0.5340576171875
5.249999900000001,3.184288263320923,-8.911218643188477,3.00711727142334,0.640869140625,-1.3275146484375,-0.18310546875
5.2699999,3.1890766620635986,-8.875306129455566,3.00711727142334,0.1220703125,-1.3427734375,-0.2288818359375
5.289999900000001,3.1866824626922607,-8.851364135742188,3.0190882682800293,0.335693359375,-1.0986328125,0.244140625
5.3099999,3.179499864578247,-8.83939266204834,3.0382418632507324,1.2969970703125,-1.0223388671875,0.3814697265625
5.329999900000001,3.1651346683502197,-8.848969459533691,3.0621838569641113,1.0223388671875,-1.3275146484375,0.2899169921875
5.3499999,3.157952070236206,-8.865729331970215,3.0837318897247314,-0.732421875,-1.2969970703125,0.1678466796875
5.369999900000001,3.1507694721221924,-8.884882926940918,3.095702886581421,-1.89208984375,-1.6937255859375,0.3509521484375
5.3899999,3.1531636714935303,-8.901641845703125,3.095702886581421,-0.4425048828125,-2.0599365234375,0.2593994140625
5.409999900000001,3.162740468978882,-8.9064302444458,3.0837318897247314,0.9307861328125,-1.068115234375,0.5340576171875
5.4299999,3.1747114658355713,-8.911218643188477,3.071760892868042,0.2593994140625,-0.91552734375,0.3662109375
5.449999900000001,3.181894063949585,-8.908824920654297,3.0550012588500977,0.2593994140625,-1.15966796875,0.1678466796875
5.4699999,3.181894063949585,-8.904036521911621,3.045424461364746,-0.1983642578125,-1.52587890625,0.2899169921875
5.489999900000001,3.179499864578247,-8.904036521911621,3.050212860107422,-1.0986328125,-1.2969970703125,0.2593994140625
5.5099999,3.1723172664642334,-8.89685344696045,3.0526070594787598,0.67138671875,-1.0223388671875,0.518798828125
5.529999900000001,3.1699230670928955,-8.892065048217773,3.064578056335449,1.3275146484375,-1.0986328125,0.6103515625
5.5499999,3.1651346683502197,-8.89445972442627,3.0765492916107178,-0.640869140625,-1.15966796875,0.42724609375
5.569999900000001,3.160346269607544,-8.9064302444458,3.07415509223938,-1.0223388671875,-1.556396484375,0.3662109375
5.5899999000000005,3.1531636714935303,-8.923190116882324,3.069366693496704,-0.030517578125,-1.4495849609375,0.1373291015625
5.609999900000001,3.1483752727508545,-8.944737434387207,3.0597896575927734,-0.3662109375,-1.28173828125,0.06103515625
5.6299999000000005,3.1459810733795166,-8.949525833129883,3.0526070594787598,0.5645751953125,-1.2664794921875,-0.1983642578125
5.6499999,3.1483752727508545,-8.949525833129883,3.0526070594787598,-0.152587890625,-1.068115234375,-0.152587890625
5.6699999000000005,3.1531636714935303,-8.937555313110352,3.064578056335449,-0.9002685546875,-1.03759765625,-0.091552734375
5.6899999,3.1531636714935303,-8.920795440673828,3.0789434909820557,-0.335693359375,-1.1749267578125,-0.1373291015625
5.709999900000001,3.1483752727508545,-8.913613319396973,3.093308687210083,-0.54931640625,-2.349853515625,-0.3204345703125
5.7299999,3.1316158771514893,-8.904036521911621,3.1028854846954346,-0.3204345703125,-2.7923583984375,-0.18310546875
5.749999900000001,3.112462282180786,-8.904036521911621,3.1004912853240967,0.518798828125,-0.6561279296875,0.3814697265625
5.7699999,3.1076738834381104,-8.911218643188477,3.093308687210083,-0.9613037109375,-1.9683837890625,0.274658203125
5.789999900000001,3.1196448802948,-8.927978515625,3.0861260890960693,-1.0986328125,-3.0670166015625,-0.30517578125
5.8099999,3.1507694721221924,-8.951920509338379,3.069366693496704,1.1138916015625,-1.800537109375,-0.396728515625
5.829999900000001,3.184288263320923,-8.968679428100586,3.0406360626220703,0.48828125,-1.5869140625,-0.9307861328125
5.8499999,3.203441858291626,-8.978256225585938,3.002328872680664,-0.7171630859375,-1.2054443359375,-1.007080078125
5.869999900000001,3.2082302570343018,-8.966285705566406,2.9712042808532715,0.1220703125,-0.6256103515625,-0.2593994140625
5.8899999,3.201047658920288,-8.944737434387207,2.956839084625244,1.2969970703125,-0.0762939453125,-0.1068115234375
5.909999900000001,3.1866824626922607,-8.913613319396973,2.9664158821105957,1.4801025390625,0.3814697265625,-0.4425048828125
5.9299999,3.1723172664642334,-8.880094528198242,2.9975404739379883,0.30517578125,0.30517578125,-0.579833984375
5.949999900000001,3.160346269607544,-8.844181060791016,3.0358476638793945,-0.030517578125,-0.396728515625,0.2593994140625
5.9699999,3.1459810733795166,-8.81784439086914,3.0789434909820557,-0.1678466796875,-0.7781982421875,0.5340576171875
5.989999900000001,3.1292216777801514,-8.813055992126465,3.112462282180786,0.091552734375,-1.312255859375,0.8697509765625
6.0099999,3.117250680923462,-8.83939266204834,3.1316158771514893,-0.5340576171875,-2.655029296875,0.67138671875
6.029999900000001,3.1076738834381104,-8.892065048217773,3.1268274784088135,-0.4730224609375,-3.4942626953125,-0.0457763671875
6.0499999,3.1196448802948,-8.959102630615234,3.1004912853240967,0.5035400390625,-2.8839111328125,-0.0457763671875
6.069999900000001,3.141192674636841,-9.01895809173584,3.0573954582214355,0.0762939453125,-1.5411376953125,-0.6103515625
6.0899999000000005,3.1723172664642334,-9.05247688293457,3.021482467651367,-0.396728515625,0.2593994140625,-0.8392333984375
6.109999900000001,3.1938650608062744,-9.042900085449219,3.002328872680664,0.42724609375,0.640869140625,-0.9765625
6.1299999000000005,3.1914708614349365,-9.002198219299316,3.0095114707946777,0.3509521484375,-0.1220703125,-1.2969970703125
6.149999900000001,3.181894063949585,-8.947132110595703,3.0310592651367188,0.335693359375,-0.48828125,-0.762939453125
6.1699999000000005,3.160346269607544,-8.89685344696045,3.0573954582214355,1.312255859375,-0.640869140625,-0.396728515625
6.1899999,3.138798475265503,-8.860940933227539,3.07415509223938,0.30517578125,-0.8697509765625,-0.42724609375
6.209999900000001,3.134010076522827,-8.848969459533691,3.0789434909820557,-1.1138916015625,-1.434326171875,-0.1220703125
6.2299999,3.1316158771514893,-8.848969459533691,3.0789434909820557,-0.42724609375,-1.2664794921875,-0.152587890625
6.249999900000001,3.136404275894165,-8.856152534484863,3.07415509223938,1.007080078125,-1.007080078125,0.1068115234375
6.2699999,3.141192674636841,-8.87051773071289,3.064578056335449,0.518798828125,-1.5716552734375,0.2899169921875
6.289999900000001,3.1483752727508545,-8.889671325683594,3.0573954582214355,0.2288818359375,-1.5869140625,0.518798828125
6.3099999,3.155557870864868,-8.908824920654297,3.050212860107422,0.335693359375,-0.5340576171875,0.48828125
6.329999900000001,3.162740468978882,-8.925583839416504,3.050212860107422,0.396728515625,-0.18310546875,-0.1678466796875
6.3499999,3.1699230670928955,-8.920795440673828,3.0526070594787598,1.1749267578125,0.213623046875,0.1983642578125
6.369999900000001,3.1723172664642334,-8.908824920654297,3.064578056335449,0.1068115234375,0.091552734375,0.244140625
6.3899999,3.1675288677215576,-8.887276649475098,3.0837318897247314,-0.0457763671875,0.18310546875,0.274658203125
6.409999900000001,3.1531636714935303,-8.87291145324707,3.1052796840667725,0.48828125,-0.640869140625,0.213623046875
6.4299999,3.138798475265503,-8.863334655761719,3.1220390796661377,-0.457763671875,-1.8310546875,0.030517578125
6.449999900000001,3.1244332790374756,-8.858546257019043,3.136404275894165,-0.823974609375,-1.739501953125,0.579833984375
6.4699999,3.1244332790374756,-8.863334655761719,3.141192674636841,-0.3509521484375,-1.9073486328125,1.007080078125
6.489999900000001,3.1316158771514893,-8.87291145324707,3.136404275894165,0.244140625,-1.922607421875,0.8544921875
6.5099999,3.138798475265503,-8.89685344696045,3.1316158771514893,0.244140625,-1.6632080078125,0.4730224609375
6.529999900000001,3.1483752727508545,-8.920795440673828,3.1196448802948,0.5950927734375,-1.9989013671875,0.5340576171875
6.5499999,3.1531636714935303,-8.944737434387207,3.1100680828094482,0.5035400390625,-1.7547607421875,0.6561279296875
6.569999900000001,3.155557870864868,-8.968679428100586,3.098097085952759,1.2054443359375,-1.1749267578125,0.48828125
6.5899999000000005,3.1531636714935303,-8.98543930053711,3.0837318897247314,2.6702880859375,-0.8392333984375,0.2593994140625
6.609999900000001,3.138798475265503,-8.995016098022461,3.0621838569641113,2.7008056640625,-0.946044921875,0.1678466796875
6.6299999000000005,3.117250680923462,-8.983044624328613,3.0550012588500977,0.5035400390625,-1.312255859375,-0.335693359375
6.649999900000001,3.095702886581421,-8.951920509338379,3.047818660736084,0.0457763671875,-1.800537109375,-0.457763671875
6.6699999000000005,3.0837318897247314,-8.904036521911621,3.0621838569641113,0.335693359375,-1.9989013671875,-0.2288818359375
6.6899999,3.090914487838745,-8.868123054504395,3.090914487838745,-0.1068115234375,-1.7242431640625,0.3509521484375
6.709999900000001,3.1100680828094482,-8.841787338256836,3.1220390796661377,0.732421875,-1.7547607421875,0.2288818359375
6.7299999,3.1268274784088135,-8.841787338256836,3.1459810733795166,0.3204345703125,-1.9378662109375,-0.335693359375
6.749999900000001,3.134010076522827,-8.858546257019043,3.155557870864868,-1.0223388671875,-2.5177001953125,-0.1220703125
6.7699999,3.1268274784088135,-8.877699851989746,3.1483752727508545,-1.6632080078125,-3.143310546875,0.1068115234375
6.789999900000001,3.1220390796661377,-8.899248123168945,3.1268274784088135,-0.7171630859375,-2.7008056640625,0.2593994140625
6.8099999,3.1220390796661377,-8.923190116882324,3.095702886581421,-0.30517578125,-0.8087158203125,0.0457763671875
6.829999900000001,3.1292216777801514,-8.937555313110352,3.064578056335449,0.0152587890625,-1.03759765625,-0.2288818359375
6.8499999,3.1435868740081787,-8.949525833129883,3.0406360626220703,-0.2288818359375,-1.03759765625,-0.1220703125
6.869999900000001,3.1507694721221924,-8.947132110595703,3.0382418632507324,0.091552734375,-0.48828125,-0.3204345703125
6.8899999,3.1459810733795166,-8.932766914367676,3.0573954582214355,0.823974609375,-0.5035400390625,-0.4119873046875
6.909999900000001,3.141192674636841,-8.916007041931152,3.0837318897247314,0.5645751953125,-1.5716552734375,0.030517578125
6.9299999,3.1316158771514893,-8.89445972442627,3.1100680828094482,-0.244140625,-2.13623046875,0.2899169921875
6.949999900000001,3.1244332790374756,-8.882488250732422,3.1292216777801514,0.30517578125,-1.7852783203125,0.30517578125
6.9699999,3.114856481552124,-8.884882926940918,3.141192674636841,0.4119873046875,-1.6326904296875,0.1068115234375
6.989999900000001,3.1052796840667725,-8.889671325683594,3.1507694721221924,0.67138671875,-1.617431640625,0.335693359375
7.0099999,3.098097085952759,-8.901641845703125,3.155557870864868,0.4425048828125,-2.01416015625,0.396728515625
7.029999900000001,3.1004912853240967,-8.911218643188477,3.1435868740081787,0.2288818359375,-2.9754638671875,-0.030517578125
7.0499999,3.1100680828094482,-8.918401718139648,3.117250680923462,0.1068115234375,-2.0904541015625,0.0762939453125
7.069999900000001,3.1196448802948,-8.93037223815918,3.0885202884674072,0.30517578125,-1.434326171875,0.030517578125
7.0899999000000005,3.1268274784088135,-8.942343711853027,3.0597896575927734,1.6632080078125,-1.861572265625,0.1220703125
7.109999900000001,3.1316158771514893,-8.956708908081055,3.047818660736084,2.2430419921875,-1.708984375,-0.244140625
7.1299999000000005,3.134010076522827,-8.954314231872559,3.045424461364746,1.77001953125,-1.2664794921875,-1.373291015625
7.149999900000001,3.1459810733795166,-8.956708908081055,3.0526070594787598,1.2664794921875,-0.9307861328125,-0.946044921875
7.1699999000000005,3.1483752727508545,-8.942343711853027,3.069366693496704,1.2359619140625,-1.2969970703125,-1.2359619140625
7.1899999,3.1435868740081787,-8.920795440673828,3.095702886581421,2.288818359375,-1.5411376953125,-0.8697509765625
7.209999900000001,3.1292216777801514,-8.877699851989746,3.114856481552124,5.7373046875,-0.335693359375,1.03759765625
7.2299999,3.112462282180786,-8.827422142028809,3.1268274784088135,7.38525390625,1.312255859375,3.5247802734375
7.249999900000001,3.1004912853240967,-8.78193187713623,3.136404275894165,6.0272216796875,0.946044921875,3.90625
7.2699999,3.093308687210083,-8.760383605957031,3.138798475265503,4.39453125,-0.030517578125,2.5787353515625
7.289999900000001,3.093308687210083,-8.774748802185059,3.1459810733795166,1.8157958984375,-0.396728515625,1.708984375
7.3099999,3.093308687210083,-8.808267593383789,3.157952070236206,0.79345703125,-0.2593994140625,1.8463134765625
7.329999900000001,3.093308687210083,-8.848969459533691,3.177105665206909,2.288818359375,-0.152587890625,2.1820068359375
7.3499999,3.093308687210083,-8.889671325683594,3.201047658920288,3.1280517578125,0.1678466796875,2.3956298828125
7.369999900000001,3.0885202884674072,-8.918401718139648,3.227383852005005,2.2735595703125,0.79345703125,1.8157958984375
7.3899999,3.0789434909820557,-8.93037223815918,3.248931646347046,1.8157958984375,0.701904296875,1.190185546875
7.409999900000001,3.064578056335449,-8.93037223815918,3.2632968425750732,1.556396484375,-0.2593994140625,1.40380859375
7.4299999,3.0526070594787598,-8.918401718139648,3.2776620388031006,1.2664794921875,-0.579833984375,1.5106201171875
7.449999900000001,3.0406360626220703,-8.908824920654297,3.287238836288452,0.7476806640625,-0.30517578125,1.3427734375
7.4699999,3.0358476638793945,-8.9064302444458,3.294421434402466,0.640869140625,-0.0457763671875,1.129150390625
7.489999900000001,3.0334534645080566,-8.911218643188477,3.2968156337738037,1.77001953125,-0.2899169921875,0.732421875
7.5099999,3.0334534645080566,-8.923190116882324,3.294421434402466,1.9073486328125,-0.4730224609375,0.54931640625
7.529999900000001,3.028665065765381,-8.937555313110352,3.287238836288452,1.89208984375,0.06103515625,0.457763671875
7.5499999,3.021482467651367,-8.944737434387207,3.2824504375457764,2.1514892578125,0.2899169921875,0.1983642578125
7.569999900000001,3.0142998695373535,-8.947132110595703,3.2848446369171143,1.6632080078125,0.0152587890625,0.274658203125
7.5899999000000005,2.999934673309326,-8.932766914367676,3.287238836288452,0.732421875,-0.8087158203125,-0.091552734375
7.609999900000001,2.9903578758239746,-8.918401718139648,3.292027235031128,-0.1068115234375,-1.5869140625,-0.1068115234375
7.6299999000000005,2.9903578758239746,-8.899248123168945,3.292027235031128,1.190185546875,-0.9002685546875,-0.0152587890625
7.649999900000001,3.004723072052002,-8.884882926940918,3.292027235031128,3.1585693359375,0.1983642578125,0.5035400390625
7.6699999000000005,3.026270866394043,-8.877699851989746,3.2968156337738037,4.0435791015625,1.0833740234375,0.5950927734375
7.6899999,3.047818660736084,-8.877699851989746,3.31118106842041,4.730224609375,1.7242431640625,0.9002685546875
7.709999900000001,3.0526070594787598,-8.884882926940918,3.339911460876465,3.9520263671875,1.9989013671875,0.1373291015625
7.7299999,3.0406360626220703,-8.887276649475098,3.383007049560547,4.1351318359375,1.190185546875,0.152587890625
7.749999900000001,3.0166940689086914,-8.877699851989746,3.4356794357299805,4.9285888671875,-0.48828125,0.1220703125
7.7699999,2.9879636764526367,-8.848969459533691,3.4739866256713867,4.08935546875,-2.0751953125,-0.18310546875
7.789999900000001,2.9688100814819336,-8.815450668334961,3.5003228187561035,1.03759765625,-2.25830078125,0.1678466796875
7.8099999,2.96162748336792,-8.789113998413086,3.49314022064209,0.9765625,-2.5787353515625,0.2899169921875
7.829999900000001,2.9759926795959473,-8.786720275878906,3.466804027557373,2.9296875,-2.105712890625,1.0986328125
7.8499999,2.9975404739379883,-8.808267593383789,3.423708438873291,3.7078857421875,-0.579833984375,0.6103515625
7.869999900000001,3.028665065765381,-8.83699893951416,3.3734302520751953,4.94384765625,1.678466796875,0.152587890625
7.8899999,3.0310592651367188,-8.851364135742188,3.3279404640197754,4.5013427734375,2.2430419921875,0.6561279296875
7.909999900000001,3.021482467651367,-8.83939266204834,3.3039982318878174,2.25830078125,-1.251220703125,0.6103515625
7.9299999,2.9759926795959473,-8.791508674621582,3.318363666534424,1.0223388671875,-0.2288818359375,0.4119873046875
7.949999900000001,2.9281086921691895,-8.734047889709473,3.3686418533325195,3.3111572265625,2.9449462890625,2.2735595703125
7.9699999,2.896984100341797,-8.69095230102539,3.4380736351013184,5.1727294921875,1.89208984375,3.936767578125
7.989999900000001,2.8850131034851074,-8.674192428588867,3.512293815612793,5.9814453125,1.28173828125,3.9520263671875
8.0099999,2.889801502227783,-8.700529098510742,3.576937437057495,5.31005859375,2.0904541015625,3.753662109375
8.0299999,2.9017724990844727,-8.753201484680176,3.622427225112915,3.90625,1.251220703125,3.4637451171875
8.049999900000001,2.9065608978271484,-8.815450668334961,3.6511576175689697,3.7689208984375,-0.2288818359375,2.7618408203125
8.069999900000001,2.9017724990844727,-8.87291145324707,3.665522813796997,4.180908203125,-0.7476806640625,1.7852783203125
8.0899999,2.894589900970459,-8.923190116882324,3.6750996112823486,2.471923828125,-0.2288818359375,1.9989013671875
8.1099999,2.8826189041137695,-8.951920509338379,3.6798880100250244,0.6561279296875,-0.8392333984375,0.8544921875
8.129999900000001,2.875436305999756,-8.968679428100586,3.6822822093963623,0.4730224609375,-2.01416015625,-0.701904296875
8.149999900000001,2.8778305053710938,-8.96149730682373,3.6727054119110107,1.8157958984375,-2.0904541015625,-1.068115234375
8.1699999,2.8850131034851074,-8.927978515625,3.6511576175689697,2.3345947265625,-1.2359619140625,-1.1138916015625
8.1899999,2.894589900970459,-8.87291145324707,3.6176388263702393,1.1444091796875,-0.4425048828125,-0.885009765625
8.2099999,2.892195701599121,-8.80587387084961,3.598485231399536,1.3580322265625,0.18310546875,-0.0457763671875
8.229999900000001,2.8874073028564453,-8.755595207214355,3.5889084339141846,2.9449462890625,-0.091552734375,1.0986328125
8.2499999,2.8778305053710938,-8.734047889709473,3.5960910320281982,2.532958984375,-0.4730224609375,0.8697509765625
8.2699999,2.875436305999756,-8.736441612243652,3.6104562282562256,1.861572265625,0.0457763671875,-0.18310546875
8.2899999,2.873042106628418,-8.755595207214355,3.624821424484253,1.7852783203125,0.396728515625,-0.1373291015625
8.309999900000001,2.875436305999756,-8.779537200927734,3.6391866207122803,1.2969970703125,-1.678466796875,0.1983642578125
8.3299999,2.868253707885742,-8.786720275878906,3.6583402156829834,0.6866455078125,-1.2054443359375,-0.3662109375
8.3499999,2.8562827110290527,-8.791508674621582,3.6750996112823486,1.556396484375,0.0457763671875,-0.2899169921875
8.3699999,2.8443117141723633,-8.78432559967041,3.6942532062530518,3.082275390625,-0.244140625,0.640869140625
8.389999900000001,2.8347349166870117,-8.779537200927734,3.7038300037384033,2.7008056640625,-0.8087158203125,1.4190673828125
8.4099999,2.8371291160583496,-8.78193187713623,3.706224203109741,0.701904296875,-0.9613037109375,0.8544921875
8.4299999,2.8419175148010254,-8.78432559967041,3.708618402481079,-0.48828125,-0.5645751953125,-0.6103515625
8.4499999,2.849100112915039,-8.786720275878906,3.7014358043670654,0.9307861328125,-0.6561279296875,-0.54931640625
8.469999900000001,2.849100112915039,-8.78432559967041,3.706224203109741,0.701904296875,-0.6103515625,0.213623046875
8.4899999,2.846705913543701,-8.772355079650879,3.7229835987091064,1.739501953125,-0.8697509765625,0.030517578125
8.5099999,2.8443117141723633,-8.762778282165527,3.734954595565796,6.500244140625,-1.190185546875,1.5869140625
8.5299999,2.8443117141723633,-8.7484130859375,3.7421371936798096,9.9029541015625,-0.396728515625,3.8299560546875
8.549999900000001,2.8443117141723633,-8.736441612243652,3.737348794937134,6.7596435546875,0,2.7008056640625
8.569999900000001,2.8443117141723633,-8.7268648147583,3.7253777980804443,2.6397705078125,0.0152587890625,0.457763671875
8.5899999,2.8371291160583496,-8.724471092224121,3.73016619682312,1.52587890625,0.0762939453125,0.30517578125
8.6099999,2.827552318572998,-8.722076416015625,3.7469255924224854,4.3182373046875,0.396728515625,1.953125
8.629999900000001,2.8131868839263916,-8.71728801727295,3.7660791873931885,6.439208984375,0.9002685546875,3.4332275390625
8.649999900000001,2.7940332889556885,-8.705317497253418,3.7900211811065674,3.4942626953125,1.1444091796875,2.0751953125
8.6699999,2.7748796939849854,-8.678980827331543,3.801992416381836,2.3651123046875,0.762939453125,1.2664794921875
8.6899999,2.760514497756958,-8.65743350982666,3.821146011352539,2.6702880859375,0.2899169921875,2.349853515625
8.709999900000001,2.7509377002716064,-8.652645111083984,3.845088005065918,1.8768310546875,0.1983642578125,2.4566650390625
8.729999900000001,2.7461493015289307,-8.664615631103516,3.869029998779297,1.28173828125,0.1373291015625,1.6021728515625
8.7499999,2.7437551021575928,-8.705317497253418,3.890577793121338,1.8768310546875,-0.18310546875,1.556396484375
8.7699999,2.7437551021575928,-8.753201484680176,3.9049429893493652,0.8392333984375,-0.42724609375,1.64794921875
8.7899999,2.741360902786255,-8.798690795898438,3.914519786834717,0.42724609375,-0.54931640625,0.9307861328125
8.809999900000001,2.741360902786255,-8.827422142028809,3.914519786834717,1.46484375,-0.4425048828125,0.518798828125
8.8299999,2.741360902786255,-8.83699893951416,3.9169139862060547,0.9613037109375,-1.190185546875,0.48828125
8.8499999,2.7461493015289307,-8.83699893951416,3.909731388092041,1.28173828125,-1.8157958984375,0.3662109375
8.8699999,2.7461493015289307,-8.820239067077637,3.907337188720703,2.044677734375,-0.6256103515625,-0.1678466796875
8.889999900000001,2.7437551021575928,-8.798690795898438,3.907337188720703,3.082275390625,-0.091552734375,-0.4425048828125
8.9099999,2.736572504043579,-8.772355079650879,3.9025487899780273,2.593994140625,-1.068115234375,-0.1373291015625
8.9299999,2.7293899059295654,-8.753201484680176,3.914519786834717,0.18310546875,-0.79345703125,-0.5950927734375
8.9499999,2.7246015071868896,-8.729259490966797,3.9217023849487305,2.227783203125,-0.335693359375,-0.946044921875
8.969999900000001,2.7222073078155518,-8.71728801727295,3.9384617805480957,4.8370361328125,-0.152587890625,0.1068115234375
8.9899999,2.717418909072876,-8.702922821044922,3.950432777404785,6.500244140625,0.1068115234375,0.9765625
9.0099999,2.7078421115875244,-8.688557624816895,3.9695863723754883,4.8828125,0.244140625,0.6256103515625
9.0299999,2.698265314102173,-8.669404029846191,3.974374771118164,4.8980712890625,0.0152587890625,0.8392333984375
9.049999900000001,2.691082715988159,-8.667010307312012,3.9839515686035156,4.7760009765625,-0.274658203125,1.4801025390625
9.069999900000001,2.6886885166168213,-8.664615631103516,4.003105163574219,5.31005859375,0.2899169921875,1.0223388671875
9.0899999,2.693476915359497,-8.671798706054688,4.017470359802246,7.1563720703125,0.48828125,1.0986328125
9.1099999,2.695871114730835,-8.681375503540039,4.043806552886963,5.767822265625,0.0762939453125,1.190185546875
9.129999900000001,2.693476915359497,-8.678980827331543,4.07014274597168,3.72314453125,-0.91552734375,-0.274658203125
9.149999900000001,2.6839001178741455,-8.671798706054688,4.0964789390563965,0.6866455078125,-1.617431640625,-1.3275146484375
9.1699999,2.671929121017456,-8.652645111083984,4.122815132141113,0.152587890625,-1.800537109375,-1.2664794921875
9.1899999,2.6623523235321045,-8.638279914855957,4.134786128997803,1.28173828125,-1.6326904296875,-0.091552734375
9.209999900000001,2.6599581241607666,-8.635885238647461,4.146757125854492,0.640869140625,-1.52587890625,0.6256103515625
9.229999900000001,2.6671407222747803,-8.640673637390137,4.137180328369141,0.42724609375,-1.7852783203125,-0.274658203125
9.2499999,2.676717519760132,-8.652645111083984,4.122815132141113,0.457763671875,-1.5106201171875,-0.6103515625
9.2699999,2.6886885166168213,-8.652645111083984,4.10366153717041,0.732421875,-0.9613037109375,-0.0457763671875
9.2899999,2.691082715988159,-8.647856712341309,4.091690540313721,1.28173828125,-0.54931640625,0.213623046875
9.309999900000001,2.6886885166168213,-8.635885238647461,4.086902141571045,2.2430419921875,-0.7171630859375,0.3204345703125
9.3299999,2.6815059185028076,-8.628703117370605,4.094084739685059,2.3651123046875,-0.9765625,0.518798828125
9.3499999,2.671929121017456,-8.62391471862793,4.110844135284424,1.190185546875,-1.495361328125,-0.0762939453125
9.3699999,2.6671407222747803,-8.619126319885254,4.129997730255127,0.823974609375,-2.044677734375,-0.3204345703125
9.389999900000001,2.6671407222747803,-8.609549522399902,4.144362926483154,1.2054443359375,-2.0751953125,-0.18310546875
9.4099999,2.676717519760132,-8.611943244934082,4.14915132522583,1.007080078125,-1.8157958984375,0.2288818359375
9.4299999,2.691082715988159,-8.62391471862793,4.14915132522583,1.068115234375,-1.373291015625,0.3204345703125
9.4499999,2.698265314102173,-8.652645111083984,4.151545524597168,1.7242431640625,-0.8697509765625,-0.213623046875
9.469999900000001,2.7054479122161865,-8.69095230102539,4.158728122711182,2.2430419921875,-1.434326171875,-1.0986328125
9.4899999,2.7030537128448486,-8.7268648147583,4.180276393890381,3.7689208984375,-1.46484375,-0.9613037109375
9.5099999,2.7054479122161865,-8.736441612243652,4.199429988861084,7.9498291015625,-0.9765625,0.0762939453125
9.5299999,2.7030537128448486,-8.722076416015625,4.216189384460449,7.9193115234375,-1.2664794921875,-0.1373291015625
9.549999900000001,2.7006595134735107,-8.686163902282715,4.218583583831787,4.669189453125,-1.6326904296875,-1.2054443359375
9.569999900000001,2.695871114730835,-8.643068313598633,4.216189384460449,2.2125244140625,-1.4190673828125,-1.373291015625
9.5899999,2.6886885166168213,-8.60236644744873,4.2090067863464355,1.8157958984375,-1.2359619140625,-0.9918212890625
9.6099999,2.6839001178741455,-8.583212852478027,4.213795185089111,1.983642578125,-1.2054443359375,-0.3204345703125
9.629999900000001,2.6862943172454834,-8.576030731201172,4.216189384460449,3.204345703125,-0.946044921875,0.1068115234375
9.649999900000001,2.693476915359497,-8.580819129943848,4.223371982574463,3.6163330078125,-0.457763671875,0.1220703125
9.6699999,2.7006595134735107,-8.592789649963379,4.2329487800598145,1.6937255859375,-0.091552734375,-0.2593994140625
9.6899999,2.7030537128448486,-8.604761123657227,4.247313976287842,2.38037109375,0.0762939453125,-0.48828125
9.709999900000001,2.698265314102173,-8.609549522399902,4.266467571258545,4.180908203125,0.091552734375,-0.335693359375
9.729999900000001,2.691082715988159,-8.604761123657227,4.288015365600586,2.8839111328125,-0.42724609375,-0.5950927734375
9.7499999,2.6815059185028076,-8.5903959274292,4.302380561828613,0.0152587890625,-1.4190673828125,-0.9307861328125
9.7699999,2.6791117191314697,-8.583212852478027,4.309563159942627,-0.7171630859375,-2.0294189453125,-1.0223388671875
9.7899999,2.6815059185028076,-8.585607528686523,4.311957359313965,0.2288818359375,-1.7242431640625,-1.190185546875
9.809999900000001,2.691082715988159,-8.592789649963379,4.311957359313965,-0.030517578125,-1.2969970703125,-1.5106201171875
9.8299999,2.7054479122161865,-8.607154846191406,4.316745758056641,-0.9613037109375,-1.5716552734375,-1.8157958984375
9.8499999,2.717418909072876,-8.592789649963379,4.316745758056641,0.3509521484375,-1.7242431640625,-1.8157958984375
9.8699999,2.7222073078155518,-8.561665534973145,4.309563159942627,0.1983642578125,-1.6326904296875,-1.7547607421875
9.889999900000001,2.719813108444214,-8.513781547546387,4.288015365600586,-0.7781982421875,-1.8768310546875,-1.556396484375
9.9099999,2.719813108444214,-8.463502883911133,4.24970817565918,-0.1220703125,-2.593994140625,-0.6866455078125
9.9299999,2.717418909072876,-8.437167167663574,4.220977783203125,0.0457763671875,-0.9765625,-0.0762939453125
9.9499999,2.7222073078155518,-8.434772491455078,4.20421838760376,1.0223388671875,0.4119873046875,0.213623046875
9.969999900000001,2.7293899059295654,-8.465897560119629,4.211400985717773,1.0833740234375,-0.3662109375,0.3204345703125
9.9899999,2.736572504043579,-8.513781547546387,4.242525577545166,-0.4730224609375,-1.40380859375,-0.42724609375
10.0099999,2.738966703414917,-8.554482460021973,4.2760443687438965,0.9002685546875,-0.579833984375,-0.7476806640625
10.0299999,2.7317841053009033,-8.583212852478027,4.311957359313965,0.5950927734375,0.0457763671875,-0.6103515625
10.049999900000001,2.719813108444214,-8.585607528686523,4.343081951141357,-0.1678466796875,-1.1749267578125,-0.579833984375
10.069999900000001,2.7078421115875244,-8.56884765625,4.367023944854736,0.2593994140625,-1.9073486328125,-0.48828125
10.0899999,2.698265314102173,-8.547300338745117,4.376600742340088,0.9002685546875,-2.0294189453125,-0.3814697265625
10.1099999,2.7006595134735107,-8.528146743774414,4.37420654296875,0.9918212890625,-2.4261474609375,-0.2593994140625
10.129999900000001,2.7078421115875244,-8.508993148803711,4.352658748626709,0.8697509765625,-2.5787353515625,-0.42724609375
10.149999900000001,2.719813108444214,-8.51138687133789,4.331110954284668,-0.6866455078125,-2.0294189453125,0.0762939453125
10.1699999,2.7222073078155518,-8.520963668823242,4.2975921630859375,-0.091552734375,-1.861572265625,0.274658203125
10.1899999,2.7269957065582275,-8.549694061279297,4.278438568115234,-0.1220703125,-2.2125244140625,-0.335693359375
10.209999900000001,2.7293899059295654,-8.56884765625,4.259284973144531,0.335693359375,-1.8157958984375,-1.1138916015625
10.229999900000001,2.736572504043579,-8.56884765625,4.24970817565918,0.518798828125,-0.8697509765625,-0.54931640625
10.2499999,2.7437551021575928,-8.537723541259766,4.247313976287842,-0.42724609375,-0.3509521484375,0.0152587890625
10.2699999,2.741360902786255,-8.492233276367188,4.2544965744018555,-1.708984375,-0.6256103515625,0.091552734375
10.2899999,2.734178304672241,-8.44434928894043,4.268861770629883,-0.8392333984375,-1.2054443359375,0.06103515625
10.309999900000001,2.7269957065582275,-8.42040729522705,4.285621166229248,0.091552734375,-1.28173828125,1.1749267578125
10.3299999,2.7293899059295654,-8.427590370178223,4.299986362457275,0.030517578125,-0.7781982421875,1.5869140625
10.3499999,2.741360902786255,-8.468291282653809,4.302380561828613,-0.1983642578125,-0.2288818359375,1.007080078125
10.3699999,2.7509377002716064,-8.549694061279297,4.307168960571289,-1.007080078125,0.3662109375,0.4119873046875
10.389999900000001,2.75812029838562,-8.645462036132812,4.316745758056641,0.6103515625,0.5340576171875,0.030517578125
10.4099999,2.75812029838562,-8.722076416015625,4.333505153656006,2.74658203125,0.4425048828125,-0.7476806640625
10.4299999,2.7533318996429443,-8.738836288452148,4.350264549255371,1.7242431640625,-0.2288818359375,-1.6326904296875
10.4499999,2.7437551021575928,-8.695740699768066,4.350264549255371,-0.457763671875,-3.387451171875,-1.46484375
10.469999900000001,2.715024709701538,-8.59997272491455,4.335899353027344,-0.701904296875,-2.3345947265625,-1.0833740234375
10.4899999,2.6839001178741455,-8.501810073852539,4.314351558685303,0.4425048828125,-0.091552734375,0.30517578125
10.5099999,2.6575639247894287,-8.44434928894043,4.2951979637146,-0.4425048828125,-1.708984375,0.823974609375
10.5299999,2.652775526046753,-8.44195556640625,4.290409564971924,-0.030517578125,-1.8768310546875,0.30517578125
10.549999900000001,2.674323320388794,-8.487444877624512,4.290409564971924,0.7781982421875,-1.0528564453125,-0.4730224609375
10.569999900000001,2.715024709701538,-8.564059257507324,4.302380561828613,0.0152587890625,-0.274658203125,-0.67138671875
10.5899999,2.7485435009002686,-8.631096839904785,4.311957359313965,1.190185546875,0.152587890625,-1.0833740234375
10.6099999,2.7724854946136475,-8.669404029846191,4.323928356170654,1.800537109375,0.2593994140625,-1.7547607421875
10.629999900000001,2.7724854946136475,-8.65982723236084,4.326322555541992,1.28173828125,0.5035400390625,-1.8310546875
10.649999900000001,2.765302896499634,-8.621520042419434,4.323928356170654,-0.91552734375,-1.7242431640625,-1.28173828125
10.6699999,2.7509377002716064,-8.549694061279297,4.3191399574279785,-0.640869140625,-1.9989013671875,-1.7852783203125
10.6899999,2.741360902786255,-8.487444877624512,4.316745758056641,1.4190673828125,0.42724609375,-0.762939453125
10.709999900000001,2.7246015071868896,-8.437167167663574,4.316745758056641,1.8768310546875,-0.091552734375,-0.091552734375
10.729999900000001,2.7054479122161865,-8.413225173950195,4.326322555541992,0.7171630859375,-1.1749267578125,-0.579833984375
10.7499999,2.6839001178741455,-8.40843677520752,4.350264549255371,0.274658203125,-0.4730224609375,-0.4730224609375
10.7699999,2.671929121017456,-8.4108304977417,4.381389141082764,0.701904296875,-1.7242431640625,0.518798828125
10.7899999,2.674323320388794,-8.429984092712402,4.4077253341674805,0.6866455078125,-2.9449462890625,1.190185546875
10.809999900000001,2.693476915359497,-8.458714485168457,4.422090530395508,1.190185546875,-2.9144287109375,0.3509521484375
10.8299999,2.719813108444214,-8.501810073852539,4.414907932281494,0.701904296875,-2.716064453125,-0.3204345703125
10.8499999,2.741360902786255,-8.559270858764648,4.390965938568115,0.823974609375,-2.38037109375,-0.091552734375
10.8699999,2.760514497756958,-8.60236644744873,4.359841346740723,2.99072265625,-2.0294189453125,-0.48828125
10.889999900000001,2.7700912952423096,-8.619126319885254,4.321534156799316,2.777099609375,-1.2969970703125,-0.8392333984375
10.9099999,2.7724854946136475,-8.609549522399902,4.302380561828613,0.18310546875,-0.3204345703125,-1.1444091796875
10.9299999,2.765302896499634,-8.564059257507324,4.2975921630859375,2.3040771484375,0.1068115234375,-0.91552734375
10.9499999,2.7485435009002686,-8.513781547546387,4.3191399574279785,3.11279296875,-0.2593994140625,-0.0457763671875
10.969999900000001,2.7317841053009033,-8.465897560119629,4.352658748626709,0.244140625,-1.1749267578125,0.0762939453125
10.9899999,2.717418909072876,-8.437167167663574,4.3861775398254395,-1.678466796875,-2.044677734375,-0.2899169921875
11.0099999,2.7126305103302,-8.425195693969727,4.405331134796143,-0.579833984375,-2.227783203125,-0.2593994140625
11.0299999,2.719813108444214,-8.44195556640625,4.414907932281494,-0.091552734375,-2.25830078125,0.213623046875
11.049999900000001,2.7317841053009033,-8.465897560119629,4.402936935424805,0.0457763671875,-1.9989013671875,0.0762939453125
11.069999900000001,2.7485435009002686,-8.497021675109863,4.383783340454102,-0.701904296875,-1.312255859375,0.1068115234375
11.0899999,2.75812029838562,-8.528146743774414,4.367023944854736,-1.129150390625,-0.7476806640625,0.152587890625
11.1099999,2.760514497756958,-8.547300338745117,4.357447147369385,0.823974609375,-0.6103515625,-0.0762939453125
11.129999900000001,2.760514497756958,-8.559270858764648,4.364629745483398,1.4801025390625,-0.91552734375,-0.3509521484375
11.149999900000001,2.7557260990142822,-8.552088737487793,4.378994941711426,2.1209716796875,-0.8697509765625,-0.30517578125
11.1699999,2.7485435009002686,-8.53532886505127,4.393360137939453,2.0751953125,-0.9307861328125,0.1068115234375
11.1899999,2.738966703414917,-8.508993148803711,4.400542736053467,2.227783203125,-1.1138916015625,0.48828125
11.209999900000001,2.7293899059295654,-8.485051155090332,4.398148536682129,4.21142578125,-0.823974609375,1.1749267578125
11.229999900000001,2.7222073078155518,-8.463502883911133,4.398148536682129,3.47900390625,-0.640869140625,1.0223388671875
11.2499999,2.717418909072876,-8.453926086425781,4.398148536682129,3.9215087890625,-0.8087158203125,0.9613037109375
11.2699999,2.717418909072876,-8.456320762634277,4.4077253341674805,4.6539306640625,-1.068115234375,0.9918212890625
11.2899999,2.719813108444214,-8.473079681396484,4.431667327880859,4.2877197265625,-0.640869140625,0.9918212890625
11.309999900000001,2.7222073078155518,-8.494627952575684,4.455609321594238,4.6539306640625,-0.396728515625,0.732421875
11.3299999,2.7269957065582275,-8.51138687133789,4.479551315307617,5.0201416015625,-0.7476806640625,0.457763671875
11.3499999,2.7269957065582275,-8.51138687133789,4.49870491027832,3.9215087890625,-0.640869140625,0.18310546875
11.3699999,2.7246015071868896,-8.494627952575684,4.505887508392334,3.265380859375,-0.8544921875,-0.244140625
11.389999900000001,2.715024709701538,-8.468291282653809,4.5154643058776855,3.021240234375,-0.6561279296875,-0.518798828125
11.4099999,2.7054479122161865,-8.439560890197754,4.5154643058776855,4.180908203125,-0.701904296875,-0.3204345703125
11.4299999,2.695871114730835,-8.418013572692871,4.5154643058776855,4.1961669921875,-0.732421875,0.6866455078125
11.4499999,2.691082715988159,-8.406042098999023,4.5154643058776855,1.8463134765625,-0.4730224609375,0.67138671875
11.469999900000001,2.6862943172454834,-8.396465301513672,4.517858505249023,0.91552734375,-0.396728515625,-0.457763671875
11.4899999,2.6839001178741455,-8.382100105285645,4.529829502105713,2.5787353515625,-0.335693359375,-0.1068115234375
11.5099999,2.676717519760132,-8.370129585266113,4.558559894561768,3.0364990234375,-0.6866455078125,1.3580322265625
11.5299999,2.674323320388794,-8.365341186523438,4.587290287017822,4.4403076171875,-1.1749267578125,2.1820068359375
11.549999900000001,2.674323320388794,-8.377311706542969,4.613626480102539,3.84521484375,-1.6937255859375,1.7242431640625
11.569999900000001,2.674323320388794,-8.4108304977417,4.627991676330566,0.823974609375,-2.044677734375,0.42724609375
11.5899999,2.6791117191314697,-8.44434928894043,4.627991676330566,1.678466796875,-1.9378662109375,0.0152587890625
11.6099999,2.6839001178741455,-8.468291282653809,4.620809078216553,5.5694580078125,-1.0833740234375,1.0833740234375
11.629999900000001,2.691082715988159,-8.470685958862305,4.6040496826171875,8.4381103515625,0.2593994140625,2.410888671875
11.649999900000001,2.693476915359497,-8.451532363891602,4.592078685760498,6.683349609375,1.0223388671875,1.5106201171875
11.6699999,2.6839001178741455,-8.413225173950195,4.594472885131836,4.2266845703125,1.1749267578125,-0.0152587890625
11.6899999,2.6647465229034424,-8.370129585266113,4.613626480102539,3.8604736328125,0.3662109375,0.1373291015625
11.709999900000001,2.6408045291900635,-8.336610794067383,4.659116744995117,2.7923583984375,-0.7476806640625,0.885009765625
11.729999900000001,2.6240451335906982,-8.317456245422363,4.702212333679199,1.373291015625,-1.64794921875,0.885009765625
11.7499999,2.6168625354766846,-8.317456245422363,4.733336925506592,0.91552734375,-1.9378662109375,0.18310546875
11.7699999,2.626439332962036,-8.336610794067383,4.745307922363281,0.5035400390625,-1.5106201171875,-0.30517578125
11.7899999,2.6384103298187256,-8.360552787780762,4.742913722991943,1.556396484375,-0.8544921875,-0.0457763671875
11.809999900000001,2.650381326675415,-8.379706382751465,4.733336925506592,2.62451171875,-0.6103515625,-0.18310546875
11.8299999,2.652775526046753,-8.382100105285645,4.730942726135254,1.40380859375,-0.762939453125,-0.2899169921875
11.8499999,2.647987127304077,-8.367734909057617,4.728548526763916,2.13623046875,-0.946044921875,0.06103515625
11.8699999,2.6360161304473877,-8.339004516601562,4.726154327392578,2.5787353515625,-0.91552734375,0.701904296875
11.889999900000001,2.626439332962036,-8.31985092163086,4.726154327392578,1.220703125,-1.2664794921875,0.6866455078125
11.9099999,2.6168625354766846,-8.310274124145508,4.728548526763916,1.1749267578125,-1.0986328125,0.3509521484375
11.9299999,2.6168625354766846,-8.315062522888184,4.73573112487793,2.6702880859375,-0.8544921875,0.54931640625
11.9499999,2.6216509342193604,-8.329427719116211,4.752490520477295,3.1280517578125,-0.8087158203125,0.6561279296875
11.969999900000001,2.626439332962036,-8.341399192810059,4.771644115447998,2.7008056640625,-1.007080078125,0.30517578125
11.9899999,2.628833532333374,-8.343792915344238,4.786009311676025,3.2196044921875,-1.2359619140625,-0.030517578125
12.0099999,2.626439332962036,-8.336610794067383,4.802768707275391,6.0882568359375,-0.7171630859375,0.762939453125
12.0299999,2.626439332962036,-8.322244644165039,4.8051629066467285,12.7105712890625,0.335693359375,3.5552978515625
12.049999900000001,2.6216509342193604,-8.300697326660156,4.793191909790039,14.9688720703125,0.9765625,3.9825439453125
12.069999900000001,2.6168625354766846,-8.279149055480957,4.790797710418701,10.31494140625,2.2735595703125,2.777099609375
12.0899999,2.604891538619995,-8.250418663024902,4.800374507904053,7.4310302734375,2.3193359375,1.4495849609375
12.1099999,2.583343744277954,-8.22887134552002,4.8482584953308105,6.1492919921875,1.0528564453125,0.8392333984375
12.129999900000001,2.5546131134033203,-8.214506149291992,4.9152960777282715,5.1727294921875,0.0152587890625,1.0528564453125
12.149999900000001,2.5306711196899414,-8.212111473083496,4.98472785949707,3.387451171875,-1.007080078125,0.9918212890625
12.1699999,2.518700122833252,-8.219294548034668,5.037400245666504,0.091552734375,-2.01416015625,-0.1068115234375
12.1899999,2.5234885215759277,-8.2312650680542,5.061342239379883,0.457763671875,-2.25830078125,-0.79345703125
12.209999900000001,2.5330653190612793,-8.243236541748047,5.061342239379883,2.716064453125,-1.7547607421875,-0.2899169921875
12.229999900000001,2.5498247146606445,-8.248024940490723,5.04218864440918,2.2125244140625,-1.6326904296875,0.030517578125
12.2499999,2.559401512145996,-8.248024940490723,5.013458251953125,1.312255859375,-1.6326904296875,-0.30517578125
12.2699999,2.564189910888672,-8.24084186553955,4.989516258239746,2.01416015625,-0.9307861328125,-0.8087158203125
12.289999900000002,2.561795711517334,-8.233659744262695,4.975151062011719,2.9754638671875,-0.457763671875,-0.6561279296875
12.309999900000001,2.5522189140319824,-8.224082946777344,4.970362663269043,2.86865234375,-0.67138671875,-0.3509521484375
12.3299999,2.5450363159179688,-8.20492935180664,4.98472785949707,2.99072265625,-0.579833984375,-0.06103515625
12.3499999,2.540247917175293,-8.178592681884766,5.011064052581787,8.23974609375,0.335693359375,1.373291015625
12.3699999,2.540247917175293,-8.149862289428711,5.039794445037842,15.7470703125,1.556396484375,4.2877197265625
12.389999900000001,2.540247917175293,-8.121131896972656,5.078101634979248,16.571044921875,2.13623046875,5.584716796875
12.4099999,2.5282769203186035,-8.101978302001953,5.109226226806641,15.350341796875,1.7547607421875,4.7454833984375
12.4299999,2.5115175247192383,-8.094796180725098,5.145139217376709,14.2059326171875,0.946044921875,3.4332275390625
12.4499999,2.494758129119873,-8.097189903259277,5.183446884155273,13.7939453125,0.7781982421875,3.0059814453125
12.469999900000001,2.47560453414917,-8.106766700744629,5.231330871582031,11.6119384765625,1.251220703125,2.655029296875
12.4899999,2.4636335372924805,-8.118738174438477,5.2911858558654785,9.124755859375,1.129150390625,1.46484375
12.5099999,2.456450939178467,-8.128314971923828,5.360617637634277,11.1236572265625,0.54931640625,1.2664794921875
12.5299999,2.4420857429504395,-8.111555099487305,5.43723201751709,20.263671875,1.2359619140625,3.021240234375
12.549999900000001,2.434903144836426,-8.063671112060547,5.47075080871582,34.3170166015625,3.47900390625,7.904052734375
12.569999900000001,2.4133553504943848,-7.987056732177734,5.48272180557251,31.951904296875,6.0882568359375,9.82666015625
12.5899999,2.389413356781006,-7.90086555480957,5.473145008087158,21.484375,6.744384765625,6.7138671875
12.6099999,2.3558945655822754,-7.826645374298096,5.492298603057861,14.4805908203125,5.2947998046875,3.5858154296875
12.629999900000001,2.31758713722229,-7.7883381843566895,5.5760955810546875,12.725830078125,4.1046142578125,2.99072265625
12.649999900000001,2.2816741466522217,-7.773972988128662,5.700594425201416,15.350341796875,3.4637451171875,4.791259765625
12.6699999,2.255337953567505,-7.778761386871338,5.829881191253662,13.0462646484375,0.0762939453125,4.730224609375
12.6899999,2.231395959854126,-7.778761386871338,5.9304375648498535,6.866455078125,-0.885009765625,0.8544921875
12.709999900000001,2.2170307636260986,-7.7763671875,5.9974751472473145,1.46484375,-1.6326904296875,-1.4495849609375
12.729999900000001,2.2002713680267334,-7.757213592529297,6.021417140960693,4.2572021484375,-3.204345703125,-0.6256103515625
12.7499999,2.190694570541382,-7.728483200073242,6.011840343475342,9.796142578125,-2.655029296875,1.8463134765625
12.7699999,2.1954829692840576,-7.692570209503174,5.980715751647949,9.033203125,-2.2430419921875,2.44140625
12.789999900000002,2.207453966140747,-7.659051418304443,5.928043365478516,4.852294921875,-2.62451171875,0.762939453125
12.809999900000001,2.2218191623687744,-7.642292022705078,5.894524574279785,3.2806396484375,-2.0751953125,-0.396728515625
12.8299999,2.233790159225464,-7.632715225219727,5.882553577423096,10.2386474609375,-0.1678466796875,1.129150390625
12.8499999,2.2361843585968018,-7.625532627105713,5.906495571136475,15.625,1.129150390625,3.7384033203125
12.8699999,2.231395959854126,-7.615955829620361,5.942408561706543,13.7786865234375,0.8392333984375,3.631591796875
12.889999900000001,2.2218191623687744,-7.60637903213501,5.990292549133301,7.7667236328125,-0.1373291015625,1.5716552734375
12.9099999,2.209848165512085,-7.601590633392334,6.052541732788086,5.6304931640625,-0.9002685546875,-0.579833984375
12.9299999,2.2002713680267334,-7.594407558441162,6.114790916442871,10.772705078125,-0.7781982421875,-0.213623046875
12.9499999,2.1930887699127197,-7.580042362213135,6.172252178192139,16.8914794921875,0.213623046875,2.5634765625
12.969999900000001,2.183511972427368,-7.546523571014404,6.203376770019531,17.608642578125,0.8392333984375,4.0130615234375
12.9899999,2.1739351749420166,-7.503427982330322,6.212953567504883,13.00048828125,1.0223388671875,2.7008056640625
13.0099999,2.161964178085327,-7.4555439949035645,6.215347766876221,9.002685546875,0.6256103515625,0.91552734375
13.0299999,2.1475989818573,-7.412448406219482,6.234501361846924,12.542724609375,0.5645751953125,1.800537109375
13.049999900000001,2.1380221843719482,-7.371747016906738,6.256049156188965,20.01953125,2.410888671875,4.8065185546875
13.069999900000001,2.1284453868865967,-7.343016624450684,6.296750545501709,17.9595947265625,4.058837890625,5.462646484375
13.0899999,2.1164743900299072,-7.321468830108643,6.335057735443115,10.406494140625,2.593994140625,2.5177001953125
13.1099999,2.1068975925445557,-7.311892032623291,6.3949127197265625,4.0740966796875,-0.3509521484375,-0.335693359375
13.129999900000001,2.0901381969451904,-7.311892032623291,6.481103897094727,4.302978515625,-1.373291015625,-0.7171630859375
13.149999900000001,2.0805611610412598,-7.307103633880615,6.555324077606201,13.427734375,-0.79345703125,2.5177001953125
13.1699999,2.075772762298584,-7.299921035766602,6.610390663146973,17.51708984375,0.30517578125,3.997802734375
13.1899999,2.073378562927246,-7.283161640167236,6.619967937469482,9.918212890625,-0.18310546875,1.15966796875
13.209999900000001,2.0685901641845703,-7.271190643310547,6.607996463775635,-0.1983642578125,-2.44140625,-2.6397705078125
13.229999900000001,2.0638017654418945,-7.259219646453857,6.600813865661621,-3.8299560546875,-4.7454833984375,-3.41796875
13.2499999,2.0661959648132324,-7.24485445022583,6.6127848625183105,1.007080078125,-4.39453125,-2.13623046875
13.2699999,2.0638017654418945,-7.232883453369141,6.651092529296875,4.2572021484375,-2.0904541015625,-1.556396484375
13.289999900000002,2.073378562927246,-7.201758861541748,6.677428722381592,6.988525390625,-2.86865234375,-1.2054443359375
13.309999900000001,2.078166961669922,-7.173028469085693,6.691793918609619,6.28662109375,-3.96728515625,-0.7171630859375
13.3299999,2.0829553604125977,-7.1706342697143555,6.7061591148376465,3.0975341796875,-4.2266845703125,-0.8544921875
13.3499999,2.0877439975738525,-7.180211067199707,6.7061591148376465,6.5460205078125,-4.364013671875,-0.91552734375
13.3699999,2.10210919380188,-7.206547260284424,6.710947513580322,10.0860595703125,-3.9520263671875,-0.3509521484375
13.389999900000001,2.118868589401245,-7.225700855255127,6.718130111694336,7.38525390625,-3.7841796875,-1.2054443359375
13.4099999,2.1356279850006104,-7.2137298583984375,6.710947513580322,5.401611328125,-5.035400390625,-2.838134765625
13.4299999,2.145204782485962,-7.175422668457031,6.701370716094971,3.4942626953125,-6.3018798828125,-3.936767578125
13.4499999,2.1499931812286377,-7.110779285430908,6.682217121124268,2.0904541015625,-6.6375732421875,-3.7384033203125
13.469999900000001,2.1499931812286377,-7.029376029968262,6.660669326782227,2.716064453125,-6.2255859375,-2.25830078125
13.4899999,2.1523873805999756,-6.9455790519714355,6.636727333068848,10.101318359375,-4.9285888671875,0.2288818359375
13.5099999,2.1595699787139893,-6.873753070831299,6.607996463775635,20.050048828125,-1.9683837890625,4.08935546875
13.5299999,2.1763293743133545,-6.833051681518555,6.5912370681762695,20.44677734375,0.213623046875,5.8441162109375
13.549999900000001,2.190694570541382,-6.825869083404541,6.605602264404297,11.444091796875,0.3814697265625,2.5482177734375
13.569999900000001,2.2026655673980713,-6.852205276489258,6.6630635261535645,6.40869140625,-1.800537109375,-0.6866455078125
13.5899999,2.2026655673980713,-6.912060260772705,6.777985095977783,1.5411376953125,-3.875732421875,-1.40380859375
13.6099999,2.1978771686553955,-6.9910688400268555,6.926425457000732,0.2288818359375,-4.9285888671875,-1.6937255859375
13.629999900000001,2.1978771686553955,-7.079654216766357,7.084442615509033,1.739501953125,-5.9661865234375,-2.471923828125
13.649999900000001,2.209848165512085,-7.161057472229004,7.2113356590271,-0.06103515625,-8.697509765625,-4.45556640625
13.6699999,2.2361843585968018,-7.228095054626465,7.29034423828125,-3.0059814453125,-11.199951171875,-6.7596435546875
13.6899999,2.2673089504241943,-7.249642848968506,7.311892032623291,-6.317138671875,-12.664794921875,-9.3841552734375
13.709999900000001,2.296039342880249,-7.220912456512451,7.273584842681885,-10.3302001953125,-13.8092041015625,-13.2598876953125
13.729999900000001,2.322375535964966,-7.151480674743652,7.1921820640563965,-13.763427734375,-16.41845703125,-13.61083984375
13.7499999,2.3511061668395996,-7.043741226196289,7.062894821166992,-12.603759765625,-18.6767578125,-12.39013671875
13.7699999,2.389413356781006,-6.92881965637207,6.900089263916016,-9.5367431640625,-16.4947509765625,-11.65771484375
13.789999900000002,2.4444799423217773,-6.8162922859191895,6.710947513580322,-7.8125,-14.068603515625,-10.223388671875
13.809999900000001,2.5091233253479004,-6.730101108551025,6.517016887664795,-9.27734375,-13.763427734375,-9.58251953125
13.8299999,2.580949544906616,-6.66785192489624,6.339846134185791,-10.6201171875,-12.8173828125,-9.765625
13.8499999,2.647987127304077,-6.619967937469482,6.196194171905518,-10.6048583984375,-11.2762451171875,-8.636474609375
13.8699999,2.7126305103302,-6.596025466918945,6.090848922729492,-10.31494140625,-10.1318359375,-6.0882568359375
13.889999900000001,2.760514497756958,-6.57926607131958,6.023811340332031,-8.72802734375,-7.1258544921875,-3.90625
13.9099999,2.7988216876983643,-6.576871871948242,5.992686748504639,-5.5389404296875,-3.5400390625,-2.0904541015625
13.9299999,2.8203697204589844,-6.593631267547607,6.00226354598999,-4.0130615234375,-0.701904296875,0.091552734375
13.9499999,2.829946517944336,-6.629544734954834,6.050147533416748,-3.6468505859375,0,1.922607421875
13.969999900000001,2.832340717315674,-6.694188117980957,6.1267619132995605,-3.875732421875,-0.6256103515625,2.74658203125
13.9899999,2.8347349166870117,-6.768408298492432,6.212953567504883,-1.3885498046875,0.030517578125,3.2958984375
14.0099999,2.829946517944336,-6.854599475860596,6.308721542358398,-0.9307861328125,0.9002685546875,3.875732421875
14.0299999,2.82515811920166,-6.938396453857422,6.385335922241211,0.1983642578125,0.0152587890625,4.5928955078125
14.049999900000001,2.8131868839263916,-7.005434036254883,6.461950302124023,0.79345703125,-0.732421875,4.852294921875
14.069999900000001,2.7916390895843506,-7.050923824310303,6.524199485778809,4.425048828125,-1.2359619140625,4.7760009765625
14.0899999,2.7700912952423096,-7.086836814880371,6.584054470062256,7.9803466796875,-0.701904296875,6.40869140625
14.1099999,2.7437551021575928,-7.096413612365723,6.615179061889648,12.3291015625,-0.1678466796875,7.8582763671875
14.129999900000001,2.7102363109588623,-7.079654216766357,6.62236213684082,16.0675048828125,-0.152587890625,9.185791015625
14.149999900000001,2.674323320388794,-7.050923824310303,6.610390663146973,10.7421875,-1.15966796875,8.9874267578125
14.1699999,2.63362193107605,-7.005434036254883,6.581660270690918,5.31005859375,-2.899169921875,8.2855224609375
14.1899999,2.604891538619995,-6.9695210456848145,6.557718276977539,3.143310546875,-4.5623779296875,8.8653564453125
14.209999900000001,2.5953147411346436,-6.955155849456787,6.540958881378174,-0.5645751953125,-4.7454833984375,8.148193359375
14.229999900000001,2.5953147411346436,-6.9695210456848145,6.531382083892822,-5.2642822265625,-3.47900390625,5.31005859375
14.2499999,2.607285737991333,-6.98628044128418,6.509834289550781,-4.0130615234375,-4.2572021484375,3.8604736328125
14.2699999,2.6168625354766846,-7.010222434997559,6.48828649520874,-5.1727294921875,-4.0740966796875,4.791259765625
14.289999900000002,2.6192567348480225,-7.024587631225586,6.466738700866699,-6.4239501953125,-2.410888671875,5.035400390625
14.309999900000001,2.612074136734009,-7.036558628082275,6.433219909667969,-2.5634765625,-1.6632080078125,5.4931640625
14.3299999,2.604891538619995,-7.050923824310303,6.399701118469238,-2.716064453125,-2.25830078125,5.6610107421875
14.3499999,2.5929205417633057,-7.079654216766357,6.366182327270508,-6.5155029296875,-2.2125244140625,5.1116943359375
14.3699999,2.583343744277954,-7.113173484802246,6.337451934814453,-6.317138671875,-1.40380859375,4.8065185546875
14.389999900000001,2.5785553455352783,-7.158663272857666,6.31829833984375,-4.3182373046875,-0.3204345703125,4.2724609375
14.4099999,2.5689783096313477,-7.206547260284424,6.323086738586426,-6.2103271484375,0.3662109375,3.753662109375
14.4299999,2.5689783096313477,-7.240066051483154,6.332663536071777,-7.080078125,-0.579833984375,3.2196044921875
14.4499999,2.5689783096313477,-7.259219646453857,6.3518171310424805,-7.9193115234375,-0.823974609375,2.9296875
14.469999900000001,2.564189910888672,-7.2783732414245605,6.370970726013184,-8.3770751953125,0.18310546875,2.288818359375
14.4899999,2.5546131134033203,-7.292738437652588,6.3949127197265625,-7.5531005859375,0.762939453125,2.0294189453125
14.5099999,2.542642116546631,-7.3238630294799805,6.418854713439941,-5.9051513671875,-0.8544921875,2.2735595703125
14.5299999,2.518700122833252,-7.354987621307373,6.430825710296631,-3.11279296875,-1.6326904296875,2.471923828125
14.549999900000001,2.5067291259765625,-7.386112213134766,6.414066314697266,-0.79345703125,-1.1444091796875,2.86865234375
14.569999900000001,2.497152328491211,-7.419631004333496,6.368576526641846,-4.547119140625,-0.2593994140625,1.9989013671875
14.5899999,2.497152328491211,-7.469909191131592,6.315904140472412,-8.7127685546875,-0.4119873046875,-0.06103515625
14.6099999,2.5043349266052246,-7.532158374786377,6.265625953674316,-5.4168701171875,-0.1983642578125,-1.0528564453125
14.629999900000001,2.5091233253479004,-7.60637903213501,6.2416839599609375,-1.5411376953125,1.89208984375,-1.6326904296875
14.649999900000001,2.5234885215759277,-7.661445617675781,6.246472358703613,-1.708984375,3.4332275390625,-3.0975341796875
14.6699999,2.5306711196899414,-7.675810813903809,6.275202751159668,-0.7476806640625,1.03759765625,-3.4027099609375
14.6899999,2.540247917175293,-7.642292022705078,6.308721542358398,5.5084228515625,-3.2501220703125,-2.4261474609375
14.709999900000001,2.5282769203186035,-7.556100368499756,6.342240333557129,11.9781494140625,0.1068115234375,-2.197265625
14.729999900000001,2.499546527862549,-7.422025203704834,6.366182327270508,20.660400390625,4.425048828125,1.0528564453125
14.7499999,2.456450939178467,-7.264008045196533,6.366182327270508,28.839111328125,5.4168701171875,4.852294921875
14.7699999,2.403778553009033,-7.079654216766357,6.380547523498535,23.9715576171875,5.523681640625,5.096435546875
14.789999900000002,2.3511061668395996,-6.921637058258057,6.387730121612549,13.763427734375,1.7852783203125,3.0059814453125
14.809999900000001,2.315192937850952,-6.785167694091797,6.411672115325928,3.7689208984375,-2.9449462890625,2.01416015625
14.8299999,2.2888567447662354,-6.698976516723633,6.45476770401001,-0.1373291015625,-3.3111572265625,2.4566650390625
14.8499999,2.2816741466522217,-6.675034523010254,6.5050458908081055,3.3416748046875,-0.91552734375,5.462646484375
14.8699999,2.274491548538208,-6.708553314208984,6.562506675720215,6.34765625,-0.152587890625,7.965087890625
14.889999900000001,2.2697031497955322,-6.801927089691162,6.617573261260986,4.9591064453125,-1.7852783203125,8.026123046875
14.9099999,2.274491548538208,-6.943184852600098,6.660669326782227,3.814697265625,-0.732421875,6.103515625
14.9299999,2.2864625453948975,-7.096413612365723,6.701370716094971,2.5482177734375,0.7476806640625,4.8065185546875
14.9499999,2.3032219409942627,-7.240066051483154,6.746860504150391,5.37109375,-1.5869140625,4.08935546875
14.969999900000001,2.3247697353363037,-7.33583402633667,6.777985095977783,16.8914794921875,0.3814697265625,5.4779052734375
14.9899999,2.3343467712402344,-7.362170219421387,6.7923502922058105,25.634765625,3.875732421875,7.293701171875
15.0099999,2.3343467712402344,-7.314286231994629,6.775590896606445,21.66748046875,2.9144287109375,5.6915283203125
15.0299999,2.3247697353363037,-7.2137298583984375,6.742072105407715,10.345458984375,0.8087158203125,2.349853515625
15.049999900000001,2.298433542251587,-7.086836814880371,6.72531270980835,2.01416015625,-0.579833984375,-1.77001953125
15.069999900000001,2.2625205516815186,-6.971915245056152,6.754043102264404,2.5634765625,-0.518798828125,-1.861572265625
15.0899999,2.212242364883423,-6.876147270202637,6.806715488433838,12.786865234375,0.9765625,2.3651123046875
15.1099999,2.1763293743133545,-6.794744491577148,6.861782073974609,19.8974609375,1.0986328125,5.7525634765625
15.129999900000001,2.1475989818573,-6.7277069091796875,6.892906665802002,14.862060546875,0.18310546875,5.4473876953125
15.149999900000001,2.140416383743286,-6.6846113204956055,6.904877662658691,7.0343017578125,-0.3814697265625,3.5247802734375
15.1699999,2.145204782485962,-6.665457725524902,6.916848659515381,3.35693359375,-1.1138916015625,2.532958984375
15.1899999,2.1499931812286377,-6.660669326782227,6.950367450714111,8.270263671875,-0.640869140625,3.570556640625
15.209999900000001,2.140416383743286,-6.658275127410889,7.005434036254883,15.5487060546875,1.0833740234375,6.3018798828125
15.229999900000001,2.1164743900299072,-6.651092529296875,7.048529624938965,19.989013671875,1.8157958984375,8.9874267578125
15.2499999,2.0805611610412598,-6.643909931182861,7.070077419281006,19.53125,1.0833740234375,9.6893310546875
15.2699999,2.0374655723571777,-6.648698329925537,7.06528902053833,13.85498046875,0.5645751953125,7.6751708984375
15.289999900000002,2.008735179901123,-6.703764915466309,7.062894821166992,7.01904296875,0.2899169921875,5.9356689453125
15.309999900000001,2.008735179901123,-6.797138690948486,7.06528902053833,6.34765625,0.42724609375,4.0435791015625
15.3299999,2.030282974243164,-6.919242858886719,7.096413612365723,7.62939453125,2.532958984375,0.7476806640625
15.3499999,2.078166961669922,-7.0126166343688965,7.151480674743652,6.134033203125,3.90625,-4.8370361328125
15.3699999,2.10210919380188,-7.0341644287109375,7.220912456512451,1.5869140625,1.068115234375,-6.561279296875
15.389999900000001,2.118868589401245,-6.959944248199463,7.29034423828125,1.9683837890625,-4.302978515625,-3.4332275390625
15.4099999,2.10210919380188,-6.801927089691162,7.3454108238220215,4.0435791015625,-2.4566650390625,-4.425048828125
15.4299999,2.0661959648132324,-6.5912370681762695,7.371747016906738,4.8370361328125,0.823974609375,-3.8909912109375
15.4499999,2.0159177780151367,-6.356605529785156,7.362170219421387,4.2724609375,-3.23486328125,-1.89208984375
15.469999900000001,1.9608511924743652,-6.143521785736084,7.33583402633667,1.8310546875,-4.119873046875,-0.1220703125
15.4899999,1.9105730056762695,-5.980715751647949,7.295132637023926,1.40380859375,-2.655029296875,2.6397705078125
15.5099999,1.8770540952682495,-5.918466567993164,7.259219646453857,0.67138671875,-4.1351318359375,5.5999755859375
15.5299999,1.8794482946395874,-5.949591159820557,7.232883453369141,0.2593994140625,-2.50244140625,4.4708251953125
15.549999900000001,1.9033904075622559,-6.088454723358154,7.223306655883789,-1.7852783203125,-0.6256103515625,3.173828125
15.569999900000001,1.9536685943603516,-6.287173748016357,7.230489253997803,-2.532958984375,-2.777099609375,3.6468505859375
15.5899999,2.008735179901123,-6.509834289550781,7.237671852111816,1.4801025390625,-2.0904541015625,2.716064453125
15.6099999,2.056619167327881,-6.715735912322998,7.242460250854492,2.5177001953125,-0.213623046875,1.678466796875
15.629999900000001,2.0925323963165283,-6.871358871459961,7.237671852111816,0.9918212890625,-1.2664794921875,0.2288818359375
15.649999900000001,2.1140801906585693,-6.967126846313477,7.232883453369141,-0.06103515625,-0.8544921875,-2.8228759765625
15.6699999,2.1308395862579346,-6.976703643798828,7.242460250854492,2.3193359375,1.6021728515625,-5.950927734375
15.6899999,2.1284453868865967,-6.926425457000732,7.261613845825195,3.7994384765625,0.7171630859375,-4.4403076171875
15.709999900000001,2.118868589401245,-6.8162922859191895,7.2783732414245605,4.180908203125,-2.0294189453125,-2.8076171875
15.729999900000001,2.0877439975738525,-6.66785192489624,7.29034423828125,4.1046142578125,-0.1373291015625,-4.425048828125
15.7499999,2.0374655723571777,-6.502651691436768,7.295132637023926,1.7852783203125,1.068115234375,-4.3792724609375
15.7699999,1.98958158493042,-6.339846134185791,7.292738437652588,0.4730224609375,-1.5411376953125,-2.9449462890625
15.789999900000002,1.946485996246338,-6.19379997253418,7.292738437652588,0.2288818359375,-1.556396484375,-1.617431640625
15.809999900000001,1.9249382019042969,-6.088454723358154,7.287950038909912,1.3275146484375,-0.5645751953125,-0.030517578125
15.8299999,1.9297266006469727,-6.045359134674072,7.285555839538574,-0.5950927734375,-1.3427734375,2.0294189453125
15.8499999,1.9512743949890137,-6.064512729644775,7.2783732414245605,-2.0294189453125,-2.593994140625,2.5482177734375
15.869999900000002,1.9847931861877441,-6.143521785736084,7.268796443939209,-0.579833984375,-2.166748046875,2.7008056640625
15.889999900000001,2.0183119773864746,-6.246472358703613,7.252037048339844,1.9073486328125,-0.0152587890625,2.838134765625
15.9099999,2.0398597717285156,-6.354211330413818,7.230489253997803,2.7618408203125,2.0904541015625,1.6937255859375
15.9299999,2.0614075660705566,-6.452373504638672,7.2113356590271,0.48828125,1.03759765625,1.52587890625
15.9499999,2.0614075660705566,-6.521805286407471,7.208941459655762,-0.3509521484375,1.0528564453125,0.1220703125
15.969999900000001,2.051830768585205,-6.567295074462891,7.2352776527404785,1.2664794921875,3.204345703125,0.06103515625
15.9899999,2.032677173614502,-6.581660270690918,7.280767440795898,2.38037109375,2.8228759765625,0.1678466796875
16.0099999,2.013523578643799,-6.574477672576904,7.338228225708008,1.0223388671875,1.6326904296875,-0.0457763671875
16.0299999,1.9967641830444336,-6.560112476348877,7.398083209991455,-0.3814697265625,-0.1983642578125,0.3662109375
16.0499999,1.98958158493042,-6.5481414794921875,7.441178798675537,0.2899169921875,-0.701904296875,-0.3204345703125
16.0699999,1.9776105880737305,-6.543353080749512,7.467514991760254,1.556396484375,0.762939453125,-1.1749267578125
16.089999900000002,1.9632453918457031,-6.53377628326416,7.467514991760254,3.84521484375,0.244140625,-0.732421875
16.109999900000002,1.9488801956176758,-6.517016887664795,7.448361396789551,3.7841796875,-0.4119873046875,-0.762939453125
16.1299999,1.9321208000183105,-6.481103897094727,7.41484260559082,1.0528564453125,-0.5340576171875,-1.434326171875
16.1499999,1.922544002532959,-6.428431510925293,7.378929615020752,2.6092529296875,-0.274658203125,-0.762939453125
16.1699999,1.9177556037902832,-6.361393928527832,7.347805023193359,6.256103515625,0.640869140625,1.0528564453125
16.1899999,1.9153614044189453,-6.291962146759033,7.331045627593994,5.3863525390625,1.3275146484375,1.5411376953125
16.2099999,1.9105730056762695,-6.236895561218262,7.326257228851318,-0.9765625,0.3509521484375,0.9765625
16.2299999,1.9129672050476074,-6.208165168762207,7.326257228851318,-3.875732421875,-1.4801025390625,0.9307861328125
16.249999900000002,1.9153614044189453,-6.224924564361572,7.340622425079346,-3.509521484375,-0.9613037109375,1.5869140625
16.269999900000002,1.922544002532959,-6.277596950531006,7.350199222564697,-1.9683837890625,-0.213623046875,1.4801025390625
16.2899999,1.9321208000183105,-6.358999729156494,7.362170219421387,-1.617431640625,-0.06103515625,0.9307861328125
16.3099999,1.944091796875,-6.445190906524658,7.3693528175354,-0.9307861328125,0.030517578125,-0.3204345703125
16.3299999,1.944091796875,-6.507440090179443,7.38132381439209,1.190185546875,1.220703125,-1.6937255859375
16.3499999,1.946485996246338,-6.54574728012085,7.395689010620117,1.6937255859375,2.0599365234375,-1.2664794921875
16.3699999,1.9369091987609863,-6.5481414794921875,7.4100542068481445,-0.2899169921875,-0.152587890625,0
16.3899999,1.9297266006469727,-6.5265936851501465,7.419631004333496,-0.4425048828125,-1.1749267578125,-0.8544921875
16.4099999,1.9177556037902832,-6.493074893951416,7.4316020011901855,0.152587890625,0.762939453125,-2.166748046875
16.429999900000002,1.9057846069335938,-6.457161903381348,7.436390399932861,0.6103515625,-0.640869140625,-0.9613037109375
16.4499999,1.8938134908676147,-6.40927791595459,7.441178798675537,0.457763671875,-1.52587890625,-1.190185546875
16.4699999,1.8722656965255737,-6.3518171310424805,7.443572998046875,0.4119873046875,-0.4730224609375,-1.4801025390625
16.4899999,1.8483237028121948,-6.289567947387695,7.445967197418213,-0.9307861328125,-1.2664794921875,-0.0152587890625
16.5099999,1.8267759084701538,-6.234501361846924,7.445967197418213,-1.28173828125,-2.685546875,2.044677734375
16.5299999,1.8195933103561401,-6.208165168762207,7.436390399932861,-0.8087158203125,-3.7384033203125,3.631591796875
16.5499999,1.821987509727478,-6.212953567504883,7.417236804962158,-1.3885498046875,-3.6468505859375,3.2196044921875
16.5699999,1.8387469053268433,-6.244078159332275,7.390900611877441,-0.9307861328125,-0.8087158203125,0.9307861328125
16.589999900000002,1.8531121015548706,-6.287173748016357,7.3669586181640625,-1.2054443359375,-0.5035400390625,1.4801025390625
16.609999900000002,1.8698714971542358,-6.325480937957764,7.3454108238220215,-1.3885498046875,-3.173828125,2.7923583984375
16.6299999,1.8794482946395874,-6.368576526641846,7.33583402633667,-2.8533935546875,-1.89208984375,2.1820068359375
16.6499999,1.886630892753601,-6.414066314697266,7.321468830108643,-1.40380859375,-0.6561279296875,1.953125
16.6699999,1.8818424940109253,-6.471527099609375,7.311892032623291,-1.3427734375,-1.46484375,2.349853515625
16.6899999,1.8770540952682495,-6.531382083892822,7.314286231994629,-2.7008056640625,-1.007080078125,0.9918212890625
16.7099999,1.8818424940109253,-6.581660270690918,7.3238630294799805,-1.6326904296875,-1.2664794921875,0.396728515625
16.7299999,1.8986018896102905,-6.6127848625183105,7.33583402633667,-0.8392333984375,-1.4495849609375,0.5340576171875
16.749999900000002,1.920149803161621,-6.6127848625183105,7.3454108238220215,-0.823974609375,-0.946044921875,-0.3509521484375
16.769999900000002,1.9273324012756348,-6.584054470062256,7.3454108238220215,-0.6103515625,-0.3814697265625,-1.28173828125
16.7899999,1.9105730056762695,-6.54574728012085,7.347805023193359,-0.4730224609375,-0.2593994140625,-0.91552734375
16.8099999,1.8794482946395874,-6.50025749206543,7.354987621307373,-0.762939453125,-0.8697509765625,0.1068115234375
16.8299999,1.8531121015548706,-6.471527099609375,7.362170219421387,-0.6103515625,-1.9683837890625,0.48828125
16.8499999,1.8411411046981812,-6.466738700866699,7.374141216278076,-0.0457763671875,-1.8157958984375,0.2899169921875
16.8699999,1.8483237028121948,-6.478709697723389,7.38132381439209,1.220703125,-0.7476806640625,-0.244140625
16.8899999,1.8602946996688843,-6.497863292694092,7.378929615020752,1.6021728515625,-0.823974609375,-0.7781982421875
16.9099999,1.8698714971542358,-6.507440090179443,7.371747016906738,1.03759765625,-1.52587890625,-0.9613037109375
16.929999900000002,1.8770540952682495,-6.495469093322754,7.352593421936035,-0.1373291015625,-1.739501953125,-0.9613037109375
16.9499999,1.8794482946395874,-6.471527099609375,7.328651428222656,0.1068115234375,-0.8697509765625,-0.6561279296875
16.9699999,1.8770540952682495,-6.449979305267334,7.311892032623291,0.3204345703125,-0.4119873046875,-0.4425048828125
16.9899999,1.867477297782898,-6.435614109039307,7.311892032623291,1.1749267578125,-0.6866455078125,-0.67138671875
17.0099999,1.8555063009262085,-6.433219909667969,7.321468830108643,2.6092529296875,-0.8697509765625,-0.030517578125
17.0299999,1.8531121015548706,-6.433219909667969,7.33583402633667,2.3193359375,-1.312255859375,0.42724609375
17.0499999,1.8555063009262085,-6.4380083084106445,7.3454108238220215,0.335693359375,-1.373291015625,-0.3662109375
17.0699999,1.867477297782898,-6.44279670715332,7.354987621307373,0.396728515625,-0.823974609375,-1.190185546875
17.089999900000002,1.8746598958969116,-6.449979305267334,7.362170219421387,1.373291015625,-0.7476806640625,-1.129150390625
17.109999900000002,1.8746598958969116,-6.452373504638672,7.3693528175354,-0.0457763671875,-1.0223388671875,-1.0528564453125
17.1299999,1.867477297782898,-6.447585105895996,7.362170219421387,-0.79345703125,-1.2664794921875,-0.9613037109375
17.1499999,1.8579005002975464,-6.445190906524658,7.352593421936035,-1.4801025390625,-0.9002685546875,-1.068115234375
17.1699999,1.8483237028121948,-6.4380083084106445,7.338228225708008,-1.068115234375,-0.8087158203125,-1.0528564453125
17.1899999,1.8531121015548706,-6.426037311553955,7.3238630294799805,0.213623046875,-0.762939453125,-0.885009765625
17.2099999,1.8602946996688843,-6.411672115325928,7.309497833251953,-0.1373291015625,-0.9918212890625,0
17.2299999,1.8770540952682495,-6.3949127197265625,7.299921035766602,-0.6103515625,-1.1138916015625,0.7171630859375
17.249999900000002,1.8770540952682495,-6.378153324127197,7.295132637023926,-0.91552734375,0.5340576171875,-0.5645751953125
17.269999900000002,1.867477297782898,-6.375759124755859,7.299921035766602,-1.8768310546875,-0.1373291015625,-0.1983642578125
17.2899999,1.8483237028121948,-6.382941722869873,7.311892032623291,-1.861572265625,-1.556396484375,0.946044921875
17.3099999,1.8291701078414917,-6.402095317840576,7.328651428222656,-0.8697509765625,-0.274658203125,1.4495849609375
17.3299999,1.824381709098816,-6.433219909667969,7.3454108238220215,-0.5340576171875,-0.213623046875,1.007080078125
17.3499999,1.8315643072128296,-6.473921298980713,7.362170219421387,0.213623046875,-0.640869140625,0.7476806640625
17.3699999,1.8411411046981812,-6.521805286407471,7.378929615020752,-0.732421875,-0.518798828125,-0.06103515625
17.3899999,1.8507179021835327,-6.5481414794921875,7.393294811248779,-0.8392333984375,-0.5340576171875,-1.2054443359375
17.409999900000003,1.8483237028121948,-6.555324077606201,7.407660007476807,-0.3662109375,-0.6103515625,-0.9002685546875
17.429999900000002,1.845929503440857,-6.531382083892822,7.407660007476807,-0.5645751953125,-1.8463134765625,-0.4119873046875
17.4499999,1.8411411046981812,-6.48828649520874,7.390900611877441,-0.79345703125,-2.3956298828125,0.152587890625
17.4699999,1.8387469053268433,-6.449979305267334,7.362170219421387,-0.2899169921875,-1.1444091796875,0.457763671875
17.4899999,1.8387469053268433,-6.433219909667969,7.331045627593994,-0.4730224609375,-0.6561279296875,0.579833984375
17.5099999,1.8411411046981812,-6.445190906524658,7.309497833251953,-0.5950927734375,-1.220703125,0.3662109375
17.5299999,1.8387469053268433,-6.478709697723389,7.309497833251953,-0.701904296875,-1.495361328125,-0.1373291015625
17.5499999,1.8411411046981812,-6.514622688293457,7.3238630294799805,-0.152587890625,-1.15966796875,-0.762939453125
17.5699999,1.843535304069519,-6.536170482635498,7.338228225708008,0.6866455078125,-0.79345703125,-0.9918212890625
17.589999900000002,1.845929503440857,-6.536170482635498,7.347805023193359,-0.274658203125,-1.1138916015625,-1.251220703125
17.609999900000002,1.845929503440857,-6.519411087036133,7.350199222564697,-0.9307861328125,-1.556396484375,-0.9918212890625
17.6299999,1.8411411046981812,-6.490680694580078,7.3454108238220215,-0.213623046875,-1.1138916015625,-0.3204345703125
17.6499999,1.8363527059555054,-6.466738700866699,7.33583402633667,0.30517578125,-1.251220703125,0.06103515625
17.6699999,1.8387469053268433,-6.447585105895996,7.328651428222656,-0.3662109375,-1.556396484375,0.1220703125
17.6899999,1.8411411046981812,-6.428431510925293,7.319074630737305,-0.30517578125,-1.5106201171875,-0.152587890625
17.7099999,1.8387469053268433,-6.411672115325928,7.309497833251953,-1.312255859375,-1.5869140625,0.3814697265625
17.7299999,1.8339585065841675,-6.399701118469238,7.299921035766602,-2.1514892578125,-2.3345947265625,1.52587890625
17.749999900000002,1.8291701078414917,-6.392518520355225,7.292738437652588,-2.0294189453125,-2.74658203125,2.197265625
17.769999900000002,1.8315643072128296,-6.4164605140686035,7.29034423828125,-1.556396484375,-2.1514892578125,2.044677734375
17.7899999,1.843535304069519,-6.466738700866699,7.297526836395264,-0.732421875,-1.1749267578125,1.434326171875
17.8099999,1.8602946996688843,-6.550535678863525,7.311892032623291,-0.213623046875,-0.54931640625,-0.06103515625
17.8299999,1.867477297782898,-6.651092529296875,7.326257228851318,-0.3509521484375,-0.1220703125,-1.5411376953125
17.8499999,1.8770540952682495,-6.742072105407715,7.340622425079346,0.701904296875,-0.7476806640625,-2.6702880859375
17.8699999,1.8818424940109253,-6.782773494720459,7.350199222564697,1.3580322265625,0.091552734375,-4.5623779296875
17.8899999,1.8818424940109253,-6.75883150100708,7.347805023193359,1.4495849609375,-0.3814697265625,-3.997802734375
17.909999900000003,1.8914192914962769,-6.658275127410889,7.328651428222656,2.3345947265625,-2.74658203125,-1.7547607421875
17.929999900000002,1.8794482946395874,-6.509834289550781,7.299921035766602,1.8768310546875,-1.007080078125,-1.64794921875
17.9499999,1.8626888990402222,-6.349422931671143,7.268796443939209,1.2359619140625,0.701904296875,-1.2359619140625
17.9699999,1.8363527059555054,-6.224924564361572,7.249642848968506,0.1373291015625,-1.03759765625,0.762939453125
17.9899999,1.802833914756775,-6.162675380706787,7.261613845825195,-1.1444091796875,-1.495361328125,1.6326904296875
18.0099999,1.7908629179000854,-6.18182897567749,7.297526836395264,-0.6561279296875,-1.617431640625,3.021240234375
18.0299999,1.7908629179000854,-6.27280855178833,7.343016624450684,0.091552734375,-2.288818359375,3.0364990234375
18.0499999,1.8148049116134644,-6.411672115325928,7.38132381439209,-0.335693359375,-2.3040771484375,1.800537109375
18.0699999,1.8507179021835327,-6.557718276977539,7.402871608734131,-0.6256103515625,-1.4495849609375,-0.8087158203125
18.089999900000002,1.8794482946395874,-6.670246124267578,7.398083209991455,-0.1220703125,-0.762939453125,-1.8310546875
18.109999900000002,1.8914192914962769,-6.715735912322998,7.364564418792725,1.52587890625,-1.068115234375,-2.593994140625
18.1299999,1.889025092124939,-6.6846113204956055,7.316680431365967,1.46484375,-0.3814697265625,-2.6397705078125
18.1499999,1.8722656965255737,-6.596025466918945,7.259219646453857,-0.091552734375,-0.48828125,-1.495361328125
18.1699999,1.8555063009262085,-6.495469093322754,7.2137298583984375,-1.800537109375,-1.251220703125,0.396728515625
18.1899999,1.843535304069519,-6.40927791595459,7.1921820640563965,-1.434326171875,-0.4425048828125,0.0762939453125
18.2099999,1.8363527059555054,-6.366182327270508,7.206547260284424,-0.8087158203125,0.7781982421875,-0.6256103515625
18.2299999,1.824381709098816,-6.361393928527832,7.24485445022583,-0.7171630859375,0.030517578125,0.6103515625
18.249999900000002,1.8148049116134644,-6.387730121612549,7.295132637023926,-0.3509521484375,-0.823974609375,0.885009765625
18.269999900000002,1.8076223134994507,-6.423643112182617,7.340622425079346,-0.3662109375,-0.91552734375,0.885009765625
18.2899999,1.8124107122421265,-6.464344501495361,7.3693528175354,-1.1138916015625,-1.2969970703125,1.1444091796875
18.3099999,1.824381709098816,-6.502651691436768,7.376535415649414,-1.800537109375,-1.556396484375,1.129150390625
18.3299999,1.843535304069519,-6.528987884521484,7.374141216278076,-0.9002685546875,-1.3885498046875,0.518798828125
18.3499999,1.8579005002975464,-6.552929878234863,7.362170219421387,0.1373291015625,-1.007080078125,-0.030517578125
18.3699999,1.8626888990402222,-6.564900875091553,7.352593421936035,0.6866455078125,-0.579833984375,-0.3814697265625
18.3899999,1.8579005002975464,-6.567295074462891,7.347805023193359,-0.0152587890625,-1.1138916015625,-0.3204345703125
18.409999900000003,1.845929503440857,-6.552929878234863,7.3454108238220215,-0.5340576171875,-2.044677734375,-0.1678466796875
18.429999900000002,1.8339585065841675,-6.5265936851501465,7.33583402633667,-0.6103515625,-2.2430419921875,0.2288818359375
18.4499999,1.824381709098816,-6.493074893951416,7.316680431365967,-1.129150390625,-1.8463134765625,0.42724609375
18.4699999,1.8195933103561401,-6.464344501495361,7.287950038909912,-0.6256103515625,-1.6021728515625,0.8544921875
18.4899999,1.8195933103561401,-6.445190906524658,7.2568254470825195,0.457763671875,-1.2359619140625,1.3885498046875
18.5099999,1.824381709098816,-6.447585105895996,7.240066051483154,0.2593994140625,-0.946044921875,1.2969970703125
18.5299999,1.8291701078414917,-6.473921298980713,7.240066051483154,-0.396728515625,-0.5035400390625,0.8697509765625
18.5499999,1.8339585065841675,-6.512228488922119,7.254431247711182,-0.54931640625,-0.6561279296875,0.06103515625
18.5699999,1.8315643072128296,-6.552929878234863,7.280767440795898,-0.6866455078125,-0.8392333984375,-0.3662109375
18.589999900000002,1.821987509727478,-6.581660270690918,7.307103633880615,-0.946044921875,-0.885009765625,-0.2288818359375
18.609999900000002,1.8100165128707886,-6.586448669433594,7.319074630737305,-0.30517578125,-1.3275146484375,-0.2288818359375
18.6299999,1.8052281141281128,-6.562506675720215,7.311892032623291,0.7781982421875,-0.8392333984375,0.213623046875
18.6499999,1.8052281141281128,-6.528987884521484,7.297526836395264,-0.091552734375,-0.54931640625,0.67138671875
18.6699999,1.8100165128707886,-6.50025749206543,7.287950038909912,-0.6256103515625,-0.3814697265625,0.640869140625
18.6899999,1.8124107122421265,-6.490680694580078,7.292738437652588,0.30517578125,-0.4425048828125,0.5340576171875
18.7099999,1.8124107122421265,-6.512228488922119,7.316680431365967,-0.4730224609375,-1.312255859375,0.5340576171875
18.7299999,1.802833914756775,-6.5481414794921875,7.340622425079346,-0.6103515625,-1.89208984375,0.54931640625
18.749999900000002,1.802833914756775,-6.576871871948242,7.352593421936035,-0.7171630859375,-1.9073486328125,-0.6256103515625
18.769999900000002,1.7956513166427612,-6.581660270690918,7.347805023193359,-1.8768310546875,-0.67138671875,-1.922607421875
18.7899999,1.8052281141281128,-6.562506675720215,7.321468830108643,-1.8157958984375,-1.8463134765625,-0.030517578125
18.8099999,1.8100165128707886,-6.528987884521484,7.287950038909912,-1.4495849609375,-2.410888671875,0.762939453125
18.8299999,1.8124107122421265,-6.495469093322754,7.254431247711182,-1.7852783203125,-0.732421875,0.1983642578125
18.8499999,1.8100165128707886,-6.476315498352051,7.223306655883789,-1.6632080078125,-1.1138916015625,0.244140625
18.8699999,1.8076223134994507,-6.476315498352051,7.206547260284424,-1.373291015625,-1.220703125,1.312255859375
18.8899999,1.8124107122421265,-6.490680694580078,7.19936466217041,-1.007080078125,-0.396728515625,0.8697509765625
18.909999900000003,1.821987509727478,-6.521805286407471,7.201758861541748,-0.885009765625,-0.1373291015625,0.54931640625
18.929999900000002,1.8339585065841675,-6.555324077606201,7.206547260284424,0.274658203125,0.1068115234375,0.1983642578125
18.9499999,1.8363527059555054,-6.586448669433594,7.223306655883789,2.2430419921875,1.0833740234375,-0.3509521484375
18.9699999,1.824381709098816,-6.607996463775635,7.24485445022583,3.96728515625,1.6326904296875,0
18.9899999,1.8076223134994507,-6.627150535583496,7.280767440795898,2.288818359375,0.9307861328125,0.0762939453125
19.0099999,1.7908629179000854,-6.63433313369751,7.321468830108643,2.227783203125,-0.2899169921875,-0.91552734375
19.0299999,1.7836803197860718,-6.636727333068848,7.354987621307373,3.387451171875,-0.67138671875,-0.8087158203125
19.0499999,1.7860745191574097,-6.627150535583496,7.3693528175354,2.2125244140625,-1.617431640625,0.42724609375
19.0699999,1.7884687185287476,-6.598419666290283,7.357381820678711,3.631591796875,-0.762939453125,-0.579833984375
19.089999900000002,1.7836803197860718,-6.567295074462891,7.33583402633667,5.767822265625,1.312255859375,-0.396728515625
19.109999900000002,1.778891921043396,-6.531382083892822,7.311892032623291,4.8828125,-0.1068115234375,0.274658203125
19.1299999,1.766920804977417,-6.5050458908081055,7.311892032623291,2.1514892578125,-0.6561279296875,-0.6561279296875
19.1499999,1.7549498081207275,-6.485892295837402,7.333439826965332,2.105712890625,-0.2288818359375,-0.9765625
19.1699999,1.7477672100067139,-6.4834980964660645,7.3669586181640625,2.9449462890625,-0.6103515625,0.18310546875
19.1899999,1.7381904125213623,-6.48828649520874,7.4100542068481445,2.62451171875,-0.7781982421875,-0.091552734375
19.2099999,1.7381904125213623,-6.512228488922119,7.4555439949035645,0.3509521484375,-1.678466796875,-1.3885498046875
19.2299999,1.745373010635376,-6.5481414794921875,7.4986395835876465,0.3509521484375,-2.5177001953125,-1.983642578125
19.249999900000002,1.7621324062347412,-6.5912370681762695,7.5417351722717285,1.03759765625,-2.716064453125,-2.1514892578125
19.269999900000002,1.7860745191574097,-6.62236213684082,7.570465564727783,1.068115234375,-3.6468505859375,-3.0670166015625
19.2899999,1.802833914756775,-6.641515731811523,7.577648162841797,-1.28173828125,-5.2337646484375,-3.8909912109375
19.3099999,1.821987509727478,-6.629544734954834,7.556100368499756,-0.3662109375,-5.462646484375,-5.035400390625
19.3299999,1.8267759084701538,-6.584054470062256,7.501033782958984,3.7841796875,-4.791259765625,-4.241943359375
19.3499999,1.821987509727478,-6.507440090179443,7.436390399932861,9.521484375,-4.1351318359375,-2.2430419921875
19.3699999,1.8124107122421265,-6.392518520355225,7.3454108238220215,25.421142578125,1.52587890625,1.3580322265625
19.3899999,1.8100165128707886,-6.2632317543029785,7.249642848968506,33.447265625,7.75146484375,6.34765625
19.409999900000003,1.8100165128707886,-6.150704383850098,7.204153060913086,19.34814453125,5.0506591796875,4.608154296875
19.429999900000002,1.800439715385437,-6.057330131530762,7.208941459655762,13.5345458984375,-0.4119873046875,0.2899169921875
19.4499999,1.7932571172714233,-6.00226354598999,7.266402244567871,26.91650390625,-0.67138671875,1.8463134765625
19.4699999,1.766920804977417,-5.9735331535339355,7.376535415649414,26.3824462890625,1.922607421875,4.0130615234375
19.4899999,1.7501614093780518,-5.971138954162598,7.50582218170166,20.721435546875,3.0517578125,2.838134765625
19.5099999,1.7334020137786865,-5.978321552276611,7.673416614532471,21.881103515625,1.0833740234375,0.48828125
19.5299999,1.7286136150360107,-5.978321552276611,7.82185697555542,37.933349609375,-0.213623046875,1.220703125
19.5499999,1.7262194156646729,-5.9519853591918945,7.948749542236328,48.9959716796875,1.3275146484375,3.570556640625
19.5699999,1.721431016921997,-5.880159378051758,8.030152320861816,36.834716796875,0.1678466796875,3.204345703125
19.589999900000002,1.7142484188079834,-5.774814605712891,8.061277389526367,29.3426513671875,-4.6234130859375,2.3040771484375
19.609999900000002,1.7046716213226318,-5.633556365966797,8.070854187011719,35.09521484375,-4.9591064453125,3.4942626953125
19.6299999,1.699883222579956,-5.494692802429199,8.075642585754395,33.50830078125,-1.6021728515625,6.256103515625
19.6499999,1.702277421951294,-5.363011837005615,8.068459510803223,19.989013671875,-0.91552734375,5.55419921875
19.6699999,1.7070658206939697,-5.262455463409424,8.075642585754395,3.814697265625,-2.6397705078125,0.9002685546875
19.6899999,1.7046716213226318,-5.2049946784973145,8.111555099487305,-4.82177734375,-4.180908203125,-1.5716552734375
19.7099999,1.7046716213226318,-5.183446884155273,8.159439086914062,-1.6632080078125,-2.7923583984375,0.762939453125
19.7299999,1.699883222579956,-5.202600479125977,8.219294548034668,-1.8157958984375,-0.0152587890625,2.7313232421875
19.749999900000002,1.699883222579956,-5.243301868438721,8.26478385925293,-3.72314453125,-0.5645751953125,1.3427734375
19.769999900000002,1.6950948238372803,-5.298368453979492,8.29590892791748,4.0283203125,-0.823974609375,0.1373291015625
19.7899999,1.6879122257232666,-5.3342814445495605,8.310274124145508,14.09912109375,1.3427734375,1.0986328125
19.8099999,1.680729627609253,-5.34625244140625,8.31985092163086,11.9476318359375,1.556396484375,1.373291015625
19.8299999,1.6711528301239014,-5.322310447692871,8.327033042907715,6.866455078125,-0.823974609375,-0.2899169921875
19.8499999,1.6711528301239014,-5.276820659637451,8.329427719116211,13.1683349609375,-1.861572265625,-0.5340576171875
19.8699999,1.6663644313812256,-5.216965675354004,8.346187591552734,14.739990234375,0,0.1678466796875
19.8899999,1.6639702320098877,-5.1595048904418945,8.365341186523438,8.209228515625,0.0762939453125,0.4119873046875
19.909999900000003,1.6615760326385498,-5.094861030578613,8.370129585266113,4.3792724609375,-1.5106201171875,0.335693359375
19.929999900000002,1.6543933153152466,-5.056553840637207,8.382100105285645,2.5482177734375,-1.3427734375,0.885009765625
19.9499999,1.6519991159439087,-5.023035049438477,8.367734909057617,10.0860595703125,1.129150390625,2.105712890625
19.9699999,1.6496049165725708,-5.006275653839111,8.35097599029541,11.2762451171875,3.4027099609375,2.9144287109375
19.9899999,1.644816517829895,-4.999093055725098,8.35097599029541,4.058837890625,2.44140625,1.4801025390625
20.0099999,1.6376339197158813,-4.987122058868408,8.360552787780762,8.11767578125,1.739501953125,0.7171630859375
20.0299999,1.6280571222305298,-4.977545261383057,8.391676902770996,19.989013671875,5.2490234375,3.0059814453125
20.0499999,1.601720929145813,-4.960785865783691,8.44195556640625,20.050048828125,8.087158203125,3.875732421875
20.0699999,1.580173134803772,-4.924872875213623,8.485051155090332,16.4337158203125,6.1187744140625,3.2501220703125
20.089999900000002,1.5514427423477173,-4.869806289672852,8.516175270080566,12.4969482421875,3.84521484375,2.899169921875
20.109999900000002,1.5298948287963867,-4.817133903503418,8.554482460021973,4.913330078125,2.655029296875,2.227783203125
20.1299999,1.5107412338256836,-4.776432514190674,8.588001251220703,-1.0833740234375,1.1749267578125,1.373291015625
20.1499999,1.4963760375976562,-4.766855716705322,8.633491516113281,-0.8087158203125,-0.396728515625,0.5645751953125
20.1699999,1.482010841369629,-4.795586109161377,8.686163902282715,1.5869140625,-0.8087158203125,0.396728515625
20.1899999,1.4652514457702637,-4.831499099731445,8.7268648147583,4.8828125,-0.2288818359375,0.396728515625
20.2099999,1.45806884765625,-4.853046894073486,8.736441612243652,6.1492919921875,-0.5950927734375,-0.0457763671875
20.2299999,1.455674648284912,-4.843470096588135,8.712499618530273,4.913330078125,-1.3275146484375,-0.335693359375
20.249999900000002,1.4628572463989258,-4.809951305389404,8.669404029846191,3.0670166015625,-0.8392333984375,-0.5645751953125
20.269999900000002,1.4676456451416016,-4.76924991607666,8.621520042419434,4.39453125,-0.1678466796875,-0.518798828125
20.2899999,1.4724340438842773,-4.726154327392578,8.585607528686523,7.9193115234375,0.79345703125,-0.1678466796875
20.3099999,1.4700398445129395,-4.6950297355651855,8.580819129943848,5.584716796875,1.0223388671875,-0.5340576171875
20.3299999,1.4700398445129395,-4.668693542480469,8.583212852478027,5.3253173828125,0.091552734375,-0.8087158203125
20.3499999,1.4748282432556152,-4.6471452713012695,8.60236644744873,6.6070556640625,0.3814697265625,-0.8087158203125
20.3699999,1.4724340438842773,-4.63517427444458,8.621520042419434,7.080078125,1.4495849609375,0.67138671875
20.3899999,1.4700398445129395,-4.6255974769592285,8.640673637390137,6.28662109375,1.953125,0.8087158203125
20.409999900000003,1.45806884765625,-4.620809078216553,8.671798706054688,4.9591064453125,1.64794921875,-1.0833740234375
20.429999900000002,1.4389152526855469,-4.608838081359863,8.695740699768066,10.223388671875,1.77001953125,0.213623046875
20.4499999,1.4221558570861816,-4.587290287017822,8.71728801727295,14.0380859375,3.4027099609375,1.2359619140625
20.4699999,1.400607943534851,-4.541800498962402,8.724471092224121,7.476806640625,2.838134765625,-0.0457763671875
20.4899999,1.3838485479354858,-4.49870491027832,8.729259490966797,-5.0201416015625,-0.8392333984375,-1.312255859375
20.5099999,1.3646949529647827,-4.455609321594238,8.746018409729004,-6.8511962890625,-2.25830078125,-1.6632080078125
20.5299999,1.3479355573654175,-4.436455726623535,8.777143478393555,2.25830078125,0.3662109375,-0.0152587890625
20.5499999,1.338358759880066,-4.436455726623535,8.808267593383789,7.8887939453125,1.617431640625,1.52587890625
20.5699999,1.3335703611373901,-4.446032524108887,8.822632789611816,5.2947998046875,0.396728515625,1.0223388671875
20.589999900000002,1.338358759880066,-4.460397720336914,8.815450668334961,0.91552734375,-1.28173828125,-0.06103515625
20.609999900000002,1.3503297567367554,-4.477157115936279,8.793902397155762,1.434326171875,-1.190185546875,-0.030517578125
20.6299999,1.3623007535934448,-4.486733913421631,8.765172004699707,5.340576171875,0.9002685546875,0.2288818359375
20.6499999,1.3742717504501343,-4.49870491027832,8.753201484680176,3.9520263671875,1.190185546875,-0.213623046875
20.6699999,1.37906014919281,-4.503493309020996,8.755595207214355,2.38037109375,0.2899169921875,-0.0457763671875
20.6899999,1.3766659498214722,-4.4939165115356445,8.767566680908203,5.3863525390625,0.579833984375,0.152587890625
20.7099999,1.3646949529647827,-4.469974517822266,8.78193187713623,7.0037841796875,1.4495849609375,0.2593994140625
