# Time (seconds),Accel_X,Accel_Y,Accel_Z,Gyro_X,Gyro_Y,Gyro_Z
0.0099999,9.23682975769043,-1.6208745241165161,3.1459810733795166,-0.3204345703125,0.457763671875,6.65283203125
0.029999900000000003,9.344569206237793,-1.6879122257232666,3.134010076522827,0.5340576171875,-3.1280517578125,5.4473876953125
0.0499999,9.445125579833984,-1.7286136150360107,3.0526070594787598,0.0152587890625,-4.1046142578125,4.241943359375
0.0699999,9.521739959716797,-1.7381904125213623,2.911349296569824,-0.3509521484375,-4.7607421875,1.708984375
0.08999990000000001,9.569623947143555,-1.7310078144073486,2.734178304672241,-2.74658203125,-5.340576171875,2.8533935546875
0.10999990000000001,9.579200744628906,-1.7118542194366455,2.5498247146606445,-5.645751953125,-5.218505859375,4.0130615234375
0.1299999,9.57441234588623,-1.6903064250946045,2.382230758666992,-7.7362060546875,-7.2479248046875,3.0670166015625
0.14999990000000002,9.516951560974121,-1.6376339197158813,2.2409727573394775,-8.9263916015625,-6.4849853515625,0.3509521484375
0.1699999,9.437943458557129,-1.5897499322891235,2.1763293743133545,-13.5650634765625,-5.92041015625,1.1749267578125
0.1899999,9.313444137573242,-1.5107412338256836,2.140416383743286,-15.838623046875,-3.997802734375,6.7901611328125
0.20999990000000002,9.217676162719727,-1.4508862495422363,2.2026655673980713,-12.3291015625,-5.9814453125,10.31494140625
0.2299999,9.181763648986816,-1.381454348564148,2.298433542251587,-6.317138671875,-6.4239501953125,10.1165771484375
0.2499999,9.255983352661133,-1.3766659498214722,2.473210334777832,-4.364013671875,-4.5623779296875,11.41357421875
0.2699999,9.425971984863281,-1.4173674583435059,2.7006595134735107,0.701904296875,1.739501953125,11.9476318359375
0.28999990000000003,9.639056205749512,-1.534683346748352,2.9448680877685547,7.8125,7.293701171875,11.0321044921875
0.3099999,9.84495735168457,-1.7070658206939697,3.184288263320923,9.857177734375,8.6212158203125,11.3525390625
0.3299999,10.02452278137207,-1.8698714971542358,3.3231520652770996,13.9923095703125,10.009765625,11.0931396484375
0.34999990000000003,10.153809547424316,-1.9536685943603516,3.3446998596191406,15.6402587890625,9.9639892578125,10.6658935546875
0.3699999,10.251971244812012,-1.920149803161621,3.2609026432037354,11.627197265625,2.960205078125,8.1024169921875
0.3899999,10.316615104675293,-1.7884687185287476,3.071760892868042,11.5814208984375,-5.8135986328125,5.950927734375
0.40999990000000003,10.347740173339844,-1.5897499322891235,2.8443117141723633,12.7716064453125,-8.209228515625,7.32421875
0.4299999,10.335768699645996,-1.3646949529647827,2.583343744277954,13.6871337890625,-8.0718994140625,7.537841796875
0.4499999,10.251971244812012,-1.158793568611145,2.2649147510528564,14.34326171875,-10.3759765625,5.8441162109375
0.4699999,10.11550235748291,-0.9600749015808105,1.9536685943603516,8.30078125,-12.1917724609375,5.828857421875
0.4899999,9.93354320526123,-0.7996633648872375,1.7118542194366455,5.950927734375,-6.0272216796875,7.87353515625
0.5099999,9.81143856048584,-0.7110779285430908,1.623268723487854,12.847900390625,2.777099609375,11.16943359375
0.5299999,9.749189376831055,-0.6823474764823914,1.6903064250946045,23.0255126953125,9.307861328125,11.1846923828125
0.5499999,9.758766174316406,-0.6703764796257019,1.8770540952682495,24.6124267578125,18.4173583984375,6.53076171875
0.5699999,9.758766174316406,-0.6057330369949341,2.0901381969451904,14.95361328125,19.561767578125,4.5013427734375
0.5899998999999999,9.672574996948242,-0.47884035110473633,2.365471363067627,4.8675537109375,13.4429931640625,9.4146728515625
0.6099998999999999,9.66539192199707,-0.35673606395721436,2.7030537128448486,6.7291259765625,24.90234375,32.7911376953125
0.6299999,9.583989143371582,-0.2849099934101105,3.1435868740081787,22.4609375,59.173583984375,27.0843505859375
0.6499999,9.672574996948242,-0.3232172429561615,3.6152446269989014,24.90234375,52.3529052734375,21.759033203125
0.6699999,9.66299819946289,-0.40222588181495667,4.072536945343018,7.0648193359375,42.266845703125,21.9879150390625
0.6899999,9.612719535827637,-0.5410895943641663,4.46518611907959,4.4097900390625,21.30126953125,25.2532958984375
0.7099999,9.461885452270508,-0.6727706789970398,4.7189717292785645,10.3607177734375,9.0179443359375,23.468017578125
0.7299998999999999,9.222464561462402,-0.8403648138046265,4.898536682128906,-2.4261474609375,17.9901123046875,20.9808349609375
0.7499998999999999,8.96149730682373,-1.0199298858642578,4.898536682128906,-9.9029541015625,12.75634765625,13.48876953125
0.7699999,8.676587104797363,-1.2306196689605713,4.790797710418701,-21.240234375,-1.77001953125,12.969970703125
0.7899999,8.317456245422363,-1.4891934394836426,4.630385875701904,-36.5753173828125,-15.0299072265625,7.3394775390625
0.8099999,7.977479934692383,-1.8195933103561401,4.441244125366211,-39.1845703125,-19.9737548828125,0.732421875
0.8299999,7.5848307609558105,-2.2457611560821533,4.259284973144531,-45.4254150390625,-36.4990234375,0.946044921875
0.8499998999999999,7.297526836395264,-2.698265314102173,4.039018154144287,-51.26953125,-37.4298095703125,6.378173828125
0.8699998999999999,6.861782073974609,-3.2130186557769775,3.713406801223755,-62.6983642578125,-23.1475830078125,-9.5367431640625
0.8899999,6.610390663146973,-3.641580820083618,3.4524388313293457,-92.681884765625,-18.1884765625,19.378662109375
0.9099999,6.31829833984375,-4.113238334655762,3.335123062133789,-112.48779296875,-40.46630859375,21.3470458984375
0.9299999,6.323086738586426,-4.611232280731201,3.584120035171509,-97.35107421875,-56.640625,8.758544921875
0.9499999,6.5696892738342285,-5.236119270324707,4.010287761688232,-48.248291015625,-29.4189453125,-10.1776123046875
0.9699998999999999,7.105990409851074,-5.940014362335205,4.627991676330566,-48.095703125,-17.1051025390625,-13.0615234375
0.9899998999999999,7.8745293617248535,-6.598419666290283,5.336675643920898,-76.568603515625,-38.055419921875,3.41796875
1.0099999,8.712499618530273,-7.074865818023682,6.0597243309021,-44.4488525390625,-25.9552001953125,-13.4735107421875
1.0299999,9.48343276977539,-7.206547260284424,6.773196697235107,12.2222900390625,4.486083984375,-36.7279052734375
1.0499999,9.986215591430664,-7.058106422424316,7.266402244567871,28.8543701171875,-19.95849609375,-37.261962890625
1.0699999,10.014945983886719,-6.605602264404297,7.2783732414245605,27.9998779296875,-62.9425048828125,-45.2423095703125
1.0899999,9.682151794433594,-6.069301128387451,6.7708024978637695,39.9017333984375,-67.1234130859375,-38.482666015625
1.1099999,9.251194953918457,-5.580883979797363,5.832275390625,42.8314208984375,-87.09716796875,-25.421142578125
1.1299999,8.889671325683594,-5.22175407409668,4.714183330535889,34.8052978515625,-106.719970703125,-49.4384765625
1.1499999,8.803479194641113,-4.98472785949707,3.5936968326568604,37.17041015625,-99.67041015625,-61.58447265625
1.1699998999999999,8.846575736999512,-4.800374507904053,2.6024973392486572,55.4656982421875,-82.4127197265625,-52.4139404296875
1.1899998999999999,8.882488250732422,-4.548983097076416,1.778891921043396,74.4171142578125,-58.837890625,-37.3077392578125
1.2099999,8.779537200927734,-4.290409564971924,1.1300631761550903,72.784423828125,-52.8411865234375,-27.862548828125
1.2299999,8.56645393371582,-4.015076160430908,0.6919242739677429,69.15283203125,-51.9561767578125,-28.961181640625
1.2499999,8.396465301513672,-3.8498764038085938,0.4908113479614258,77.4688720703125,-41.0919189453125,-25.81787109375
1.2699999,8.219294548034668,-3.804386615753174,0.44771572947502136,90.606689453125,-45.5780029296875,-23.25439453125
1.2899999,8.04930591583252,-3.8355112075805664,0.5267243981361389,92.132568359375,-52.5054931640625,-26.641845703125
1.3099999,7.9415669441223145,-3.892971992492676,0.5315127968788147,84.075927734375,-58.9141845703125,-24.688720703125
1.3299999,7.795520782470703,-3.914519786834717,0.3711012601852417,79.1778564453125,-77.4993896484375,-19.0277099609375
1.3499999,7.7213006019592285,-3.885789394378662,0.0933738648891449,77.1484375,-85.63232421875,-21.8048095703125
1.3699999,7.714118003845215,-3.821146011352539,-0.27054479718208313,84.5794677734375,-65.948486328125,-25.4974365234375
1.3899999,7.829039573669434,-3.797203779220581,-0.5913678407669067,94.4671630859375,-35.7208251953125,-22.4151611328125
1.4099999,8.039729118347168,-3.821146011352539,-0.7852981686592102,96.4813232421875,-32.0587158203125,-17.578125
1.4299998999999999,8.324639320373535,-3.8714241981506348,-0.9241618514060974,101.37939453125,-40.6036376953125,-24.7955322265625
1.4499999,8.62630844116211,-3.9432501792907715,-0.9481038451194763,106.0791015625,-32.4249267578125,-25.9246826171875
1.4699999,8.827422142028809,-3.9887399673461914,-0.9026140570640564,115.0970458984375,-15.31982421875,-19.744873046875
1.4899999,8.887276649475098,-4.027047157287598,-0.7972691655158997,127.410888671875,-16.021728515625,-13.61083984375
1.5099999,8.889671325683594,-4.113238334655762,-0.7398083209991455,133.880615234375,-33.14208984375,-8.453369140625
1.5299999,8.959102630615234,-4.20421838760376,-0.8954314589500427,134.4757080078125,-34.576416015625,-15.9149169921875
1.5499999,9.064447402954102,-4.32871675491333,-1.2689268589019775,127.6397705078125,-29.8004150390625,-26.9927978515625
1.5699999,9.105149269104004,-4.402936935424805,-1.778891921043396,117.7520751953125,-31.6925048828125,-32.0281982421875
1.5899999,9.033323287963867,-4.240131378173828,-2.169146776199341,111.9232177734375,-16.326904296875,-31.2652587890625
1.6099999,8.877699851989746,-4.010287761688232,-2.3247697353363037,114.898681640625,-1.3427734375,-23.5595703125
1.6299999,8.719682693481445,-3.780444383621216,-2.2912509441375732,117.4163818359375,-23.7274169921875,-11.6119384765625
1.6499999,8.580819129943848,-3.6511576175689697,-2.183511972427368,119.659423828125,-29.0069580078125,-12.542724609375
1.6699999,8.528146743774414,-3.5889084339141846,-2.0685901641845703,125.48828125,1.77001953125,-22.0947265625
1.6899998999999999,8.537723541259766,-3.6535518169403076,-1.9608511924743652,124.3438720703125,8.48388671875,-16.632080078125
1.7099999,8.616731643676758,-3.7876269817352295,-1.8507179021835327,125.18310546875,-15.838623046875,-9.58251953125
1.7299999,8.69095230102539,-3.9049429893493652,-1.8124107122421265,120.9869384765625,-37.5518798828125,-17.3492431640625
1.7499999,8.746018409729004,-4.036623954772949,-1.8363527059555054,106.6741943359375,-36.31591796875,-24.810791015625
1.7699999,8.78432559967041,-4.0749311447143555,-1.9321208000183105,101.0284423828125,-13.2598876953125,-14.404296875
1.7899999,8.832210540771484,-4.039018154144287,-2.073378562927246,107.1014404296875,-12.9547119140625,-7.720947265625
1.8099999,8.973467826843262,-3.976768970489502,-2.2649147510528564,112.1368408203125,-25.0396728515625,-15.350341796875
1.8299999,9.10993766784668,-3.8594532012939453,-2.4803929328918457,104.3243408203125,-10.1776123046875,-24.8870849609375
1.8499999,9.186552047729492,-3.6559460163116455,-2.609679937362671,87.70751953125,8.2855224609375,-21.5606689453125
1.8699999,9.10993766784668,-3.3470940589904785,-2.6168625354766846,85.693359375,-4.5318603515625,-14.46533203125
1.8899999,9.011775016784668,-3.004723072052002,-2.4684219360351562,94.818115234375,-17.4560546875,-10.955810546875
1.9099999,8.992621421813965,-2.779668092727661,-2.363077163696289,106.1553955078125,14.495849609375,-7.354736328125
1.9299998999999999,9.097966194152832,-2.7222073078155518,-2.346317768096924,96.4202880859375,41.748046875,-9.0179443359375
1.9499999,9.296685218811035,-2.801215887069702,-2.4396915435791016,72.2198486328125,27.1148681640625,-18.585205078125
1.9699999,9.526528358459473,-2.8179752826690674,-2.5785553455352783,58.28857421875,-0.9613037109375,-29.6630859375
1.9899999,9.720458984375,-2.7964274883270264,-2.719813108444214,54.2755126953125,-0.3204345703125,-26.5045166015625
2.0099999,9.832986831665039,-2.609679937362671,-2.9089550971984863,40.2374267578125,12.75634765625,-19.5770263671875
2.0299999,9.806650161743164,-2.3487119674682617,-3.0765492916107178,12.664794921875,6.4849853515625,-27.923583984375
2.0499999,9.667786598205566,-2.0829553604125977,-3.160346269607544,0.2288818359375,4.7760009765625,-34.0118408203125
2.0699999,9.440337181091309,-1.7094600200653076,-3.1962592601776123,12.8173828125,26.2451171875,-31.219482421875
2.0899999,9.248801231384277,-1.3192051649093628,-3.1268274784088135,8.453369140625,44.647216796875,-28.62548828125
2.1099999,9.229647636413574,-0.8762778043746948,-3.0166940689086914,-12.237548828125,47.454833984375,-36.8194580078125
2.1299999,9.404424667358398,-0.49559974670410156,-2.7748796939849854,-30.487060546875,34.72900390625,-48.7213134765625
2.1499999,9.617507934570312,-0.26336219906806946,-2.382230758666992,-26.5350341796875,12.6800537109375,-62.5762939453125
2.1699999,9.732429504394531,-0.1173158809542656,-1.9273324012756348,-12.3138427734375,0.732421875,-70.73974609375
2.1899999,9.658209800720215,0.035913024097681046,-1.5634137392044067,-15.4571533203125,-3.4027099609375,-63.6138916015625
2.2099999,9.442731857299805,0.2537853717803955,-1.434126853942871,-38.4674072265625,-2.166748046875,-40.3289794921875
2.2299999,9.14585018157959,0.5386953949928284,-1.4748282432556152,-72.509765625,1.6326904296875,-17.3187255859375
2.2499999,8.856152534484863,0.8595184087753296,-1.6041151285171509,-93.4295654296875,14.7247314453125,16.8914794921875
2.2699999,8.640673637390137,1.070208191871643,-1.5729905366897583,-94.2535400390625,44.1741943359375,76.995849609375
2.2899999,8.628703117370605,1.0438719987869263,-1.3479355573654175,-72.6318359375,59.051513671875,130.31005859375
2.3099999,8.908824920654297,0.7230489253997803,-1.0031704902648926,-59.356689453125,40.1153564453125,142.2271728515625
2.3299999,9.35654067993164,0.14844051003456116,-0.6512228846549988,-66.9708251953125,13.3056640625,114.2730712890625
2.3499999,9.77791976928711,-0.49559974670410156,-0.5003881454467773,-69.51904296875,-5.9356689453125,79.7119140625
2.3699999,9.964667320251465,-1.1180921792984009,-0.5267243981361389,-55.023193359375,-10.8489990234375,60.1348876953125
2.3899999,9.892841339111328,-1.6424223184585571,-0.6799532771110535,-29.2510986328125,9.8114013671875,57.861328125
2.4099999,9.804255485534668,-2.1499931812286377,-0.8236053586006165,-7.5531005859375,30.670166015625,58.258056640625
2.4299999,10.007762908935547,-2.655169725418091,-1.01753568649292,1.4495849609375,38.0096435546875,36.9110107421875
2.4499999,10.496180534362793,-3.1723172664642334,-1.0893617868423462,-18.1884765625,54.779052734375,-9.857177734375
2.4699999,11.190498352050781,-3.4811692237854004,-1.170764684677124,-42.083740234375,92.7734375,-54.19921875
2.4899999,11.774683952331543,-3.533841609954834,-1.0414776802062988,-55.755615234375,126.434326171875,-93.7347412109375
2.5099999,12.157755851745605,-3.1723172664642334,-0.7493851184844971,-79.2999267578125,139.251708984375,-114.4866943359375
2.5299999,12.15057373046875,-2.4468741416931152,-0.07182604819536209,-111.785888671875,151.0162353515625,-132.0037841796875
2.5499999,11.88002872467041,-1.4221558570861816,0.8547300100326538,-131.7596435546875,136.41357421875,-134.735107421875
2.5699999,11.245565414428711,-0.22026655077934265,1.8626888990402222,-120.8953857421875,105.2703857421875,-120.147705078125
2.5899999,10.38604736328125,0.9169792532920837,2.738966703414917,-105.3619384765625,92.437744140625,-92.2393798828125
2.6099999,9.588777542114258,1.8962076902389526,3.318363666534424,-113.7237548828125,89.4317626953125,-59.2803955078125
2.6299999,8.954314231872559,2.5306711196899414,3.751713991165161,-151.2603759765625,76.4617919921875,-37.4298095703125
2.6499999,8.607154846191406,2.8395233154296875,4.10366153717041,-154.0069580078125,47.1343994140625,-24.5819091796875
2.6699999,8.53532886505127,2.849100112915039,4.4292731285095215,-111.480712890625,31.1431884765625,-5.9356689453125
2.6899999,8.664615631103516,2.58813214302063,4.709394931793213,-91.4764404296875,31.9061279296875,11.9171142578125
2.7099999,8.908824920654297,2.1547815799713135,4.886565685272217,-128.6468505859375,38.5589599609375,25.604248046875
2.7299999,9.222464561462402,1.5729905366897583,5.051765441894531,-167.694091796875,15.380859375,31.280517578125
2.7499999,9.514557838439941,0.933738648891449,5.286397457122803,-162.628173828125,-29.1748046875,27.2674560546875
2.7699999,9.739612579345703,0.28969839215278625,5.521028995513916,-126.3885498046875,-42.755126953125,11.932373046875
2.7899999,9.840168952941895,-0.29209262132644653,5.738901615142822,-105.1177978515625,-9.521484375,-6.439208984375
2.8099999,9.84495735168457,-0.7661445140838623,5.954379558563232,-108.7799072265625,21.3623046875,-13.9312744140625
2.8299999,9.732429504394531,-1.0797849893569946,6.107608318328857,-96.282958984375,14.190673828125,-11.6729736328125
2.8499999,9.557653427124023,-1.2234370708465576,6.088454723358154,-72.93701171875,-10.5438232421875,-11.505126953125
2.8699999,9.217676162719727,-1.1994950771331787,5.7772088050842285,-72.9522705078125,-17.9595947265625,-21.7742919921875
2.8899999,8.841787338256836,-1.1061211824417114,5.185841083526611,-88.8214111328125,6.3934326171875,-17.608642578125
2.9099999,8.453926086425781,-0.993593692779541,4.637568473815918,-95.7183837890625,25.1312255859375,-1.4190673828125
2.9299999,8.099584579467773,-0.9385270476341248,4.304774761199951,-67.8863525390625,22.3236083984375,-4.9285888671875
2.9499999,7.910442352294922,-0.9768342971801758,4.228160381317139,-40.740966796875,17.730712890625,-14.892578125
2.9699999,7.833827972412109,-1.1659762859344482,4.278438568115234,-51.422119140625,20.8740234375,-9.82666015625
2.9899999,7.943961143493652,-1.525106430053711,4.462791919708252,-80.7952880859375,28.900146484375,5.9051513671875
3.0099999,8.125920295715332,-2.0470423698425293,4.714183330535889,-76.66015625,26.885986328125,4.2877197265625
3.0299999,8.44434928894043,-2.6240451335906982,5.1116204261779785,-59.3414306640625,17.8070068359375,-13.3514404296875
3.0499999,8.638279914855957,-3.1435868740081787,5.5114521980285645,-61.798095703125,7.9193115234375,-26.0467529296875
3.0699999,8.772355079650879,-3.529053211212158,5.770026206970215,-75.836181640625,-2.3651123046875,-8.209228515625
3.0899999,8.705317497253418,-3.732560396194458,5.762843608856201,-82.305908203125,-14.46533203125,-0.6561279296875
3.1099999,8.59997272491455,-3.864241600036621,5.60722017288208,-91.217041015625,-27.9388427734375,-7.3089599609375
3.1299999,8.429984092712402,-3.976768970489502,5.339069843292236,-105.316162109375,-48.7518310546875,-18.829345703125
3.1499999,8.288725852966309,-4.067748546600342,5.04218864440918,-110.595703125,-62.1490478515625,-16.815185546875
3.1699999,8.145073890686035,-4.197035789489746,4.802768707275391,-93.2159423828125,-47.4090576171875,-5.4473876953125
3.1899999,8.14028549194336,-4.37420654296875,4.618414878845215,-65.49072265625,-22.6593017578125,-9.94873046875
3.2099999,8.317456245422363,-4.620809078216553,4.594472885131836,-66.9097900390625,-17.1051025390625,-22.5372314453125
3.2299999,8.65982723236084,-4.862623691558838,4.73573112487793,-80.3375244140625,-39.947509765625,-38.7420654296875
3.2499999,9.062053680419922,-5.032611846923828,5.035006046295166,-67.6422119140625,-59.844970703125,-36.834716796875
3.2699999,9.397241592407227,-5.037400245666504,5.286397457122803,-31.2042236328125,-52.1697998046875,-34.912109375
3.2899999,9.497797966003418,-4.862623691558838,5.396530628204346,-13.275146484375,-47.882080078125,-46.5087890625
3.3099999,9.272743225097656,-4.563348293304443,5.109226226806641,-6.9580078125,-63.1561279296875,-53.558349609375
3.3299999000000002,8.815450668334961,-4.197035789489746,4.508281707763672,-11.7034912109375,-88.5009765625,-40.7867431640625
3.3499999,8.315062522888184,-4.017470359802246,3.7253777980804443,0.9307861328125,-72.662353515625,-26.4129638671875
3.3699999,7.967903137207031,-3.892971992492676,2.9544448852539062,29.8004150390625,-39.0777587890625,-40.4815673828125
3.3899999,7.94635534286499,-3.9695863723754883,2.4205379486083984,45.166015625,-16.90673828125,-58.1817626953125
3.4099999,8.178592681884766,-4.165910720825195,2.169146776199341,57.2662353515625,-16.357421875,-61.4776611328125
3.4299999,8.489839553833008,-4.271255970001221,2.2409727573394775,63.3392333984375,-21.2249755859375,-61.6455078125
3.4499999,8.779537200927734,-4.323928356170654,2.561795711517334,69.7174072265625,-14.678955078125,-56.45751953125
3.4699999,9.014169692993164,-4.333505153656006,2.892195701599121,84.5947265625,-41.839599609375,-53.5125732421875
3.4899999,9.124302864074707,-4.242525577545166,2.980781078338623,95.123291015625,-75.531005859375,-57.6171875
3.5099999,9.07641887664795,-4.098873138427734,2.7317841053009033,106.50634765625,-62.1185302734375,-58.929443359375
3.5299999,8.884882926940918,-3.8546648025512695,2.2242133617401123,107.5592041015625,-42.9534912109375,-47.5006103515625
3.5499999,8.631096839904785,-3.555389642715454,1.525106430053711,112.4267578125,-54.6112060546875,-32.3638916015625
3.5699999,8.300697326660156,-3.268085241317749,0.8164227604866028,122.2076416015625,-69.1070556640625,-29.1748046875
3.5899999,8.006210327148438,-2.964021682739258,0.1412578970193863,120.3155517578125,-58.8226318359375,-31.92138671875
3.6099999,7.704541206359863,-2.7222073078155518,-0.40701428055763245,116.8212890625,-36.712646484375,-22.705078125
3.6299999,7.4986395835876465,-2.499546527862549,-0.7158663272857666,122.1160888671875,-26.0467529296875,-2.655029296875
3.6499999,7.570465564727783,-2.494758129119873,-0.8259995579719543,137.4053955078125,-23.101806640625,13.5650634765625
3.6699999,7.915230751037598,-2.674323320388794,-0.7996633648872375,132.9803466796875,-37.1551513671875,8.4075927734375
3.6899999,8.379706382751465,-3.066972494125366,-0.8619126081466675,129.3182373046875,-39.9169921875,-8.6822509765625
3.7099999,8.7268648147583,-3.3686418533325195,-0.9457096457481384,138.3514404296875,-6.988525390625,-15.8538818359375
3.7299999,8.846575736999512,-3.471592426300049,-0.9433154463768005,145.0958251953125,12.7105712890625,-8.97216796875
3.7499999,8.863334655761719,-3.4620156288146973,-0.9169792532920837,143.9361572265625,-23.101806640625,2.2735595703125
3.7699999,8.832210540771484,-3.4787750244140625,-0.8954314589500427,135.223388671875,-65.460205078125,-1.434326171875
3.7899999,8.904036521911621,-3.5410242080688477,-0.950498104095459,131.072998046875,-49.163818359375,-14.5721435546875
3.8099999,9.100360870361328,-3.713406801223755,-1.072602391242981,134.552001953125,-8.4991455078125,-12.9241943359375
3.8299999000000002,9.404424667358398,-3.936067581176758,-1.137245774269104,141.9677734375,-7.4462890625,-3.84521484375
3.8499999,9.706093788146973,-4.173093795776367,-1.1300631761550903,137.725830078125,-33.416748046875,-13.6871337890625
3.8699999,9.96945571899414,-4.333505153656006,-1.0630255937576294,131.9580078125,-35.21728515625,-32.2723388671875
3.8899999,10.105925559997559,-4.455609321594238,-0.9768342971801758,135.3607177734375,-12.0391845703125,-27.3590087890625
3.9099999,10.067618370056152,-4.462791919708252,-0.9816226959228516,146.5301513671875,-29.4952392578125,-14.7552490234375
3.9299999,9.890447616577148,-4.390965938568115,-1.1492167711257935,152.03857421875,-49.49951171875,-18.8751220703125
3.9499999,9.672574996948242,-4.240131378173828,-1.436521053314209,137.542724609375,-38.5589599609375,-33.0047607421875
3.9699999,9.454702377319336,-4.094084739685059,-1.8602946996688843,121.5362548828125,-39.9322509765625,-28.5797119140625
3.9899999,9.220070838928223,-3.885789394378662,-2.319981336593628,122.74169921875,-74.737548828125,-21.2860107421875
4.0099999,8.992621421813965,-3.691859006881714,-2.8227639198303223,141.693115234375,-70.12939453125,-19.9737548828125
4.029999900000001,8.767566680908203,-3.5434184074401855,-3.3494882583618164,137.2222900390625,-33.0352783203125,-22.735595703125
4.0499999,8.508993148803711,-3.3710360527038574,-3.818751811981201,113.4490966796875,-5.157470703125,-24.4293212890625
4.069999900000001,8.317456245422363,-3.2106244564056396,-4.120420932769775,104.888916015625,-21.6522216796875,-16.9219970703125
4.0899999000000005,8.209717750549316,-3.0861260890960693,-4.201824188232422,111.9537353515625,-45.8526611328125,-8.026123046875
4.1099999,8.276755332946777,-3.0789434909820557,-4.151545524597168,127.9144287109375,-6.317138671875,-6.34765625
4.1299999000000005,8.458714485168457,-3.1507694721221924,-4.022258758544922,118.621826171875,48.553466796875,-13.427734375
4.1499999,8.738836288452148,-3.19865345954895,-3.8810009956359863,102.1881103515625,41.9464111328125,-22.796630859375
4.1699999000000005,9.071630477905273,-3.1938650608062744,-3.6104562282562256,97.1832275390625,21.1334228515625,-16.7236328125
4.1899999,9.373299598693848,-3.0382418632507324,-3.251325845718384,110.90087890625,50.35400390625,-8.1939697265625
4.209999900000001,9.461885452270508,-2.75812029838562,-2.7772738933563232,110.41259765625,76.416015625,-14.09912109375
4.2299999,9.308655738830566,-2.346317768096924,-2.3295583724975586,92.987060546875,55.11474609375,-14.739990234375
4.249999900000001,9.011775016784668,-1.8315643072128296,-2.049436569213867,75.98876953125,14.923095703125,2.2735595703125
4.2699999,8.724471092224121,-1.3024457693099976,-2.032677173614502,64.4378662109375,17.5323486328125,13.24462890625
4.289999900000001,8.592789649963379,-0.8523358106613159,-2.2673089504241943,51.1932373046875,44.37255859375,10.4217529296875
4.3099999,8.78432559967041,-0.6105214357376099,-2.6216509342193604,29.6630859375,41.93115234375,12.939453125
4.329999900000001,9.14345645904541,-0.6655880808830261,-2.9089550971984863,18.5546875,21.148681640625,20.4315185546875
4.3499999,9.502586364746094,-0.9481038451194763,-3.093308687210083,26.3519287109375,17.2271728515625,19.10400390625
4.369999900000001,9.801861763000488,-1.45806884765625,-3.155557870864868,32.2265625,37.078857421875,16.3726806640625
4.3899999,9.967061996459961,-2.0614075660705566,-3.1723172664642334,20.7366943359375,53.985595703125,16.2811279296875
4.409999900000001,10.04846477508545,-2.6791117191314697,-3.1100680828094482,4.0130615234375,48.370361328125,14.7705078125
4.4299999,10.029311180114746,-3.2417490482330322,-2.9065608978271484,-1.9989013671875,23.3154296875,16.7999267578125
4.449999900000001,9.895236015319824,-3.754108190536499,-2.4875755310058594,12.237548828125,2.50244140625,25.81787109375
4.4699999,9.730035781860352,-4.132391929626465,-1.824381709098816,38.2080078125,2.6092529296875,39.48974609375
4.489999900000001,9.528923034667969,-4.434061527252197,-1.0271124839782715,68.8629150390625,-5.218505859375,34.9578857421875
4.5099999,9.44991397857666,-4.671087741851807,-0.272938996553421,91.2933349609375,-12.298583984375,16.3421630859375
4.529999900000001,9.425971984863281,-4.774038314819336,0.24420857429504395,91.4459228515625,-15.0299072265625,3.1585693359375
4.5499999,9.490615844726562,-4.714183330535889,0.4141969084739685,68.90869140625,-16.4947509765625,7.9193115234375
4.569999900000001,9.696516990661621,-4.481945514678955,0.28730419278144836,35.5072021484375,-15.533447265625,17.0745849609375
4.5899999000000005,9.981427192687988,-4.1156325340271,-0.011971008032560349,7.4005126953125,9.0179443359375,2.0751953125
4.609999900000001,10.204087257385254,-3.670311212539673,-0.14604631066322327,-24.9481201171875,33.38623046875,-32.2265625
4.6299999000000005,10.225635528564453,-3.2178070545196533,0.014365210197865963,-26.2451171875,11.8255615234375,-48.76708984375
4.6499999,10.06043529510498,-2.801215887069702,0.3974374830722809,18.1121826171875,-45.41015625,-55.35888671875
4.6699999000000005,9.792284965515137,-2.427720546722412,0.7015010714530945,63.1103515625,-83.6944580078125,-80.963134765625
4.6899999,9.770736694335938,-2.2697031497955322,0.6584054827690125,42.66357421875,-96.5423583984375,-96.5576171875
4.709999900000001,10.304644584655762,-2.454056739807129,0.05746084079146385,-4.0130615234375,-107.421875,-84.747314453125
4.7299999,11.200075149536133,-2.7006595134735107,-0.9983820915222168,-37.2314453125,-65.155029296875,-81.1309814453125
4.749999900000001,12.174515724182129,-2.7988216876983643,-2.0422539710998535,-65.73486328125,17.0440673828125,-121.368408203125
4.7699999,12.878411293029785,-2.293645143508911,-2.8586769104003906,-97.7630615234375,25.4974365234375,-128.448486328125
4.789999900000001,12.945448875427246,-1.1085153818130493,-3.2609026432037354,-112.823486328125,-16.0369873046875,-90.057373046875
4.8099999,12.442666053771973,0.5554547905921936,-3.3255462646484375,-104.4464111328125,-33.6151123046875,-47.8515625
4.829999900000001,11.537657737731934,2.27209734916687,-3.2609026432037354,-92.620849609375,-28.01513671875,-20.050048828125
4.8499999,10.491392135620117,3.643975019454956,-3.265691041946411,-92.132568359375,-20.4315185546875,2.3345947265625
4.869999900000001,9.655815124511719,4.46518611907959,-3.3734302520751953,-97.16796875,-22.125244140625,33.38623046875
4.8899999,9.057265281677246,4.649539470672607,-3.490746021270752,-96.00830078125,-13.3819580078125,32.2723388671875
4.909999900000001,8.69095230102539,4.338293552398682,-3.5745432376861572,-85.1287841796875,7.293701171875,-2.6702880859375
4.9299999,8.4108304977417,3.7158010005950928,-3.555389642715454,-84.2437744140625,25.08544921875,-19.6380615234375
4.949999900000001,8.216899871826172,2.942473888397217,-3.5051112174987793,-96.2677001953125,28.62548828125,2.5634765625
4.9699999,7.970297336578369,2.205059766769409,-3.318363666534424,-114.776611328125,31.3873291015625,5.9051513671875
4.989999900000001,7.757213592529297,1.5825673341751099,-2.964021682739258,-118.9117431640625,56.2591552734375,-22.4761962890625
5.0099999,7.5632829666137695,1.173158884048462,-2.38462495803833,-116.4093017578125,65.9332275390625,-31.768798828125
5.029999900000001,7.407660007476807,1.0031704902648926,-1.5658079385757446,-113.250732421875,57.0526123046875,-25.5584716796875
5.0499999,7.331045627593994,1.1540051698684692,-0.5219359993934631,-119.4305419921875,47.3175048828125,-33.63037109375
5.069999900000001,7.371747016906738,1.5131354331970215,0.7493851184844971,-129.150390625,38.4674072265625,-54.7637939453125
5.0899999000000005,7.515398979187012,2.0877439975738525,2.2625205516815186,-121.8109130859375,36.5142822265625,-58.04443359375
5.109999900000001,7.623138427734375,2.8107926845550537,3.9480385780334473,-91.7510986328125,48.248291015625,-40.130615234375
5.1299999000000005,7.661445617675781,3.6080620288848877,5.6455278396606445,-58.5784912109375,49.74365234375,-20.172119140625
5.1499999,7.673416614532471,4.311957359313965,7.060500621795654,-27.252197265625,42.938232421875,-4.33349609375
5.1699999000000005,7.661445617675781,4.76924991607666,7.994239330291748,-2.25830078125,35.247802734375,11.1541748046875
5.1899999,7.599195957183838,4.891354084014893,8.382100105285645,13.671875,22.0794677734375,29.6783447265625
5.209999900000001,7.493851184844971,4.644751071929932,8.279149055480957,31.9976806640625,15.0909423828125,40.8935546875
5.2299999,7.395689010620117,4.127603530883789,7.876923561096191,50.9490966796875,15.6097412109375,49.8199462890625
5.249999900000001,7.376535415649414,3.529053211212158,7.469909191131592,54.718017578125,8.514404296875,65.3076171875
5.2699999,7.4770917892456055,2.985569477081299,7.129932880401611,63.446044921875,-8.514404296875,73.7152099609375
5.289999900000001,7.680599212646484,2.6192567348480225,6.871358871459961,89.2333984375,-14.95361328125,71.7315673828125
5.3099999,7.953537940979004,2.43011474609375,6.6630635261535645,107.4981689453125,-11.505126953125,79.498291015625
5.329999900000001,8.26478385925293,2.3367409706115723,6.382941722869873,107.2998046875,-25.69580078125,98.5107421875
5.3499999,8.655038833618164,2.2649147510528564,5.906495571136475,119.07958984375,-41.4276123046875,97.5189208984375
5.369999900000001,9.07641887664795,2.22660756111145,5.202600479125977,143.12744140625,-42.17529296875,73.8067626953125
5.3899999,9.41400146484375,2.1787235736846924,4.2090067863464355,155.94482421875,-34.759521484375,52.5665283203125
5.409999900000001,9.674968719482422,2.1116859912872314,3.0310592651367188,148.0560302734375,-34.881591796875,55.5267333984375
5.4299999,9.86650562286377,1.9728221893310547,1.8483237028121948,131.5155029296875,-46.0968017578125,72.998046875
5.449999900000001,10.08198356628418,1.6663644313812256,0.8930372595787048,120.9259033203125,-43.8079833984375,83.1298828125
5.4699999,10.395624160766602,1.192312479019165,0.2561795711517334,119.1558837890625,-38.787841796875,71.2432861328125
5.489999900000001,10.656591415405273,0.6368576288223267,-0.12210428714752197,124.9542236328125,-36.1480712890625,48.5687255859375
5.5099999,10.781089782714844,0.06703764945268631,-0.4118026793003082,131.103515625,-29.9835205078125,30.059814453125
5.529999900000001,10.716446876525879,-0.4884171485900879,-0.586579442024231,123.046875,-30.914306640625,24.4903564453125
5.5499999,10.453084945678711,-1.039083480834961,-0.790086567401886,120.5902099609375,-30.6396484375,15.68603515625
5.569999900000001,10.098742485046387,-1.5729905366897583,-1.0630255937576294,125.5950927734375,-23.284912109375,2.50244140625
5.5899999000000005,9.641449928283691,-2.1092917919158936,-1.3934253454208374,107.086181640625,-8.1024169921875,-5.55419921875
5.609999900000001,9.208099365234375,-2.647987127304077,-1.7262194156646729,64.94140625,1.6021728515625,5.462646484375
5.6299999000000005,9.047688484191895,-3.1651346683502197,-1.8315643072128296,27.83203125,-6.011962890625,30.975341796875
5.6499999,9.255983352661133,-3.60566782951355,-1.6831238269805908,33.0047607421875,-3.692626953125,27.5421142578125
5.6699999000000005,9.765948295593262,-3.931279182434082,-1.3192051649093628,48.2330322265625,12.5579833984375,-3.5400390625
5.6899999,10.424354553222656,-3.9911341667175293,-0.9074024558067322,40.9393310546875,16.4031982421875,-15.777587890625
5.709999900000001,10.845733642578125,-3.734954595565796,-0.6775590777397156,29.4647216796875,19.622802734375,-13.5498046875
5.7299999,10.946290016174316,-3.181894063949585,-0.751779317855835,15.7318115234375,8.60595703125,12.420654296875
5.749999900000001,10.72602367401123,-2.5258827209472656,-0.8810662031173706,-27.1453857421875,-1.8768310546875,43.8690185546875
5.7699999,10.541669845581055,-2.013523578643799,-1.0199298858642578,-63.4307861328125,-1.129150390625,59.3414306640625
5.789999900000001,10.345345497131348,-1.7764976024627686,-1.0534487962722778,-55.7708740234375,18.0816650390625,38.4368896484375
5.8099999,10.218452453613281,-1.7932571172714233,-0.7972691655158997,-48.828125,46.0662841796875,13.671875
5.829999900000001,10.02691650390625,-1.8938134908676147,-0.42856210470199585,-68.0389404296875,20.8892822265625,32.5775146484375
5.8499999,9.770736694335938,-1.9967641830444336,-0.014365210197865963,-93.0328369140625,-35.2783203125,67.3370361328125
5.869999900000001,9.495404243469238,-2.049436569213867,0.3232172429561615,-76.8280029296875,-44.49462890625,59.63134765625
5.8899999,9.296685218811035,-2.1380221843719482,0.5147533416748047,-39.825439453125,-28.38134765625,16.11328125
5.909999900000001,9.114726066589355,-2.2433669567108154,0.4644751250743866,-17.9443359375,-17.303466796875,6.1492919921875
5.9299999,8.944737434387207,-2.403778553009033,0.17238251864910126,-30.2581787109375,-30.4718017578125,40.10009765625
5.949999900000001,8.815450668334961,-2.6623523235321045,-0.2801215946674347,-65.338134765625,-48.2330322265625,62.5
5.9699999,8.772355079650879,-3.0597896575927734,-0.8259995579719543,-69.2901611328125,-48.6602783203125,48.7213134765625
5.989999900000001,8.83939266204834,-3.533841609954834,-1.3982137441635132,-36.8804931640625,-23.956298828125,35.614013671875
6.0099999,8.918401718139648,-4.036623954772949,-1.9177556037902832,-19.1192626953125,-1.8310546875,44.525146484375
6.029999900000001,8.999804496765137,-4.474762916564941,-2.3774423599243164,-26.67236328125,6.622314453125,49.591064453125
6.0499999,9.023746490478516,-4.836287498474121,-2.734178304672241,-44.5098876953125,14.007568359375,33.3251953125
6.069999900000001,9.014169692993164,-5.102043628692627,-2.937685489654541,-58.0291748046875,30.76171875,21.1029052734375
6.0899999000000005,8.973467826843262,-5.288791656494141,-2.9305028915405273,-66.0858154296875,36.3616943359375,28.411865234375
6.109999900000001,8.944737434387207,-5.446808815002441,-2.8227639198303223,-75.1800537109375,16.7999267578125,38.421630859375
6.1299999000000005,9.047688484191895,-5.631162166595459,-2.6815059185028076,-88.1500244140625,5.9661865234375,27.03857421875
6.149999900000001,9.165003776550293,-5.858611583709717,-2.4851813316345215,-103.8665771484375,28.778076171875,-2.410888671875
6.1699999000000005,9.394847869873047,-6.09324312210083,-2.300827741622925,-108.2916259765625,27.3895263671875,-2.655029296875
6.1899999,9.564835548400879,-6.27280855178833,-2.1284453868865967,-112.1063232421875,-20.782470703125,6.1492919921875
6.209999900000001,9.591172218322754,-6.320692539215088,-1.9704279899597168,-114.2578125,-51.3458251953125,-4.0283203125
6.2299999,9.497797966003418,-6.320692539215088,-1.9177556037902832,-105.621337890625,-18.0206298828125,-7.110595703125
6.249999900000001,9.351752281188965,-6.3302693367004395,-1.922544002532959,-101.13525390625,12.7105712890625,2.9296875
6.2699999,9.229647636413574,-6.390124320983887,-2.027888774871826,-103.8055419921875,-6.500244140625,4.4708251953125
6.289999900000001,9.169792175292969,-6.507440090179443,-2.164358377456665,-107.91015625,-41.0003662109375,-15.8233642578125
6.3099999,9.009381294250488,-6.596025466918945,-2.5019407272338867,-95.977783203125,-38.543701171875,-31.646728515625
6.329999900000001,8.827422142028809,-6.670246124267578,-2.9664158821105957,-105.377197265625,-7.8582763671875,-9.2010498046875
6.3499999,8.513781547546387,-6.694188117980957,-3.4093432426452637,-138.8092041015625,-0.4119873046875,21.66748046875
6.369999900000001,8.293514251708984,-6.737283706665039,-3.804386615753174,-135.07080078125,-0.732421875,13.824462890625
6.3899999,8.358158111572266,-6.89530086517334,-4.067748546600342,-120.758056640625,11.4898681640625,7.3394775390625
6.409999900000001,8.5903959274292,-7.086836814880371,-4.321534156799316,-123.9166259765625,6.9427490234375,4.7607421875
6.4299999,8.777143478393555,-7.189787864685059,-4.642356872558594,-139.739990234375,3.5858154296875,-5.9356689453125
6.449999900000001,8.7484130859375,-7.1490864753723145,-5.0014872550964355,-140.3350830078125,44.9066162109375,-10.650634765625
6.4699999,8.540117263793945,-6.9910688400268555,-5.240907669067383,-140.80810546875,95.0164794921875,-4.9591064453125
6.489999900000001,8.17380428314209,-6.7708024978637695,-5.3127336502075195,-147.5067138671875,85.02197265625,-9.613037109375
6.5099999,7.802703380584717,-6.54574728012085,-5.154716491699219,-158.6761474609375,63.5833740234375,-18.6920166015625
6.529999900000001,7.501033782958984,-6.40927791595459,-4.829104900360107,-166.961669921875,68.359375,-11.41357421875
6.5499999,7.156269073486328,-6.282385349273682,-4.410119533538818,-166.68701171875,63.90380859375,-0.6256103515625
6.569999900000001,6.878541469573975,-6.208165168762207,-3.8546648025512695,-171.44775390625,48.7213134765625,1.3275146484375
6.5899999000000005,6.737283706665039,-6.208165168762207,-3.227383852005005,-174.041748046875,36.895751953125,3.9215087890625
6.609999900000001,6.72531270980835,-6.289567947387695,-2.5498247146606445,-161.7279052734375,33.0657958984375,9.735107421875
6.6299999000000005,6.8378400802612305,-6.361393928527832,-1.867477297782898,-155.517578125,33.38623046875,10.406494140625
6.649999900000001,7.015010833740234,-6.423643112182617,-1.2689268589019775,-146.3470458984375,43.9910888671875,2.685546875
6.6699999000000005,7.1251444816589355,-6.311115741729736,-0.7182605266571045,-131.927490234375,42.7703857421875,-1.0833740234375
6.6899999,7.206547260284424,-6.0836663246154785,-0.22744916379451752,-121.185302734375,24.96337890625,4.730224609375
6.709999900000001,7.287950038909912,-5.767632007598877,0.15562310814857483,-109.1766357421875,7.0343017578125,13.1988525390625
6.7299999,7.429207801818848,-5.451597213745117,0.4357447028160095,-109.68017578125,-8.48388671875,18.3868408203125
6.749999900000001,7.752425193786621,-5.2696380615234375,0.5650315880775452,-109.893798828125,-10.711669921875,19.10400390625
6.7699999,8.121131896972656,-5.109226226806641,0.5913678407669067,-91.0186767578125,8.1939697265625,5.8135986328125
6.789999900000001,8.415618896484375,-4.898536682128906,0.629675030708313,-67.56591796875,37.7960205078125,-11.8560791015625
6.8099999,8.585607528686523,-4.6471452713012695,0.7398083209991455,-59.051513671875,52.30712890625,-13.031005859375
6.829999900000001,8.645462036132812,-4.352658748626709,0.9026140570640564,-59.906005859375,35.0189208984375,-3.0059814453125
6.8499999,8.686163902282715,-4.129997730255127,1.1468225717544556,-57.9376220703125,24.932861328125,-2.8533935546875
6.869999900000001,8.7268648147583,-3.8714241981506348,1.4413094520568848,-32.16552734375,71.380615234375,-21.8658447265625
6.8899999,8.729259490966797,-3.663128614425659,1.7812861204147339,-9.7503662109375,120.3765869140625,-36.1785888671875
6.909999900000001,8.643068313598633,-3.4117374420166016,2.2026655673980713,-14.495849609375,99.8992919921875,-34.332275390625
6.9299999,8.549694061279297,-3.227383852005005,2.671929121017456,-19.1802978515625,67.32177734375,-31.8603515625
6.949999900000001,8.504204750061035,-3.0310592651367188,3.1292216777801514,-4.5318603515625,81.97021484375,-44.647216796875
6.9699999,8.492233276367188,-2.832340717315674,3.4979286193847656,10.43701171875,101.6387939453125,-56.7779541015625
6.989999900000001,8.456320762634277,-2.5665841102600098,3.711012601852417,7.354736328125,82.1075439453125,-56.6253662109375
7.0099999,8.362946510314941,-2.1930887699127197,3.7469255924224854,-12.664794921875,44.8150634765625,-48.1414794921875
7.029999900000001,8.255207061767578,-1.7357962131500244,3.5889084339141846,-22.979736328125,33.111572265625,-45.013427734375
7.0499999,8.070854187011719,-1.161187767982483,3.337517261505127,-26.1077880859375,42.388916015625,-48.88916015625
7.069999900000001,7.864952564239502,-0.5530605912208557,3.043030261993408,-36.590576171875,32.4859619140625,-37.750244140625
7.0899999000000005,7.620744228363037,0.016759412363171577,2.829946517944336,-45.2117919921875,18.890380859375,-14.0228271484375
7.109999900000001,7.42681360244751,0.49559974670410156,2.827552318572998,-48.3856201171875,26.9775390625,-1.1444091796875
7.1299999000000005,7.3885064125061035,0.8547300100326538,3.155557870864868,-55.877685546875,39.8712158203125,7.781982421875
7.149999900000001,7.572859764099121,1.036689281463623,3.778050184249878,-72.0367431640625,12.2833251953125,26.85546875
7.1699999000000005,7.977479934692383,1.0247182846069336,4.529829502105713,-76.1260986328125,-48.1719970703125,45.7763671875
7.1899999,8.638279914855957,0.8810662031173706,5.16429328918457,-47.1954345703125,-40.8172607421875,43.9453125
7.209999900000001,9.35893440246582,0.6416460275650024,5.57370138168335,-29.0069580078125,5.218505859375,19.195556640625
7.2299999,10.134655952453613,0.40940847992897034,5.664681434631348,-41.5496826171875,-25.421142578125,17.4560546875
7.249999900000001,10.752359390258789,0.24660277366638184,5.420472621917725,-29.5257568359375,-58.0902099609375,16.7388916015625
7.2699999,11.152191162109375,0.22505496442317963,5.035006046295166,-2.62451171875,-25.7568359375,-6.3934326171875
7.289999900000001,11.310209274291992,0.33997663855552673,4.616020679473877,8.1634521484375,11.505126953125,-14.068603515625
7.3099999,11.322179794311523,0.5889736413955688,4.1874589920043945,12.3138427734375,-6.9732666015625,-2.6092529296875
7.329999900000001,11.26950740814209,0.8667010068893433,3.840299606323242,14.556884765625,-27.8167724609375,-4.1961669921875
7.3499999,11.288661003112793,1.1276689767837524,3.5482068061828613,15.7928466796875,-16.0064697265625,-17.1051025390625
7.369999900000001,11.293449401855469,1.338358759880066,3.2130186557769775,22.2930908203125,-5.5084228515625,-35.2020263671875
7.3899999,11.231200218200684,1.5849615335464478,2.8874073028564453,32.53173828125,-4.08935546875,-38.4521484375
7.409999900000001,11.001357078552246,1.9369091987609863,2.669534921646118,25.87890625,-14.6942138671875,-24.9176025390625
7.4299999,10.647014617919922,2.3535003662109375,2.561795711517334,21.270751953125,-31.0211181640625,-14.4805908203125
7.449999900000001,10.218452453613281,2.765302896499634,2.477998733520508,46.1578369140625,-35.1104736328125,-13.2293701171875
7.4699999,9.923966407775879,3.0813376903533936,2.3487119674682617,72.2808837890625,-32.501220703125,-3.8604736328125
7.489999900000001,9.651026725769043,3.308786630630493,2.1140801906585693,64.3157958984375,-39.0625,3.47900390625
7.5099999,9.394847869873047,3.40216064453125,1.7094600200653076,47.332763671875,-58.7615966796875,4.852294921875
7.529999900000001,9.174580574035645,3.378218650817871,1.2473790645599365,50.140380859375,-64.8193359375,16.8609619140625
7.5499999,8.992621421813965,3.268085241317749,0.8188169598579407,66.7877197265625,-49.6978759765625,34.942626953125
7.569999900000001,8.932766914367676,3.050212860107422,0.5051765441894531,84.3353271484375,-31.8450927734375,42.1905517578125
7.5899999000000005,9.047688484191895,2.7126305103302,0.3208230137825012,97.9766845703125,-26.7181396484375,44.8455810546875
7.609999900000001,9.361329078674316,2.231395959854126,0.22266076505184174,118.927001953125,-17.08984375,49.072265625
7.6299999000000005,9.787496566772461,1.6974890232086182,0.20111294090747833,130.5999755859375,-4.0283203125,49.6978759765625
7.649999900000001,10.235212326049805,1.1300631761550903,0.17956513166427612,134.9029541015625,-6.6070556640625,43.243408203125
7.6699999000000005,10.558429718017578,0.6248866319656372,0.13407529890537262,147.918701171875,-21.3165283203125,39.55078125
7.6899999,10.6709566116333,0.19153612852096558,0.07182604819536209,172.79052734375,-25.634765625,54.9163818359375
7.709999900000001,10.539276123046875,-0.17477671802043915,-0.07900865375995636,200.6988525390625,-23.9105224609375,77.33154296875
7.7299999,10.273519515991211,-0.5889736413955688,-0.40701428055763245,213.8671875,-43.8690185546875,88.2568359375
7.749999900000001,10.053253173828125,-1.0797849893569946,-0.8882488012313843,204.376220703125,-75.74462890625,93.4295654296875
7.7699999,9.897629737854004,-1.6543933153152466,-1.501164436340332,195.00732421875,-98.8311767578125,93.170166015625
7.789999900000001,9.873687744140625,-2.2194249629974365,-2.1978771686553955,208.526611328125,-108.7493896484375,84.5947265625
7.8099999,9.84256362915039,-2.652775526046753,-2.9089550971984863,226.01318359375,-96.00830078125,62.9730224609375
7.829999900000001,9.758766174316406,-2.892195701599121,-3.576937437057495,209.9456787109375,-73.73046875,39.5660400390625
7.8499999,9.59596061706543,-2.9472622871398926,-4.077325344085693,167.2821044921875,-63.6444091796875,33.0963134765625
7.869999900000001,9.488221168518066,-2.935291290283203,-4.230554580688477,128.0517578125,-56.365966796875,52.2308349609375
7.8899999,9.461885452270508,-2.983175277709961,-3.9264907836914062,111.63330078125,-44.4183349609375,65.2923583984375
7.909999900000001,9.552865028381348,-3.1651346683502197,-3.268085241317749,117.8436279296875,-46.6766357421875,50.689697265625
7.9299999,9.622296333312988,-3.380612850189209,-2.540247917175293,128.7078857421875,-45.562744140625,11.5966796875
7.949999900000001,9.531316757202148,-3.5170822143554688,-2.0039467811584473,136.53564453125,-21.8048095703125,-2.3956298828125
7.9699999,9.351752281188965,-3.6607344150543213,-1.647210717201233,118.4539794921875,3.47900390625,17.7764892578125
7.989999900000001,9.14345645904541,-3.7900211811065674,-1.37906014919281,90.728759765625,-3.448486328125,31.0821533203125
8.0099999,8.954314231872559,-4.019864559173584,-1.0223240852355957,109.55810546875,-19.83642578125,20.5841064453125
8.0299999,8.992621421813965,-4.304774761199951,-0.7254431247711182,179.26025390625,1.1444091796875,11.2457275390625
8.049999900000001,8.980650901794434,-4.51067590713501,-0.49799394607543945,187.31689453125,45.0897216796875,-36.651611328125
8.069999900000001,8.863334655761719,-4.575319290161133,-0.4836287498474121,147.8271484375,91.156005859375,10.1776123046875
8.0899999,8.700529098510742,-4.558559894561768,-0.5291185975074768,104.1107177734375,41.4276123046875,58.53271484375
8.1099999,8.501810073852539,-4.527435302734375,-0.5722141861915588,86.6241455078125,0.732421875,55.328369140625
8.129999900000001,8.413225173950195,-4.639962673187256,-0.5267243981361389,75.8209228515625,11.41357421875,29.022216796875
8.149999900000001,8.497021675109863,-4.932055473327637,-0.3280056416988373,40.10009765625,33.02001953125,10.528564453125
8.1699999,8.686163902282715,-5.370194435119629,-0.0071826050989329815,13.885498046875,32.012939453125,15.625
8.1899999,8.949525833129883,-5.853823184967041,0.37828385829925537,16.021728515625,16.265869140625,25.0244140625
8.2099999,9.282320022583008,-6.246472358703613,0.7086837291717529,30.120849609375,17.6544189453125,13.671875
8.229999900000001,9.528923034667969,-6.402095317840576,0.8092401623725891,36.56005859375,57.037353515625,-24.9786376953125
8.2499999,9.48343276977539,-6.277596950531006,0.7852981686592102,4.302978515625,90.2557373046875,-52.2308349609375
8.2699999,9.210494041442871,-5.95677375793457,0.790086567401886,-32.958984375,64.697265625,-32.3486328125
8.2899999,8.71728801727295,-5.521028995513916,0.8619126081466675,-36.4227294921875,36.1480712890625,-10.3607177734375
8.309999900000001,8.291120529174805,-5.130774021148682,1.1061211824417114,-46.478271484375,36.8499755859375,-25.1007080078125
8.3299999,7.908048152923584,-4.831499099731445,1.3742717504501343,-62.347412109375,47.5006103515625,-51.0101318359375
8.3499999,7.68538761138916,-4.666299343109131,1.580173134803772,-62.8204345703125,47.5616455078125,-44.8150634765625
8.3699999,7.491456985473633,-4.596867084503174,1.8052281141281128,-64.3157958984375,50.8880615234375,-25.177001953125
8.389999900000001,7.338228225708008,-4.596867084503174,2.0925323963165283,-65.4296875,63.4613037109375,-26.275634765625
8.4099999,7.402871608734131,-4.738125324249268,2.3343467712402344,-58.380126953125,55.877685546875,-19.622802734375
8.4299999,7.582436561584473,-4.982333660125732,2.535459518432617,-71.6094970703125,29.0985107421875,-14.1448974609375
8.4499999,7.793126583099365,-5.219359874725342,2.650381326675415,-93.75,10.6201171875,-24.7650146484375
8.469999900000001,8.003816604614258,-5.449203014373779,2.607285737991333,-92.0257568359375,11.810302734375,-22.674560546875
8.4899999,8.142680168151855,-5.621585369110107,2.473210334777832,-80.5511474609375,14.7705078125,-7.354736328125
8.5099999,8.161833763122559,-5.714959621429443,2.3367409706115723,-90.8050537109375,-0.701904296875,-13.397216796875
8.5299999,8.106766700744629,-5.729324817657471,2.1140801906585693,-94.6044921875,-6.3934326171875,-20.69091796875
8.549999900000001,8.068459510803223,-5.736507415771484,1.7980455160140991,-86.3494873046875,-4.638671875,-9.796142578125
8.569999900000001,8.068459510803223,-5.729324817657471,1.3886369466781616,-94.7418212890625,-16.937255859375,-5.7220458984375
8.5899999,8.106766700744629,-5.731719017028809,0.828393816947937,-97.1221923828125,-28.0303955078125,-15.0146484375
8.6099999,8.233659744262695,-5.825092792510986,0.1412578970193863,-84.04541015625,-12.115478515625,-11.627197265625
8.629999900000001,8.401253700256348,-6.0405707359313965,-0.5937620401382446,-84.320068359375,3.0517578125,-11.4288330078125
8.649999900000001,8.458714485168457,-6.251260757446289,-1.290474772453308,-100.5859375,1.3580322265625,-22.5677490234375
8.6699999,8.44434928894043,-6.469132900238037,-1.8411411046981812,-106.4910888671875,8.209228515625,-24.078369140625
8.6899999,8.327033042907715,-6.670246124267578,-2.1308395862579346,-103.6529541015625,19.134521484375,-23.956298828125
8.709999900000001,8.192957878112793,-6.888118267059326,-2.2146365642547607,-97.0611572265625,26.9927978515625,-16.1895751953125
8.729999900000001,8.022970199584961,-7.070077419281006,-2.183511972427368,-77.94189453125,51.94091796875,-11.16943359375
8.7499999,7.955932140350342,-7.314286231994629,-2.078166961669922,-61.8133544921875,104.2938232421875,-5.5694580078125
8.7699999,7.953537940979004,-7.5417351722717285,-1.8100165128707886,-75.5615234375,131.8511962890625,-2.899169921875
8.7899999,7.960720539093018,-7.687781810760498,-1.357512354850769,-87.3260498046875,119.7357177734375,-11.0321044921875
8.809999900000001,7.886500358581543,-7.714118003845215,-0.689530074596405,-68.572998046875,113.0218505859375,-23.98681640625
8.8299999,7.73087739944458,-7.5848307609558105,0.1388636976480484,-51.2542724609375,123.1689453125,-23.8494873046875
8.8499999,7.613561630249023,-7.433996200561523,0.9050082564353943,-56.1676025390625,117.156982421875,-19.439697265625
8.8699999,7.522581577301025,-7.24485445022583,1.601720929145813,-75.9735107421875,93.780517578125,-40.46630859375
8.889999900000001,7.532158374786377,-7.06528902053833,2.1068975925445557,-62.2100830078125,105.7891845703125,-54.473876953125
8.9099999,7.546523571014404,-6.868964672088623,2.4684219360351562,-27.3284912109375,128.6773681640625,-45.501708984375
8.9299999,7.450755596160889,-6.615179061889648,2.7293899059295654,-37.65869140625,115.4632568359375,-45.4864501953125
8.9499999,7.204153060913086,-6.275202751159668,2.892195701599121,-44.0826416015625,96.5576171875,-49.041748046875
8.969999900000001,6.92881965637207,-5.944802761077881,3.0765492916107178,-36.2396240234375,84.89990234375,-46.5545654296875
8.9899999,6.696582317352295,-5.69580602645874,3.2561142444610596,-40.2374267578125,62.957763671875,-38.330078125
9.0099999,6.502651691436768,-5.513846397399902,3.313575267791748,-29.78515625,61.6912841796875,-31.8603515625
9.0299999,6.445190906524658,-5.427655220031738,3.3423056602478027,-37.078857421875,66.2994384765625,-35.614013671875
9.049999900000001,6.48828649520874,-5.453991413116455,3.380612850189209,-51.9561767578125,66.1773681640625,-37.5213623046875
9.069999900000001,6.596025466918945,-5.497087001800537,3.4404678344726562,-36.92626953125,68.267822265625,-28.350830078125
9.0899999,6.744466304779053,-5.544970989227295,3.624821424484253,-27.0538330078125,67.44384765625,-29.510498046875
9.1099999,6.88332986831665,-5.585672378540039,3.8762125968933105,-46.3714599609375,50.84228515625,-44.6014404296875
9.129999900000001,7.041347026824951,-5.679046630859375,4.098873138427734,-58.197021484375,37.109375,-52.581787109375
9.149999900000001,7.16584587097168,-5.731719017028809,4.189853191375732,-24.2919921875,58.2122802734375,-48.7823486328125
9.1699999,7.180211067199707,-5.760449409484863,4.309563159942627,-10.2081298828125,83.3587646484375,-49.774169921875
9.1899999,7.151480674743652,-5.770026206970215,4.441244125366211,-28.1982421875,72.1588134765625,-49.8809814453125
9.209999900000001,7.082048416137695,-5.681440830230713,4.580107688903809,-34.698486328125,40.069580078125,-53.6651611328125
9.229999900000001,6.943184852600098,-5.513846397399902,4.750096321105957,-30.6396484375,13.73291015625,-63.6749267578125
9.2499999,6.777985095977783,-5.293580055236816,4.817133903503418,-28.2135009765625,15.8843994140625,-64.4683837890625
9.2699999,6.5481414794921875,-5.082890033721924,4.807557106018066,-32.40966796875,25.5584716796875,-54.962158203125
9.2899999,6.313509941101074,-4.850652694702148,4.829104900360107,-28.900146484375,37.59765625,-49.1943359375
9.309999900000001,6.078877925872803,-4.649539470672607,4.955997467041016,-17.5628662109375,39.3829345703125,-55.206298828125
9.3299999,5.937620162963867,-4.434061527252197,5.193023681640625,-19.6685791015625,20.050048828125,-62.103271484375
9.3499999,5.834669589996338,-4.213795185089111,5.4875102043151855,-35.4461669921875,-5.3863525390625,-57.7392578125
9.3699999,5.762843608856201,-4.005499362945557,5.801150798797607,-42.572021484375,-14.5416259765625,-47.91259765625
9.389999900000001,5.714959621429443,-3.773261785507202,6.165069580078125,-36.62109375,-14.129638671875,-44.7540283203125
9.4099999,5.736507415771484,-3.581725835800171,6.502651691436768,-25.6195068359375,-18.8446044921875,-41.5191650390625
9.4299999,5.813121795654297,-3.4332852363586426,6.794744491577148,-28.50341796875,-47.42431640625,-34.9273681640625
9.4499999,5.940014362335205,-3.35667085647583,7.022193431854248,-42.755126953125,-84.0301513671875,-39.24560546875
9.469999900000001,6.107608318328857,-3.3207578659057617,7.137115478515625,-40.83251953125,-96.2677001953125,-43.8690185546875
9.4899999,6.3063273429870605,-3.287238836288452,7.151480674743652,-16.1285400390625,-76.11083984375,-40.740966796875
9.5099999,6.521805286407471,-3.1866824626922607,7.043741226196289,2.166748046875,-55.23681640625,-33.5693359375
9.5299999,6.754043102264404,-3.045424461364746,6.847416877746582,-6.8359375,-61.0504150390625,-30.6396484375
9.549999900000001,7.000645637512207,-2.9328970909118652,6.624756336212158,-20.782470703125,-74.6917724609375,-35.858154296875
9.569999900000001,7.275979042053223,-2.779668092727661,6.366182327270508,-9.1552734375,-77.7435302734375,-39.1693115234375
9.5899999,7.546523571014404,-2.5091233253479004,6.160281181335449,0.732421875,-68.572998046875,-36.3311767578125
9.6099999,7.73087739944458,-2.185906171798706,5.985504150390625,-2.5177001953125,-63.0035400390625,-33.843994140625
9.629999900000001,7.836222171783447,-1.8698714971542358,5.817910194396973,-7.3089599609375,-60.9130859375,-29.35791015625
9.649999900000001,8.001421928405762,-1.5729905366897583,5.659893035888672,-4.8675537109375,-56.2591552734375,-27.7862548828125
9.6699999,8.216899871826172,-1.3503297567367554,5.556941986083984,-1.03759765625,-49.0875244140625,-30.731201171875
9.6899999,8.518569946289062,-1.1468225717544556,5.468356609344482,-1.2054443359375,-45.0286865234375,-33.4930419921875
9.709999900000001,8.810662269592285,-1.0295066833496094,5.343858242034912,2.2125244140625,-52.0782470703125,-32.2418212890625
9.729999900000001,9.0859956741333,-0.8307880163192749,5.149928092956543,10.68115234375,-48.126220703125,-26.641845703125
9.7499999,9.253589630126953,-0.6631938815116882,4.917690277099609,18.4173583984375,-16.204833984375,-24.871826171875
9.7699999,9.39245319366455,-0.38067805767059326,4.661510944366455,19.8211669921875,-2.3345947265625,-29.6783447265625
9.7899999,9.399636268615723,-0.0933738648891449,4.4508209228515625,20.8892822265625,-16.7999267578125,-27.9693603515625
9.809999900000001,9.421183586120605,0.24899697303771973,4.280832767486572,28.1524658203125,-20.721435546875,-16.754150390625
9.8299999,9.469067573547363,0.5267243981361389,4.101267337799072,29.1900634765625,-1.9683837890625,-3.4027099609375
9.8499999,9.603142738342285,0.8236053586006165,3.8522706031799316,28.6865234375,6.4544677734375,-6.8206787109375
9.8699999,9.830592155456543,0.993593692779541,3.620033025741577,25.0244140625,-4.21142578125,-4.150390625
9.889999900000001,9.974244117736816,1.1085153818130493,3.4380736351013184,33.172607421875,-0.1678466796875,-2.7618408203125
9.9099999,10.041281700134277,1.1827356815338135,3.3446998596191406,48.5382080078125,19.7906494140625,-1.1138916015625
9.9299999,10.019734382629395,1.2832920551300049,3.31118106842041,49.4232177734375,8.4991455078125,5.0048828125
9.9499999,9.974244117736816,1.4197616577148438,3.3016040325164795,47.66845703125,-9.6435546875,12.4664306640625
9.969999900000001,9.876082420349121,1.5298948287963867,3.2178070545196533,56.6558837890625,-10.3302001953125,18.3563232421875
9.9899999,9.775525093078613,1.5729905366897583,3.071760892868042,61.8896484375,-6.5155029296875,19.71435546875
10.0099999,9.732429504394531,1.5682021379470825,2.853888511657715,58.441162109375,-5.279541015625,20.904541015625
10.0299999,9.770736694335938,1.5682021379470825,2.6791117191314697,50.018310546875,-8.6822509765625,20.050048828125
10.049999900000001,9.873687744140625,1.5897499322891235,2.4803929328918457,53.6956787109375,-13.12255859375,18.1884765625
10.069999900000001,9.955090522766113,1.6328455209732056,2.2026655673980713,66.6351318359375,-21.575927734375,16.082763671875
10.0899999,10.022128105163574,1.6879122257232666,1.8914192914962769,59.2498779296875,-25.20751953125,14.1754150390625
10.1099999,10.062829971313477,1.766920804977417,1.5131354331970215,54.6722412109375,-21.7742919921875,14.4195556640625
10.129999900000001,10.122684478759766,1.8339585065841675,1.280897855758667,61.9354248046875,-17.0440673828125,10.040283203125
10.149999900000001,10.228029251098633,1.8171991109848022,1.2665326595306396,73.211669921875,-6.28662109375,6.7291259765625
10.1699999,10.36449909210205,1.6687586307525635,1.357512354850769,85.723876953125,-11.0015869140625,11.505126953125
10.1899999,10.558429718017578,1.3335703611373901,1.41257905960083,90.4541015625,-29.60205078125,21.148681640625
10.209999900000001,10.776301383972168,0.8690952062606812,1.259350061416626,85.296630859375,-37.17041015625,16.2506103515625
10.229999900000001,10.986991882324219,0.3687070608139038,0.9959878921508789,72.9827880859375,-26.1993408203125,-2.838134765625
10.2499999,11.044452667236328,0.014365210197865963,0.7230489253997803,74.5697021484375,-8.0718994140625,-16.66259765625
10.2699999,10.896012306213379,-0.09576806426048279,0.5793967843055725,90.789794921875,-3.9215087890625,-17.4102783203125
10.2899999,10.56800651550293,-0.011971008032560349,0.586579442024231,101.409912109375,-3.6773681640625,-8.85009765625
10.309999900000001,10.14902114868164,0.16759411990642548,0.6009446382522583,102.2491455078125,-6.103515625,-3.4027099609375
10.3299999,9.710882186889648,0.31842881441116333,0.5841852426528931,85.51025390625,-18.096923828125,-2.471923828125
10.3499999,9.349357604980469,0.3447650372982025,0.47405192255973816,77.484130859375,-24.4293212890625,6.77490234375
10.3699999,9.064447402954102,0.21547815203666687,0.3256114423274994,81.48193359375,-15.0146484375,18.3563232421875
10.389999900000001,8.87291145324707,-0.05985504388809204,0.11971008777618408,82.9010009765625,-21.5911865234375,25.57373046875
10.4099999,8.822632789611816,-0.5147533416748047,-0.1604115068912506,64.300537109375,-53.9703369140625,34.9273681640625
10.4299999,8.853757858276367,-1.0558429956436157,-0.5339069962501526,33.477783203125,-78.2012939453125,42.5262451171875
10.4499999,8.96389102935791,-1.6280571222305298,-0.9193734526634216,13.7481689453125,-75.3021240234375,46.38671875
10.469999900000001,9.141061782836914,-2.1811177730560303,-1.3455413579940796,28.5186767578125,-46.0968017578125,44.219970703125
10.4899999,9.38048267364502,-2.655169725418091,-1.742978811264038,47.2869873046875,-22.4761962890625,36.8804931640625
10.5099999,9.66299819946289,-2.999934673309326,-2.123656988143921,36.62109375,-21.7742919921875,29.9530029296875
10.5299999,9.95748519897461,-3.1866824626922607,-2.427720546722412,8.23974609375,-29.1900634765625,24.5361328125
10.549999900000001,10.213664054870605,-3.1962592601776123,-2.540247917175293,-5.9967041015625,-20.477294921875,17.8375244140625
10.569999900000001,10.369287490844727,-3.028665065765381,-2.403778553009033,3.8909912109375,3.8909912109375,6.2255859375
10.5899999,10.398017883300781,-2.7293899059295654,-2.013523578643799,10.7574462890625,17.0745849609375,-2.3651123046875
10.6099999,10.287884712219238,-2.341529369354248,-1.4484920501708984,-0.3662109375,10.986328125,-3.2806396484375
10.629999900000001,10.086771965026855,-1.9321208000183105,-0.8355764150619507,-8.1329345703125,4.5166015625,-2.0751953125
10.649999900000001,9.847352027893066,-1.5729905366897583,-0.26336219906806946,-6.9732666015625,6.3629150390625,-2.6397705078125
10.6699999,9.651026725769043,-1.3120225667953491,0.2106897532939911,-5.584716796875,9.4146728515625,-2.0294189453125
10.6899999,9.50498104095459,-1.1444283723831177,0.5434837937355042,-4.608154296875,8.2550048828125,-1.8157958984375
10.709999900000001,9.425971984863281,-1.0534487962722778,0.7350199222564697,-3.8604736328125,4.1046142578125,-1.4801025390625
10.729999900000001,9.418789863586426,-1.0031704902648926,0.7972691655158997,-3.173828125,2.227783203125,-1.190185546875
10.7499999,9.464279174804688,-0.9768342971801758,0.7445967197418213,-1.495361328125,2.86865234375,-0.42724609375
10.7699999,9.557653427124023,-0.9768342971801758,0.6200982332229614,-1.8463134765625,3.1890869140625,-0.0152587890625
10.7899999,9.670180320739746,-0.993593692779541,0.47165772318840027,-2.3345947265625,3.448486328125,-0.9307861328125
10.809999900000001,9.787496566772461,-1.0199298858642578,0.33279404044151306,-2.1209716796875,2.8533935546875,-2.166748046875
10.8299999,9.86889934539795,-1.036689281463623,0.24420857429504395,-3.2958984375,1.2054443359375,-2.8076171875
10.8499999,9.916783332824707,-1.036689281463623,0.19632454216480255,-2.227783203125,0.3204345703125,-1.7547607421875
10.8699999,9.928754806518555,-1.0199298858642578,0.1843535304069519,-0.4425048828125,1.1749267578125,-1.1138916015625
10.889999900000001,9.907206535339355,-0.9959878921508789,0.1867477297782898,0.244140625,3.2196044921875,-2.3651123046875
10.9099999,9.86889934539795,-0.9696516990661621,0.20350714027881622,-0.06103515625,3.8909912109375,-3.47900390625
10.9299999,9.823410034179688,-0.9576807022094727,0.22505496442317963,-2.2430419921875,1.068115234375,-1.5869140625
10.9499999,9.770736694335938,-0.9313444495201111,0.2537853717803955,-1.251220703125,0.0152587890625,-1.708984375
10.969999900000001,9.751583099365234,-0.9289502501487732,0.28730419278144836,1.0223388671875,1.953125,-0.885009765625
10.9899999,9.744400978088379,-0.9217676520347595,0.31603461503982544,2.166748046875,3.9825439453125,-2.410888671875
11.0099999,9.770736694335938,-0.9265560507774353,0.3423708379268646,-0.0457763671875,1.8768310546875,-2.838134765625
11.0299999,9.782708168029785,-0.9265560507774353,0.35673606395721436,-1.5411376953125,0.1678466796875,-2.2735595703125
11.049999900000001,9.797073364257812,-0.9241618514060974,0.3423708379268646,-0.2593994140625,0.3662109375,-1.9378662109375
11.069999900000001,9.78989028930664,-0.9097966551780701,0.3208230137825012,-1.46484375,1.3885498046875,-2.410888671875
11.0899999,9.780313491821289,-0.8954314589500427,0.28730419278144836,-2.7313232421875,1.5869140625,-1.9683837890625
11.1099999,9.751583099365234,-0.8738836050033569,0.26575639843940735,-3.0059814453125,0.8392333984375,-0.8392333984375
11.129999900000001,9.732429504394531,-0.8523358106613159,0.2777273952960968,-2.13623046875,1.1444091796875,-0.152587890625
11.149999900000001,9.725247383117676,-0.8451532125473022,0.30885201692581177,0.42724609375,2.1820068359375,0.0457763671875
11.1699999,9.737217903137207,-0.8475474119186401,0.36152446269989014,0.9765625,3.7841796875,-1.251220703125
11.1899999,9.770736694335938,-0.8643068075180054,0.4165911078453064,0.42724609375,3.692626953125,-1.5411376953125
11.209999900000001,9.794678688049316,-0.8786720037460327,0.4572925269603729,0.396728515625,1.8768310546875,-0.8697509765625
11.229999900000001,9.806650161743164,-0.8858546018600464,0.48602294921875,-0.6866455078125,-0.0457763671875,-0.1983642578125
11.2499999,9.799467086791992,-0.8786720037460327,0.49799394607543945,-0.885009765625,0.213623046875,-0.152587890625
11.2699999,9.785101890563965,-0.8690952062606812,0.4908113479614258,1.1444091796875,1.9683837890625,-0.9765625
11.2899999,9.770736694335938,-0.8547300100326538,0.48602294921875,1.1444091796875,1.9989013671875,-0.54931640625
11.309999900000001,9.75637149810791,-0.8427590131759644,0.4692635238170624,1.77001953125,1.9989013671875,-0.3509521484375
11.3299999,9.751583099365234,-0.8379706144332886,0.45010992884635925,1.8157958984375,3.265380859375,0.1678466796875
11.3499999,9.737217903137207,-0.8379706144332886,0.42377370595932007,1.64794921875,4.730224609375,0.06103515625
11.3699999,9.732429504394531,-0.8547300100326538,0.3902548849582672,2.166748046875,6.1187744140625,0.0152587890625
11.389999900000001,9.725247383117676,-0.8786720037460327,0.3663128614425659,2.8228759765625,8.1329345703125,-0.1983642578125
11.4099999,9.725247383117676,-0.9050082564353943,0.363918662071228,1.953125,7.8277587890625,-0.030517578125
11.4299999,9.734824180603027,-0.9289502501487732,0.395043283700943,-1.739501953125,5.0811767578125,0.762939453125
11.4499999,9.758766174316406,-0.9361328482627869,0.4644751250743866,-2.01416015625,4.791259765625,0.579833984375
11.469999900000001,9.797073364257812,-0.9385270476341248,0.5650315880775452,0.9765625,6.866455078125,-0.274658203125
11.4899999,9.837775230407715,-0.9289502501487732,0.6847416758537292,2.4261474609375,7.9498291015625,-1.0986328125
11.5099999,9.861717224121094,-0.9145850539207458,0.8044517636299133,2.0599365234375,6.2713623046875,-1.220703125
11.5299999,9.861717224121094,-0.8954314589500427,0.9026140570640564,0.213623046875,1.1138916015625,-0.3204345703125
11.549999900000001,9.84256362915039,-0.8690952062606812,0.9672574996948242,-0.6256103515625,-2.86865234375,0.5035400390625
11.569999900000001,9.81143856048584,-0.8475474119186401,0.9648633003234863,2.44140625,-1.678466796875,-0.1678466796875
11.5899999,9.782708168029785,-0.8307880163192749,0.9193734526634216,3.6773681640625,-0.0457763671875,-0.5340576171875
11.6099999,9.751583099365234,-0.8212111592292786,0.8259995579719543,1.434326171875,-1.2969970703125,-0.335693359375
11.629999900000001,9.725247383117676,-0.8188169598579407,0.7230489253997803,0.7171630859375,-2.8228759765625,-0.54931640625
11.649999900000001,9.6989107131958,-0.8236053586006165,0.6392518281936646,0.06103515625,-2.7008056640625,0.7171630859375
11.6699999,9.68694019317627,-0.8355764150619507,0.5913678407669067,-0.1068115234375,-0.8087158203125,0.5340576171875
11.6899999,9.6989107131958,-0.8547300100326538,0.5746083855628967,1.1444091796875,0.1373291015625,0.6561279296875
11.709999900000001,9.718064308166504,-0.8786720037460327,0.586579442024231,1.495361328125,0.335693359375,0.4425048828125
11.729999900000001,9.744400978088379,-0.8978256583213806,0.6057330369949341,-0.1983642578125,-0.946044921875,0.3814697265625
11.7499999,9.765948295593262,-0.9169792532920837,0.6272808313369751,-1.7852783203125,-1.2664794921875,0.7171630859375
11.7699999,9.77791976928711,-0.9265560507774353,0.6416460275650024,-2.0751953125,-0.152587890625,0.274658203125
11.7899999,9.794678688049316,-0.9361328482627869,0.6631938815116882,-0.701904296875,1.495361328125,0.1678466796875
11.809999900000001,9.804255485534668,-0.9361328482627869,0.6823474764823914,1.495361328125,3.0670166015625,-1.1444091796875
11.8299999,9.816226959228516,-0.9265560507774353,0.706289529800415,0.335693359375,1.2359619140625,-1.4190673828125
11.8499999,9.81143856048584,-0.9074024558067322,0.7374141216278076,-1.6937255859375,-1.312255859375,-0.701904296875
11.8699999,9.799467086791992,-0.8834604024887085,0.7733271718025208,-1.2969970703125,-2.01416015625,-0.0152587890625
11.889999900000001,9.775525093078613,-0.8595184087753296,0.7996633648872375,0.5340576171875,-1.2054443359375,-0.1678466796875
11.9099999,9.761159896850586,-0.849941611289978,0.811634361743927,1.5411376953125,-0.9765625,-0.579833984375
11.9299999,9.75397777557373,-0.849941611289978,0.811634361743927,1.3275146484375,-0.4730224609375,-0.762939453125
11.9499999,9.751583099365234,-0.8643068075180054,0.790086567401886,1.5716552734375,-1.007080078125,-0.701904296875
11.969999900000001,9.751583099365234,-0.8786720037460327,0.768538773059845,1.190185546875,-2.471923828125,-0.67138671875
11.9899999,9.75397777557373,-0.8930372595787048,0.7469909191131592,1.5869140625,-1.8310546875,-0.54931640625
12.0099999,9.758766174316406,-0.9026140570640564,0.727837324142456,1.1749267578125,-1.0833740234375,-0.4730224609375
12.0299999,9.765948295593262,-0.9097966551780701,0.7086837291717529,-0.30517578125,-2.1820068359375,-0.762939453125
12.049999900000001,9.775525093078613,-0.9169792532920837,0.6943184733390808,-0.79345703125,-1.678466796875,-0.5035400390625
12.069999900000001,9.780313491821289,-0.9241618514060974,0.6631938815116882,0.030517578125,-2.3040771484375,-0.3662109375
12.0899999,9.782708168029785,-0.9289502501487732,0.6320692300796509,-0.67138671875,-3.11279296875,-0.701904296875
12.1099999,9.782708168029785,-0.9313444495201111,0.5985504388809204,-1.983642578125,-1.1749267578125,-0.7171630859375
12.129999900000001,9.765948295593262,-0.9265560507774353,0.5937620401382446,-2.5482177734375,0.6103515625,-1.28173828125
12.149999900000001,9.746794700622559,-0.912190854549408,0.629675030708313,-1.7242431640625,-0.0457763671875,-0.9918212890625
12.1699999,9.718064308166504,-0.8834604024887085,0.7015010714530945,-0.762939453125,-1.8768310546875,-0.30517578125
12.1899999,9.706093788146973,-0.8523358106613159,0.7757213711738586,-0.54931640625,-2.5787353515625,0.518798828125
12.209999900000001,9.710882186889648,-0.8164227604866028,0.8379706144332886,-0.7476806640625,-0.91552734375,0.640869140625
12.229999900000001,9.734824180603027,-0.7948749661445618,0.8690952062606812,-0.5035400390625,-0.54931640625,0.701904296875
12.2499999,9.761159896850586,-0.7924807667732239,0.8786720037460327,0.0457763671875,-1.9378662109375,0.7171630859375
12.2699999,9.780313491821289,-0.8020575642585754,0.8690952062606812,1.129150390625,-2.4566650390625,0.8087158203125
12.289999900000002,9.787496566772461,-0.8236053586006165,0.8379706144332886,2.3956298828125,-2.960205078125,0.8544921875
12.309999900000001,9.77791976928711,-0.849941611289978,0.7852981686592102,1.89208984375,-3.4942626953125,0.7171630859375
12.3299999,9.770736694335938,-0.8810662031173706,0.7182605266571045,1.5716552734375,-3.3721923828125,0.8697509765625
12.3499999,9.763554573059082,-0.9097966551780701,0.646434485912323,1.312255859375,-3.0364990234375,0.518798828125
12.3699999,9.765948295593262,-0.9481038451194763,0.5817909836769104,1.4190673828125,-3.2501220703125,0.6103515625
12.389999900000001,9.775525093078613,-0.9864110946655273,0.5410895943641663,1.52587890625,-2.593994140625,1.1138916015625
12.4099999,9.787496566772461,-1.0223240852355957,0.5219359993934631,2.7008056640625,-1.3275146484375,1.3427734375
12.4299999,9.81143856048584,-1.0558429956436157,0.5267243981361389,2.99072265625,-2.25830078125,1.983642578125
12.4499999,9.835380554199219,-1.0797849893569946,0.5410895943641663,1.953125,-3.997802734375,1.9683837890625
12.469999900000001,9.876082420349121,-1.1085153818130493,0.5578489899635315,2.197265625,-4.4708251953125,1.9683837890625
12.4899999,9.904812812805176,-1.1324573755264282,0.5650315880775452,2.4871826171875,-3.265380859375,0.1220703125
12.5099999,9.919178009033203,-1.1444283723831177,0.569819986820221,-0.5950927734375,-2.3345947265625,-2.716064453125
12.5299999,9.892841339111328,-1.1228805780410767,0.5722141861915588,-1.6326904296875,-0.4425048828125,-2.4261474609375
12.549999900000001,9.828198432922363,-1.0582371950149536,0.5793967843055725,0.4119873046875,-0.8697509765625,-2.777099609375
12.569999900000001,9.739612579345703,-0.9648633003234863,0.5937620401382446,0.732421875,-2.3345947265625,-2.8533935546875
12.5899999,9.66299819946289,-0.8619126081466675,0.6224924325942993,0.6866455078125,-1.2664794921875,-2.8228759765625
12.6099999,9.617507934570312,-0.7709329724311829,0.6560112833976746,0.4730224609375,0.2288818359375,-4.9285888671875
12.629999900000001,9.610325813293457,-0.706289529800415,0.7015010714530945,1.556396484375,-0.0152587890625,-4.2572021484375
12.649999900000001,9.62947940826416,-0.6751648783683777,0.751779317855835,2.01416015625,-0.54931640625,-3.5400390625
12.6699999,9.670180320739746,-0.6703764796257019,0.811634361743927,2.044677734375,-1.129150390625,-4.486083984375
12.6899999,9.72285270690918,-0.6967126727104187,0.8595184087753296,4.1046142578125,-1.0986328125,-4.9591064453125
12.709999900000001,9.768342971801758,-0.7374141216278076,0.8882488012313843,6.256103515625,-1.3580322265625,-5.9967041015625
12.729999900000001,9.785101890563965,-0.7613561153411865,0.8882488012313843,5.9356689453125,-1.983642578125,-7.99560546875
12.7499999,9.773131370544434,-0.7613561153411865,0.8595184087753296,5.2642822265625,-1.0833740234375,-9.27734375
12.7699999,9.739612579345703,-0.730231523513794,0.8020575642585754,7.0037841796875,-0.1983642578125,-4.669189453125
12.789999900000002,9.713275909423828,-0.6871358752250671,0.7469909191131592,7.62939453125,-0.67138671875,-6.1492919921875
12.809999900000001,9.710882186889648,-0.6512228846549988,0.6919242739677429,7.4462890625,2.410888671875,-7.476806640625
12.8299999,9.737217903137207,-0.6416460275650024,0.6655880808830261,5.2490234375,2.25830078125,-7.354736328125
12.8499999,9.797073364257812,-0.6512228846549988,0.6344634294509888,5.6610107421875,-4.8828125,-9.2620849609375
12.8699999,9.859322547912598,-0.6751648783683777,0.6272808313369751,3.814697265625,-7.5531005859375,-6.561279296875
12.889999900000001,9.911994934082031,-0.6847416758537292,0.608127236366272,5.9356689453125,1.2664794921875,-7.9345703125
12.9099999,9.931148529052734,-0.6799532771110535,0.5746083855628967,7.8125,4.2724609375,-9.09423828125
12.9299999,9.895236015319824,-0.6416460275650024,0.5530605912208557,2.716064453125,-0.79345703125,-7.8277587890625
12.9499999,9.81143856048584,-0.569819986820221,0.5339069962501526,-1.0528564453125,-3.2806396484375,-5.8746337890625
12.969999900000001,9.708487510681152,-0.47884035110473633,0.5410895943641663,-1.46484375,-3.1890869140625,-2.7923583984375
12.9899999,9.624691009521484,-0.3974374830722809,0.5530605912208557,2.6092529296875,-0.7781982421875,4.4403076171875
13.0099999,9.59596061706543,-0.3471592366695404,0.5889736413955688,4.364013671875,2.13623046875,4.8065185546875
13.0299999,9.624691009521484,-0.33518823981285095,0.629675030708313,4.9591064453125,4.69970703125,-3.021240234375
13.049999900000001,9.703699111938477,-0.3519476354122162,0.6943184733390808,4.2572021484375,3.96728515625,-4.058837890625
13.069999900000001,9.78989028930664,-0.3758896589279175,0.7613561153411865,4.638671875,1.77001953125,-3.9520263671875
13.0899999,9.86650562286377,-0.3974374830722809,0.8331822156906128,4.8980712890625,-0.8392333984375,-2.5482177734375
13.1099999,9.926360130310059,-0.4189853072166443,0.8762778043746948,5.0048828125,-2.2735595703125,-2.3040771484375
13.129999900000001,9.945513725280762,-0.43335050344467163,0.8930372595787048,4.364013671875,-2.74658203125,-6.3934326171875
13.149999900000001,9.93593692779541,-0.44771572947502136,0.871489405632019,3.7384033203125,-2.5634765625,-4.638671875
13.1699999,9.890447616577148,-0.45489832758903503,0.8236053586006165,4.5318603515625,-1.800537109375,-4.3487548828125
13.1899999,9.81143856048584,-0.44532153010368347,0.7709329724311829,4.5623779296875,-0.274658203125,-10.0250244140625
13.209999900000001,9.742006301879883,-0.42856210470199585,0.7158663272857666,4.0740966796875,0.3662109375,-8.697509765625
13.229999900000001,9.679757118225098,-0.395043283700943,0.6799532771110535,3.448486328125,1.89208984375,-4.2572021484375
13.2499999,9.653421401977539,-0.363918662071228,0.6703764796257019,3.9825439453125,6.988525390625,6.561279296875
13.2699999,9.66539192199707,-0.3447650372982025,0.6727706789970398,5.6304931640625,8.758544921875,16.2811279296875
13.289999900000002,9.701305389404297,-0.3519476354122162,0.6847416758537292,2.44140625,5.2032470703125,8.9111328125
13.309999900000001,9.761159896850586,-0.3926490843296051,0.6775590777397156,-3.96728515625,-3.753662109375,0.091552734375
13.3299999,9.801861763000488,-0.4596867263317108,0.6823474764823914,-10.55908203125,-9.1094970703125,-1.46484375
13.3499999,9.861717224121094,-0.4884171485900879,0.6847416758537292,-7.0343017578125,-2.8228759765625,-8.758544921875
13.3699999,9.861717224121094,-0.5003881454467773,0.6919242739677429,4.5013427734375,-1.220703125,-2.1514892578125
13.389999900000001,9.871294021606445,-0.4644751250743866,0.7350199222564697,-2.7618408203125,-2.410888671875,6.195068359375
13.4099999,9.828198432922363,-0.395043283700943,0.7613561153411865,-2.6092529296875,1.52587890625,-4.08935546875
13.4299999,9.780313491821289,-0.33997663855552673,0.8164227604866028,-1.4190673828125,-0.2593994140625,-0.6561279296875
13.4499999,9.713275909423828,-0.28730419278144836,0.8643068075180054,-0.7171630859375,-2.166748046875,0.0457763671875
13.469999900000001,9.667786598205566,-0.27054479718208313,0.8954314589500427,1.007080078125,-1.1444091796875,1.6937255859375
13.4899999,9.660603523254395,-0.28969839215278625,0.8882488012313843,1.3427734375,-2.7313232421875,2.6702880859375
13.5099999,9.691728591918945,-0.3423708379268646,0.8451532125473022,0.6561279296875,-3.35693359375,2.1209716796875
13.5299999,9.742006301879883,-0.42616790533065796,0.7757213711738586,-0.3814697265625,-2.410888671875,0.7476806640625
13.549999900000001,9.785101890563965,-0.507570743560791,0.6991068720817566,-0.8544921875,-1.0528564453125,0.1220703125
13.569999900000001,9.80904483795166,-0.5578489899635315,0.6248866319656372,-0.6561279296875,0.152587890625,-0.274658203125
13.5899999,9.816226959228516,-0.569819986820221,0.5841852426528931,-3.4332275390625,0.030517578125,-0.0457763671875
13.6099999,9.823410034179688,-0.5482721924781799,0.5889736413955688,-5.55419921875,0.4730224609375,-0.6561279296875
13.629999900000001,9.830592155456543,-0.5147533416748047,0.6416460275650024,-4.425048828125,0.9002685546875,-1.983642578125
13.649999900000001,9.835380554199219,-0.4812345504760742,0.7398083209991455,-3.7994384765625,-0.2593994140625,-2.0751953125
13.6699999,9.828198432922363,-0.45010992884635925,0.828393816947937,-2.2125244140625,-0.79345703125,-1.2664794921875
13.6899999,9.799467086791992,-0.4118026793003082,0.8906430602073669,-2.105712890625,-0.274658203125,-1.007080078125
13.709999900000001,9.765948295593262,-0.38307225704193115,0.9050082564353943,-3.35693359375,-0.3814697265625,-1.007080078125
13.729999900000001,9.732429504394531,-0.363918662071228,0.8978256583213806,-3.753662109375,-0.701904296875,-0.4730224609375
13.7499999,9.713275909423828,-0.3711012601852417,0.8738836050033569,-3.173828125,-0.8087158203125,0.0152587890625
13.7699999,9.708487510681152,-0.3878606855869293,0.8403648138046265,-3.173828125,-1.2359619140625,0.3204345703125
13.789999900000002,9.718064308166504,-0.40222588181495667,0.7948749661445618,-4.45556640625,-0.18310546875,0.244140625
13.809999900000001,9.727641105651855,-0.3926490843296051,0.7445967197418213,-5.9356689453125,1.15966796875,0.518798828125
13.8299999,9.739612579345703,-0.3663128614425659,0.7134721279144287,-6.9732666015625,1.983642578125,0.7171630859375
13.8499999,9.758766174316406,-0.3256114423274994,0.7134721279144287,-6.8817138671875,3.2196044921875,1.7242431640625
13.8699999,9.780313491821289,-0.29209262132644653,0.7374141216278076,-6.6680908203125,1.9683837890625,1.8463134765625
13.889999900000001,9.801861763000488,-0.2777273952960968,0.7805097699165344,-6.9427490234375,1.708984375,1.6632080078125
13.9099999,9.818621635437012,-0.29209262132644653,0.8331822156906128,-6.683349609375,2.777099609375,0.823974609375
13.9299999,9.823410034179688,-0.3256114423274994,0.8930372595787048,-4.913330078125,3.1280517578125,0.5950927734375
13.9499999,9.816226959228516,-0.37828385829925537,0.9648633003234863,-2.7618408203125,1.007080078125,0.0457763671875
13.969999900000001,9.794678688049316,-0.42856210470199585,1.0342950820922852,-0.3814697265625,-0.5035400390625,-1.64794921875
13.9899999,9.763554573059082,-0.47644615173339844,1.0845733880996704,1.46484375,-0.3509521484375,-1.6937255859375
14.0099999,9.744400978088379,-0.5051765441894531,1.094150185585022,2.6092529296875,-1.373291015625,0.6103515625
14.0299999,9.734824180603027,-0.524330198764801,1.0582371950149536,2.3193359375,-1.7852783203125,1.3885498046875
14.049999900000001,9.75637149810791,-0.5363011956214905,0.9983820915222168,0.9613037109375,-1.7547607421875,1.2664794921875
14.069999900000001,9.804255485534668,-0.5554547905921936,0.9241618514060974,0.213623046875,-2.6397705078125,0.8544921875
14.0899999,9.856928825378418,-0.5817909836769104,0.8571242094039917,0.1678466796875,-2.8533935546875,0.244140625
14.1099999,9.888052940368652,-0.5961562395095825,0.8044517636299133,0.2899169921875,-1.678466796875,-0.946044921875
14.129999900000001,9.890447616577148,-0.5937620401382446,0.7661445140838623,-0.67138671875,-1.7852783203125,-0.9918212890625
14.149999900000001,9.849745750427246,-0.5626373887062073,0.7422025203704834,-1.739501953125,-2.2430419921875,-0.5950927734375
14.1699999,9.794678688049316,-0.5171475410461426,0.7398083209991455,-1.6326904296875,-2.471923828125,-0.335693359375
14.1899999,9.746794700622559,-0.4668693244457245,0.7613561153411865,-1.8463134765625,-2.044677734375,-0.1678466796875
14.209999900000001,9.720458984375,-0.4213795065879822,0.8044517636299133,-2.2735595703125,-1.2054443359375,-0.4425048828125
14.229999900000001,9.718064308166504,-0.38546648621559143,0.8475474119186401,-1.190185546875,-0.54931640625,-0.30517578125
14.2499999,9.720458984375,-0.36152446269989014,0.8954314589500427,-1.708984375,-0.7781982421875,0.579833984375
14.2699999,9.732429504394531,-0.3495534360408783,0.9193734526634216,-1.6021728515625,-1.190185546875,1.251220703125
14.289999900000002,9.734824180603027,-0.3519476354122162,0.9193734526634216,-0.8087158203125,-1.6021728515625,1.1749267578125
14.309999900000001,9.744400978088379,-0.3663128614425659,0.9026140570640564,-0.9307861328125,-2.25830078125,1.4801025390625
14.3299999,9.75397777557373,-0.3878606855869293,0.8786720037460327,-1.495361328125,-2.044677734375,1.678466796875
14.3499999,9.773131370544434,-0.4118026793003082,0.8547300100326538,-1.2359619140625,-1.6021728515625,1.77001953125
14.3699999,9.794678688049316,-0.4381389021873474,0.8379706144332886,-1.4801025390625,-1.434326171875,2.349853515625
14.389999900000001,9.813833236694336,-0.4668693244457245,0.8331822156906128,-2.3345947265625,-1.64794921875,2.8533935546875
14.4099999,9.830592155456543,-0.49320554733276367,0.8331822156906128,-1.8310546875,-1.8157958984375,1.708984375
14.4299999,9.835380554199219,-0.5147533416748047,0.8451532125473022,-2.86865234375,-1.556396484375,1.0986328125
14.4499999,9.830592155456543,-0.5315127968788147,0.8547300100326538,-3.5858154296875,-1.708984375,1.6326904296875
14.469999900000001,9.806650161743164,-0.5410895943641663,0.871489405632019,-3.84521484375,-2.0751953125,2.0751953125
14.4899999,9.775525093078613,-0.5506663918495178,0.8810662031173706,-2.9449462890625,-1.40380859375,2.1514892578125
14.5099999,9.742006301879883,-0.5626373887062073,0.8810662031173706,-2.8533935546875,-1.1749267578125,1.9989013671875
14.5299999,9.715670585632324,-0.5674257874488831,0.8571242094039917,-2.899169921875,-1.1138916015625,1.953125
14.549999900000001,9.708487510681152,-0.5650315880775452,0.8236053586006165,-3.3721923828125,-0.946044921875,2.197265625
14.569999900000001,9.715670585632324,-0.5578489899635315,0.7829039692878723,-3.5858154296875,0.2288818359375,2.3956298828125
14.5899999,9.739612579345703,-0.5626373887062073,0.7757213711738586,-3.7841796875,1.1749267578125,2.197265625
14.6099999,9.758766174316406,-0.5722141861915588,0.7972691655158997,-2.197265625,1.2054443359375,1.5411376953125
14.629999900000001,9.773131370544434,-0.5889736413955688,0.849941611289978,-1.3885498046875,0.213623046875,1.0528564453125
14.649999900000001,9.770736694335938,-0.5985504388809204,0.9026140570640564,-1.129150390625,-0.7476806640625,1.129150390625
14.6699999,9.75637149810791,-0.5985504388809204,0.9169792532920837,-0.6103515625,-1.3580322265625,1.4190673828125
14.6899999,9.737217903137207,-0.6009446382522583,0.9026140570640564,-2.01416015625,-1.007080078125,2.1209716796875
14.709999900000001,9.720458984375,-0.5985504388809204,0.8595184087753296,-1.9989013671875,-0.152587890625,1.9378662109375
14.729999900000001,9.715670585632324,-0.6105214357376099,0.8259995579719543,-2.044677734375,-0.1678466796875,1.4495849609375
14.7499999,9.715670585632324,-0.629675030708313,0.8092401623725891,-2.4871826171875,-0.18310546875,2.0904541015625
14.7699999,9.730035781860352,-0.6536170840263367,0.811634361743927,-2.8533935546875,-0.030517578125,2.7923583984375
14.789999900000002,9.751583099365234,-0.6727706789970398,0.828393816947937,-2.4871826171875,-0.274658203125,1.89208984375
14.809999900000001,9.782708168029785,-0.6943184733390808,0.8523358106613159,-2.50244140625,-0.2288818359375,1.8157958984375
14.8299999,9.821015357971191,-0.706289529800415,0.8762778043746948,-3.0517578125,-0.274658203125,2.0904541015625
14.8499999,9.854534149169922,-0.7182605266571045,0.9002198576927185,-3.265380859375,-1.129150390625,1.220703125
14.8699999,9.871294021606445,-0.7182605266571045,0.9193734526634216,-3.1585693359375,-1.312255859375,-0.152587890625
14.889999900000001,9.859322547912598,-0.7015010714530945,0.9265560507774353,-2.4871826171875,-1.2969970703125,-0.67138671875
14.9099999,9.825803756713867,-0.6703764796257019,0.9169792532920837,-1.708984375,-0.67138671875,0.2288818359375
14.9299999,9.785101890563965,-0.6416460275650024,0.9026140570640564,-3.0364990234375,-1.129150390625,1.46484375
14.9499999,9.763554573059082,-0.6344634294509888,0.8930372595787048,-3.875732421875,-1.8768310546875,1.9683837890625
14.969999900000001,9.765948295593262,-0.6584054827690125,0.8906430602073669,-3.2196044921875,-1.708984375,1.0223388671875
14.9899999,9.78989028930664,-0.6991068720817566,0.8954314589500427,-2.777099609375,-1.6632080078125,-0.5645751953125
15.0099999,9.80904483795166,-0.7422025203704834,0.9002198576927185,-3.4637451171875,-1.251220703125,-1.28173828125
15.0299999,9.813833236694336,-0.7613561153411865,0.8930372595787048,-2.6702880859375,-0.8087158203125,-0.9765625
15.049999900000001,9.794678688049316,-0.7493851184844971,0.8786720037460327,-2.13623046875,-0.762939453125,-1.1444091796875
15.069999900000001,9.758766174316406,-0.7110779285430908,0.8571242094039917,-2.13623046875,-0.4425048828125,-1.2359619140625
15.0899999,9.72285270690918,-0.6536170840263367,0.828393816947937,-1.556396484375,0.274658203125,-0.640869140625
15.1099999,9.6989107131958,-0.6009446382522583,0.7996633648872375,-2.01416015625,1.15966796875,0.244140625
15.129999900000001,9.708487510681152,-0.5722141861915588,0.7781155705451965,-2.0599365234375,1.434326171875,0.3662109375
15.149999900000001,9.734824180603027,-0.5674257874488831,0.7733271718025208,-1.5869140625,2.0599365234375,-0.7476806640625
15.1699999,9.794678688049316,-0.5386953949928284,0.7805097699165344,-2.105712890625,1.983642578125,-0.8697509765625
15.1899999,9.804255485534668,-0.5937620401382446,0.8427590131759644,-9.765625,3.448486328125,3.5247802734375
15.209999900000001,9.828198432922363,-0.5793967843055725,0.9002198576927185,-5.3863525390625,0.518798828125,2.777099609375
15.229999900000001,9.792284965515137,-0.6392518281936646,0.993593692779541,-0.213623046875,0.5035400390625,1.068115234375
15.2499999,9.763554573059082,-0.6847416758537292,1.0630255937576294,-0.4119873046875,1.15966796875,2.1209716796875
15.2699999,9.737217903137207,-0.727837324142456,1.1085153818130493,-0.213623046875,-1.6326904296875,2.471923828125
15.289999900000002,9.715670585632324,-0.7733271718025208,1.1037269830703735,-0.8697509765625,-3.2806396484375,2.410888671875
15.309999900000001,9.718064308166504,-0.8068459630012512,1.036689281463623,-0.9307861328125,-3.7994384765625,2.0751953125
15.3299999,9.732429504394531,-0.8188169598579407,0.933738648891449,-2.8076171875,-2.3193359375,1.9378662109375
15.3499999,9.744400978088379,-0.8140285611152649,0.8212111592292786,-3.6773681640625,-0.396728515625,0.8544921875
15.3699999,9.75637149810791,-0.7996633648872375,0.7422025203704834,-3.0059814453125,0.2593994140625,0.701904296875
15.389999900000001,9.751583099365234,-0.7829039692878723,0.7422025203704834,-4.1046142578125,0.640869140625,2.5177001953125
15.4099999,9.746794700622559,-0.7781155705451965,0.8140285611152649,-4.9591064453125,-0.762939453125,3.3111572265625
15.4299999,9.751583099365234,-0.7972691655158997,0.9193734526634216,-5.096435546875,-3.082275390625,2.8533935546875
15.4499999,9.749189376831055,-0.8307880163192749,1.0295066833496094,-5.4779052734375,-3.1890869140625,1.556396484375
15.469999900000001,9.742006301879883,-0.8667010068893433,1.0965443849563599,-4.4097900390625,-2.8228759765625,0.823974609375
15.4899999,9.737217903137207,-0.8978256583213806,1.1228805780410767,-3.2501220703125,-2.288818359375,1.6632080078125
15.5099999,9.739612579345703,-0.9193734526634216,1.1516109704971313,-11.2457275390625,14.2822265625,19.6380615234375
15.5299999,9.739612579345703,-0.9433154463768005,1.1635819673538208,-7.4462890625,24.0020751953125,22.3541259765625
15.549999900000001,9.751583099365234,-0.9409212470054626,1.1779472827911377,0.885009765625,6.9122314453125,3.6163330078125
15.569999900000001,9.744400978088379,-0.9361328482627869,1.1492167711257935,-0.5035400390625,-4.669189453125,-1.251220703125
15.5899999,9.72285270690918,-0.8954314589500427,1.0582371950149536,3.2806396484375,-12.5885009765625,-8.392333984375
15.6099999,9.708487510681152,-0.8475474119186401,0.9528923034667969,3.7689208984375,-7.7056884765625,-9.2620849609375
15.629999900000001,9.701305389404297,-0.8068459630012512,0.8475474119186401,1.4495849609375,-0.7171630859375,-5.645751953125
15.649999900000001,9.6989107131958,-0.7805097699165344,0.7924807667732239,-0.0152587890625,-2.8228759765625,-2.38037109375
15.6699999,9.744400978088379,-0.768538773059845,0.7996633648872375,-0.885009765625,-4.7454833984375,-3.0670166015625
15.6899999,9.765948295593262,-0.7805097699165344,0.8643068075180054,-2.0751953125,3.11279296875,1.6326904296875
15.709999900000001,9.806650161743164,-0.7972691655158997,0.9600749015808105,0,5.401611328125,2.410888671875
15.729999900000001,9.823410034179688,-0.8379706144332886,1.0773907899856567,-1.5716552734375,1.5716552734375,4.1656494140625
15.7499999,9.792284965515137,-0.871489405632019,1.1683704853057861,-1.861572265625,-1.861572265625,5.401611328125
15.7699999,9.75397777557373,-0.8906430602073669,1.213860273361206,2.8533935546875,-4.7454833984375,0.2899169921875
15.789999900000002,9.706093788146973,-0.9050082564353943,1.2114660739898682,2.7008056640625,-5.8746337890625,0.1983642578125
15.809999900000001,9.670180320739746,-0.9217676520347595,1.1563993692398071,0.18310546875,-1.617431640625,3.9825439453125
15.8299999,9.672574996948242,-0.950498104095459,1.0773907899856567,0.885009765625,-2.3345947265625,1.15966796875
15.8499999,9.684545516967773,-1.0007762908935547,0.9983820915222168,-1.434326171875,-2.532958984375,1.2664794921875
15.869999900000002,9.713275909423828,-1.0462661981582642,0.9313444495201111,-2.2430419921875,-2.0599365234375,0.823974609375
15.889999900000001,9.763554573059082,-1.0654197931289673,0.8858546018600464,-2.197265625,-1.2664794921875,-0.7476806640625
15.9099999,9.806650161743164,-1.0749965906143188,0.8834604024887085,-2.685546875,0.9613037109375,-1.64794921875
15.9299999,9.856928825378418,-1.048660397529602,0.9026140570640564,-1.8310546875,1.312255859375,-3.2196044921875
15.9499999,9.888052940368652,-1.0103530883789062,0.9528923034667969,-2.593994140625,-1.0833740234375,-4.3792724609375
15.969999900000001,9.890447616577148,-0.9600749015808105,1.0031704902648926,-2.899169921875,-1.2969970703125,-5.43212890625
15.9899999,9.86650562286377,-0.8978256583213806,1.048660397529602,-1.922607421875,-2.1820068359375,-7.2174072265625
16.0099999,9.799467086791992,-0.8307880163192749,1.0678139925003052,1.0528564453125,-1.6632080078125,-7.354736328125
16.0299999,9.763554573059082,-0.7852981686592102,1.0558429956436157,0.6866455078125,-1.4801025390625,-2.5482177734375
16.0499999,9.677363395690918,-0.7757213711738586,1.0199298858642578,-5.0201416015625,-4.0435791015625,-1.3885498046875
16.0699999,9.651026725769043,-0.7876923680305481,0.9600749015808105,-5.9356689453125,-4.364013671875,3.509521484375
16.089999900000002,9.636661529541016,-0.8379706144332886,0.9074024558067322,-3.11279296875,-2.5634765625,7.2479248046875
16.109999900000002,9.651026725769043,-0.8882488012313843,0.8786720037460327,-1.28173828125,0.3204345703125,3.9215087890625
16.1299999,9.703699111938477,-0.9193734526634216,0.8786720037460327,-0.8697509765625,1.40380859375,-0.42724609375
16.1499999,9.746794700622559,-0.9313444495201111,0.9193734526634216,-2.6397705078125,0.6866455078125,-3.4942626953125
16.1699999,9.780313491821289,-0.9145850539207458,0.9744400978088379,-1.4801025390625,-0.7476806640625,-4.94384765625
16.1899999,9.797073364257812,-0.8738836050033569,1.036689281463623,-0.2288818359375,-3.6468505859375,-5.157470703125
16.2099999,9.797073364257812,-0.8164227604866028,1.094150185585022,0.7171630859375,-4.2724609375,-5.2490234375
16.2299999,9.787496566772461,-0.7589619159698486,1.1300631761550903,2.3956298828125,-3.265380859375,-3.41796875
16.249999900000002,9.761159896850586,-0.706289529800415,1.158793568611145,2.9754638671875,-4.8065185546875,1.0528564453125
16.269999900000002,9.706093788146973,-0.6703764796257019,1.161187767982483,1.6326904296875,-5.3253173828125,4.5928955078125
16.2899999,9.684545516967773,-0.6416460275650024,1.1420341730117798,1.2054443359375,-7.7056884765625,5.92041015625
16.3099999,9.660603523254395,-0.6847416758537292,1.0989385843276978,-1.800537109375,-7.4920654296875,7.904052734375
16.3299999,9.66299819946289,-0.7613561153411865,1.0223240852355957,0.213623046875,-6.7291259765625,9.0789794921875
16.3499999,9.706093788146973,-0.8954314589500427,0.9385270476341248,4.8675537109375,-8.392333984375,8.11767578125
16.3699999,9.775525093078613,-1.036689281463623,0.8355764150619507,7.293701171875,-8.8348388671875,4.3792724609375
16.3899999,9.892841339111328,-1.1180921792984009,0.7374141216278076,5.31005859375,-11.71875,-3.1585693359375
16.4099999,9.981427192687988,-1.1540051698684692,0.6727706789970398,2.288818359375,-9.6893310546875,-13.00048828125
16.429999900000002,10.007762908935547,-1.1037269830703735,0.6200982332229614,1.6937255859375,-5.06591796875,-17.5323486328125
16.4499999,9.96945571899414,-1.01753568649292,0.6177040338516235,0.18310546875,-6.7596435546875,-15.899658203125
16.4699999,9.86889934539795,-0.9193734526634216,0.646434485912323,-1.9683837890625,-5.8746337890625,-11.749267578125
16.4899999,9.78989028930664,-0.7829039692878723,0.6536170840263367,3.173828125,-7.87353515625,-11.4898681640625
16.5099999,9.739612579345703,-0.7158663272857666,0.7038952708244324,-0.946044921875,-6.7138671875,-8.209228515625
16.5299999,9.706093788146973,-0.6416460275650024,0.7469909191131592,-3.2958984375,-3.662109375,-7.8582763671875
16.5499999,9.694122314453125,-0.6033388376235962,0.8020575642585754,1.4495849609375,-2.2430419921875,-6.6375732421875
16.5699999,9.66539192199707,-0.5817909836769104,0.8427590131759644,2.50244140625,-2.9296875,-2.9754638671875
16.589999900000002,9.643844604492188,-0.5793967843055725,0.828393816947937,-0.4730224609375,-4.21142578125,0.6561279296875
16.609999900000002,9.619902610778809,-0.5889736413955688,0.7422025203704834,-6.4697265625,-4.9591064453125,2.0751953125
16.6299999,9.636661529541016,-0.6224924325942993,0.6416460275650024,-12.359619140625,0.2288818359375,1.4495849609375
16.6499999,9.708487510681152,-0.6488286852836609,0.5386953949928284,-9.6893310546875,4.8675537109375,-0.4730224609375
16.6699999,9.775525093078613,-0.6655880808830261,0.4692635238170624,-7.0037841796875,5.950927734375,-4.119873046875
16.6899999,9.938331604003906,-0.6009446382522583,0.4884171485900879,-15.44189453125,5.1116943359375,-2.5177001953125
16.7099999,10.000580787658691,-0.6153098344802856,0.5291185975074768,-27.2979736328125,2.5634765625,4.791259765625
16.7299999,10.04846477508545,-0.586579442024231,0.6272808313369751,-18.1732177734375,7.6141357421875,-1.5411376953125
16.749999900000002,10.014945983886719,-0.6057330369949341,0.7589619159698486,-15.5029296875,7.3089599609375,-3.84521484375
16.769999900000002,9.9000244140625,-0.6727706789970398,0.7948749661445618,-18.402099609375,-6.28662109375,-1.3580322265625
16.7899999,9.797073364257812,-0.6631938815116882,0.9624691009521484,-28.62548828125,-10.101318359375,-2.8076171875
16.8099999,9.6989107131958,-0.6799532771110535,0.8786720037460327,-46.600341796875,-21.1334228515625,-2.349853515625
16.8299999,9.62947940826416,-0.6631938815116882,0.7876923680305481,-37.29248046875,-16.3726806640625,-2.6397705078125
16.8499999,9.59596061706543,-0.6512228846549988,0.586579442024231,-14.1448974609375,3.0670166015625,-3.5858154296875
16.8699999,9.59835433959961,-0.6129156351089478,0.38067805767059326,-4.608154296875,8.087158203125,-4.8675537109375
16.8899999,9.672574996948242,-0.5315127968788147,0.26336219906806946,1.678466796875,2.5634765625,-3.4332275390625
16.9099999,9.765948295593262,-0.4620809257030487,0.2801215946674347,2.99072265625,1.64794921875,3.41796875
16.929999900000002,9.823410034179688,-0.4357447028160095,0.3687070608139038,0.9613037109375,5.31005859375,4.69970703125
16.9499999,9.852140426635742,-0.4812345504760742,0.4908113479614258,4.0740966796875,5.2032470703125,-0.1983642578125
16.9699999,9.84495735168457,-0.5578489899635315,0.6392518281936646,5.2490234375,3.8604736328125,-2.50244140625
16.9899999,9.828198432922363,-0.6440402865409851,0.8068459630012512,4.608154296875,2.1820068359375,-0.6103515625
17.0099999,9.84495735168457,-0.7230489253997803,0.9145850539207458,1.6632080078125,-2.25830078125,-1.03759765625
17.0299999,9.825803756713867,-0.7924807667732239,0.9576807022094727,-4.57763671875,-8.453369140625,-9.70458984375
17.0499999,9.78989028930664,-0.7924807667732239,0.9002198576927185,-5.9661865234375,-10.07080078125,-15.5487060546875
17.0699999,9.763554573059082,-0.7637503147125244,0.7134721279144287,4.241943359375,-10.101318359375,-9.857177734375
17.089999900000002,9.746794700622559,-0.6272808313369751,0.5003881454467773,12.8936767578125,-3.7689208984375,-4.8828125
17.109999900000002,9.725247383117676,-0.5506663918495178,0.30885201692581177,13.580322265625,3.96728515625,-3.173828125
17.1299999,9.703699111938477,-0.48602294921875,0.19871874153614044,10.4827880859375,10.1470947265625,-10.0250244140625
17.1499999,9.68933391571045,-0.5363011956214905,0.2322375625371933,10.5438232421875,11.322021484375,-11.41357421875
17.1699999,9.66539192199707,-0.569819986820221,0.33758243918418884,8.4686279296875,6.3629150390625,-14.22119140625
17.1899999,9.684545516967773,-0.5674257874488831,0.5817909836769104,3.60107421875,4.241943359375,-17.2576904296875
17.2099999,9.715670585632324,-0.5195417404174805,0.9672574996948242,5.6610107421875,-1.1444091796875,-16.632080078125
17.2299999,9.734824180603027,-0.3495534360408783,1.139639973640442,-6.927490234375,-20.7977294921875,-13.6260986328125
17.249999900000002,9.737217903137207,-0.21547815203666687,1.3407529592514038,-7.1258544921875,-5.767822265625,-6.28662109375
17.269999900000002,9.765948295593262,-0.06464344263076782,1.1204863786697388,7.080078125,-0.91552734375,-3.7689208984375
17.2899999,9.799467086791992,0.019153613597154617,0.9217676520347595,15.594482421875,-0.030517578125,-4.6234130859375
17.3099999,9.837775230407715,0.05027823522686958,0.6991068720817566,17.0135498046875,-2.7618408203125,-4.730224609375
17.3299999,9.856928825378418,-0.011971008032560349,0.5889736413955688,9.9334716796875,-8.3465576171875,-0.48828125
17.3499999,9.84256362915039,-0.08619125932455063,0.5770025849342346,7.0037841796875,-3.5247802734375,-6.65283203125
17.3699999,9.80904483795166,-0.1604115068912506,0.5602431893348694,12.7410888671875,-3.0670166015625,-12.3291015625
17.3899999,9.785101890563965,-0.20350714027881622,0.6584054827690125,14.95361328125,-8.056640625,-7.0953369140625
17.409999900000003,9.794678688049316,-0.15801730751991272,0.6967126727104187,8.85009765625,-24.7955322265625,-1.953125
17.429999900000002,9.84495735168457,-0.0933738648891449,0.7422025203704834,-2.6397705078125,-12.2528076171875,-1.678466796875
17.4499999,9.86889934539795,-0.016759412363171577,0.7948749661445618,-2.0751953125,9.94873046875,-3.84521484375
17.4699999,9.876082420349121,0.023942016065120697,0.7350199222564697,-3.2501220703125,0.4425048828125,-1.1138916015625
17.4899999,9.864110946655273,0.06224924325942993,0.7134721279144287,-0.885009765625,-9.9029541015625,2.0904541015625
17.5099999,9.821015357971191,0.06703764945268631,0.6727706789970398,0.3509521484375,-12.786865234375,3.3111572265625
17.5299999,9.782708168029785,0.035913024097681046,0.5339069962501526,-1.1749267578125,-9.918212890625,2.0751953125
17.5499999,9.737217903137207,0.035913024097681046,0.4189853072166443,-0.579833984375,0.1068115234375,-1.007080078125
17.5699999,9.72285270690918,-0.004788403399288654,0.3232172429561615,0.18310546875,1.3580322265625,2.960205078125
17.589999900000002,9.75397777557373,-0.12928688526153564,0.31124621629714966,5.5084228515625,-6.805419921875,2.197265625
17.609999900000002,9.856928825378418,-0.3016694188117981,0.40222588181495667,14.5416259765625,-4.8980712890625,-20.1568603515625
17.6299999,9.952696800231934,-0.3471592366695404,0.4884171485900879,14.0838623046875,-0.7171630859375,-40.130615234375
17.6499999,10.010157585144043,-0.3902548849582672,0.6033388376235962,-2.410888671875,1.9683837890625,-25.0701904296875
17.6699999,9.955090522766113,-0.16998831927776337,0.6584054827690125,-1.922607421875,0.9765625,-13.36669921875
17.6899999,9.837775230407715,0.06703764945268631,0.6967126727104187,9.9639892578125,3.90625,-12.725830078125
17.7099999,9.6989107131958,0.2968810200691223,0.6703764796257019,20.2178955078125,7.6751708984375,-7.7667236328125
17.7299999,9.617507934570312,0.47644615173339844,0.6272808313369751,23.6663818359375,8.697509765625,-3.936767578125
17.749999900000002,9.615114212036133,0.5985504388809204,0.5363011956214905,32.0587158203125,11.199951171875,-3.7994384765625
17.769999900000002,9.653421401977539,0.6775590777397156,0.4357447028160095,29.388427734375,8.209228515625,-9.5977783203125
17.7899999,9.72285270690918,0.6967126727104187,0.3663128614425659,24.59716796875,10.7879638671875,-10.9405517578125
17.8099999,9.770736694335938,0.7134721279144287,0.33518823981285095,22.4151611328125,7.2784423828125,-8.7890625
17.8299999,9.77791976928711,0.6919242739677429,0.35913026332855225,23.468017578125,-0.762939453125,-5.5694580078125
17.8499999,9.770736694335938,0.6488286852836609,0.45250412821769714,25.3448486328125,-0.30517578125,-4.9896240234375
17.8699999,9.782708168029785,0.6129156351089478,0.545877993106842,26.8402099609375,6.103515625,-7.6446533203125
17.8899999,9.801861763000488,0.5339069962501526,0.6416460275650024,23.4832763671875,8.0413818359375,-5.4779052734375
17.909999900000003,9.84495735168457,0.507570743560791,0.7086837291717529,21.759033203125,2.838134765625,-5.1727294921875
17.929999900000002,9.873687744140625,0.49559974670410156,0.7493851184844971,23.6663818359375,-1.800537109375,-5.2947998046875
17.9499999,9.8784761428833,0.5123591423034668,0.7733271718025208,26.3519287109375,-3.5247802734375,1.5411376953125
17.9699999,9.861717224121094,0.5626373887062073,0.7852981686592102,29.8919677734375,-5.5999755859375,6.4544677734375
17.9899999,9.816226959228516,0.6584054827690125,0.7589619159698486,34.8968505859375,-3.662109375,1.4495849609375
18.0099999,9.763554573059082,0.7589619159698486,0.689530074596405,35.797119140625,1.1444091796875,3.1280517578125
18.0299999,9.6989107131958,0.8451532125473022,0.608127236366272,31.2652587890625,7.01904296875,9.2315673828125
18.0499999,9.646238327026367,0.912190854549408,0.5147533416748047,26.4739990234375,6.195068359375,10.19287109375
18.0699999,9.622296333312988,0.9217676520347595,0.4572925269603729,23.773193359375,0.1678466796875,10.68115234375
18.089999900000002,9.624691009521484,0.8810662031173706,0.44771572947502136,22.552490234375,-2.8076171875,10.7269287109375
18.109999900000002,9.670180320739746,0.8259995579719543,0.4596867263317108,21.6522216796875,0.823974609375,8.1634521484375
18.1299999,9.682151794433594,0.7398083209991455,0.507570743560791,21.4996337890625,6.744384765625,3.8604736328125
18.1499999,9.730035781860352,0.6607996821403503,0.5291185975074768,24.84130859375,7.843017578125,2.0904541015625
18.1699999,9.749189376831055,0.5937620401382446,0.5650315880775452,21.5911865234375,-1.0528564453125,2.2125244140625
18.1899999,9.799467086791992,0.5363011956214905,0.6105214357376099,15.4571533203125,-4.180908203125,4.058837890625
18.2099999,9.825803756713867,0.5099649429321289,0.6105214357376099,21.6217041015625,4.0740966796875,2.9144287109375
18.2299999,9.821015357971191,0.524330198764801,0.6248866319656372,22.430419921875,3.814697265625,2.50244140625
18.249999900000002,9.775525093078613,0.5434837937355042,0.5985504388809204,21.636962890625,4.058837890625,7.4920654296875
18.269999900000002,9.718064308166504,0.586579442024231,0.586579442024231,23.040771484375,7.110595703125,8.056640625
18.2899999,9.670180320739746,0.5913678407669067,0.6200982332229614,31.280517578125,9.33837890625,6.072998046875
18.3099999,9.730035781860352,0.5315127968788147,0.7445967197418213,39.9322509765625,5.8746337890625,9.2315673828125
18.3299999,9.804255485534668,0.4596867263317108,0.9074024558067322,42.6483154296875,2.2430419921875,7.7667236328125
18.3499999,9.90241813659668,0.363918662071228,1.0247182846069336,45.3643798828125,-4.1046142578125,5.55419921875
18.3699999,9.962273597717285,0.304063618183136,1.0821791887283325,37.53662109375,-1.6021728515625,1.3427734375
18.3899999,9.952696800231934,0.3064578175544739,1.0271124839782715,26.8707275390625,-0.5340576171875,0.06103515625
18.409999900000003,9.90241813659668,0.33518823981285095,0.9385270476341248,23.37646484375,-2.7313232421875,4.302978515625
18.429999900000002,9.830592155456543,0.37828385829925537,0.8571242094039917,22.9034423828125,-1.7852783203125,4.4097900390625
18.4499999,9.775525093078613,0.4165911078453064,0.8188169598579407,22.186279296875,-0.701904296875,2.3040771484375
18.4699999,9.718064308166504,0.42377370595932007,0.8188169598579407,22.1405029296875,-1.251220703125,0.7781982421875
18.4899999,9.667786598205566,0.42377370595932007,0.8140285611152649,22.8271484375,-2.86865234375,1.6937255859375
18.5099999,9.62947940826416,0.40940847992897034,0.7972691655158997,18.6920166015625,-4.2266845703125,4.9591064453125
18.5299999,9.617507934570312,0.395043283700943,0.790086567401886,8.4991455078125,-3.1280517578125,5.79833984375
18.5499999,9.622296333312988,0.38307225704193115,0.7637503147125244,12.1307373046875,-3.0364990234375,2.960205078125
18.5699999,9.653421401977539,0.3687070608139038,0.751779317855835,19.805908203125,-3.1890869140625,2.86865234375
18.589999900000002,9.694122314453125,0.36152446269989014,0.730231523513794,19.3023681640625,-3.997802734375,2.3956298828125
18.609999900000002,9.727641105651855,0.3447650372982025,0.6919242739677429,13.3514404296875,-2.5177001953125,0.244140625
18.6299999,9.770736694335938,0.33039984107017517,0.6368576288223267,2.44140625,-2.0751953125,0.48828125
18.6499999,9.823410034179688,0.3280056416988373,0.6177040338516235,-11.4898681640625,-3.1890869140625,4.2724609375
18.6699999,9.880870819091797,0.3232172429561615,0.6177040338516235,-12.51220703125,-2.2430419921875,3.0517578125
18.6899999,9.911994934082031,0.3208230137825012,0.6536170840263367,-7.1563720703125,-2.8076171875,-2.410888671875
18.7099999,9.940725326538086,0.3208230137825012,0.6919242739677429,-4.486083984375,-8.4075927734375,-4.45556640625
18.7299999,9.940725326538086,0.3208230137825012,0.7613561153411865,-3.8604736328125,-10.4522705078125,-2.50244140625
18.749999900000002,9.943120002746582,0.33039984107017517,0.7781155705451965,8.3770751953125,-9.5672607421875,-1.4495849609375
18.769999900000002,9.938331604003906,0.3447650372982025,0.7924807667732239,13.5955810546875,-8.1939697265625,-3.753662109375
18.7899999,9.931148529052734,0.33997663855552673,0.7326257228851318,11.4898681640625,-7.99560546875,-4.5623779296875
18.8099999,9.890447616577148,0.33279404044151306,0.6416460275650024,5.4168701171875,-6.9427490234375,-2.471923828125
18.8299999,9.86650562286377,0.3064578175544739,0.545877993106842,3.23486328125,-5.9661865234375,-0.3509521484375
18.8499999,9.825803756713867,0.2825157940387726,0.47644615173339844,4.852294921875,-3.96728515625,-0.8087158203125
18.8699999,9.799467086791992,0.28969839215278625,0.44771572947502136,5.1422119140625,-5.9967041015625,-4.82177734375
18.8899999,9.768342971801758,0.2992752194404602,0.4381389021873474,5.035400390625,-6.6680908203125,-4.4097900390625
18.909999900000003,9.72285270690918,0.3423708379268646,0.3974374830722809,6.3018798828125,-5.7373046875,-2.86865234375
18.929999900000002,9.68694019317627,0.38067805767059326,0.363918662071228,1.2664794921875,-2.6702880859375,-0.335693359375
18.9499999,9.677363395690918,0.40462008118629456,0.3208230137825012,0.79345703125,0.946044921875,-0.1220703125
18.9699999,9.703699111938477,0.3926490843296051,0.31364041566848755,3.387451171875,1.068115234375,-2.288818359375
18.9899999,9.746794700622559,0.3734954595565796,0.3280056416988373,5.645751953125,0.06103515625,-4.8370361328125
19.0099999,9.78989028930664,0.3687070608139038,0.3495534360408783,3.2958984375,-0.06103515625,-4.08935546875
19.0299999,9.804255485534668,0.3926490843296051,0.36152446269989014,1.15966796875,1.373291015625,-1.64794921875
19.0499999,9.823410034179688,0.4381389021873474,0.3687070608139038,3.326416015625,2.62451171875,-1.2054443359375
19.0699999,9.854534149169922,0.48602294921875,0.38307225704193115,5.3253173828125,3.570556640625,-3.3416748046875
19.089999900000002,9.9000244140625,0.5171475410461426,0.42856210470199585,6.744384765625,4.608154296875,-7.5225830078125
19.109999900000002,9.928754806518555,0.5339069962501526,0.47884035110473633,6.2255859375,1.52587890625,-7.26318359375
19.1299999,9.926360130310059,0.5530605912208557,0.5482721924781799,2.3651123046875,-2.13623046875,-2.2125244140625
19.1499999,9.876082420349121,0.5626373887062073,0.5817909836769104,2.3345947265625,-2.777099609375,-0.1983642578125
19.1699999,9.804255485534668,0.5793967843055725,0.5913678407669067,2.8228759765625,-1.4801025390625,-0.823974609375
19.1899999,9.751583099365234,0.586579442024231,0.5841852426528931,4.0283203125,-0.3509521484375,-1.7852783203125
19.2099999,9.715670585632324,0.5985504388809204,0.5602431893348694,6.011962890625,0.5035400390625,-3.2958984375
19.2299999,9.710882186889648,0.6009446382522583,0.5602431893348694,5.6304931640625,-0.8392333984375,-1.7852783203125
19.249999900000002,9.718064308166504,0.6272808313369751,0.5602431893348694,5.2947998046875,-2.471923828125,-0.6561279296875
19.269999900000002,9.720458984375,0.6248866319656372,0.5482721924781799,6.8359375,-2.01416015625,0.2899169921875
19.2899999,9.730035781860352,0.6200982332229614,0.5315127968788147,3.6773681640625,-1.251220703125,1.6632080078125
19.3099999,9.739612579345703,0.6057330369949341,0.49799394607543945,2.9296875,-1.6937255859375,1.15966796875
19.3299999,9.761159896850586,0.569819986820221,0.4596867263317108,5.3253173828125,-0.6256103515625,1.678466796875
19.3499999,9.785101890563965,0.5482721924781799,0.45250412821769714,3.387451171875,0.244140625,0.6256103515625
19.3699999,9.81143856048584,0.5195417404174805,0.44532153010368347,6.3629150390625,-0.8087158203125,-0.8392333984375
19.3899999,9.830592155456543,0.5123591423034668,0.45010992884635925,7.0037841796875,-2.50244140625,0.1373291015625
19.409999900000003,9.840168952941895,0.5099649429321289,0.45010992884635925,3.2958984375,-1.3427734375,0.335693359375
19.429999900000002,9.847352027893066,0.5171475410461426,0.4381389021873474,2.7923583984375,0.1373291015625,-0.0152587890625
19.4499999,9.840168952941895,0.5386953949928284,0.43335050344467163,2.777099609375,0.1983642578125,-0.9307861328125
19.4699999,9.837775230407715,0.5506663918495178,0.4381389021873474,2.349853515625,-1.007080078125,-0.9613037109375
19.4899999,9.821015357971191,0.5650315880775452,0.45010992884635925,0.9918212890625,-1.556396484375,-0.06103515625
19.5099999,9.799467086791992,0.5722141861915588,0.4596867263317108,0.9765625,-1.1749267578125,0.152587890625
19.5299999,9.773131370544434,0.5722141861915588,0.4620809257030487,0.457763671875,-0.8392333984375,0.5035400390625
19.5499999,9.744400978088379,0.569819986820221,0.4668693244457245,-0.9002685546875,-0.30517578125,0.6866455078125
19.5699999,9.730035781860352,0.569819986820221,0.4812345504760742,0.0457763671875,-0.335693359375,0.4425048828125
19.589999900000002,9.720458984375,0.5770025849342346,0.5003881454467773,2.960205078125,0.42724609375,0.4119873046875
19.609999900000002,9.737217903137207,0.5722141861915588,0.5363011956214905,3.7841796875,0.5950927734375,1.007080078125
19.6299999,9.761159896850586,0.5626373887062073,0.5530605912208557,3.509521484375,-0.3204345703125,0.91552734375
19.6499999,9.787496566772461,0.5482721924781799,0.545877993106842,2.410888671875,-1.77001953125,0.06103515625
19.6699999,9.804255485534668,0.5315127968788147,0.5267243981361389,0.396728515625,-1.77001953125,0.5035400390625
19.6899999,9.806650161743164,0.5171475410461426,0.48602294921875,2.01416015625,-0.732421875,0.4730224609375
19.7099999,9.797073364257812,0.5147533416748047,0.45489832758903503,2.532958984375,-0.91552734375,-0.1373291015625
19.7299999,9.799467086791992,0.5003881454467773,0.43095630407333374,2.8076171875,-1.220703125,-0.1373291015625
19.749999900000002,9.797073364257812,0.49559974670410156,0.4189853072166443,3.753662109375,-0.67138671875,-0.79345703125
19.769999900000002,9.797073364257812,0.5003881454467773,0.4118026793003082,3.7994384765625,-0.579833984375,-1.15966796875
19.7899999,9.787496566772461,0.5123591423034668,0.40222588181495667,4.08935546875,0.0152587890625,-0.640869140625
19.8099999,9.765948295593262,0.5291185975074768,0.395043283700943,3.692626953125,0.7781982421875,0
19.8299999,9.749189376831055,0.545877993106842,0.38307225704193115,3.8604736328125,1.4801025390625,-0.4425048828125
19.8499999,9.742006301879883,0.5578489899635315,0.3663128614425659,5.9661865234375,3.448486328125,-2.105712890625
19.8699999,9.737217903137207,0.5530605912208557,0.3519476354122162,7.2479248046875,3.90625,-2.410888671875
19.8899999,9.749189376831055,0.5530605912208557,0.35673606395721436,5.0506591796875,3.72314453125,-1.46484375
19.909999900000003,9.761159896850586,0.5434837937355042,0.35913026332855225,7.1258544921875,5.3558349609375,-2.9449462890625
19.929999900000002,9.785101890563965,0.5410895943641663,0.40462008118629456,8.148193359375,6.7138671875,-4.4403076171875
19.9499999,9.821015357971191,0.5482721924781799,0.47405192255973816,9.2315673828125,8.209228515625,-5.79833984375
19.9699999,9.859322547912598,0.5722141861915588,0.5602431893348694,11.2457275390625,7.7972412109375,-6.195068359375
19.9899999,9.892841339111328,0.5985504388809204,0.6703764796257019,8.331298828125,5.1727294921875,-3.7689208984375
20.0099999,9.904812812805176,0.629675030708313,0.7637503147125244,6.683349609375,2.4261474609375,-3.082275390625
20.0299999,9.880870819091797,0.6631938815116882,0.8451532125473022,5.06591796875,0.1373291015625,-3.23486328125
20.0499999,9.835380554199219,0.689530074596405,0.8786720037460327,6.3018798828125,-1.0986328125,-1.4801025390625
20.0699999,9.763554573059082,0.7134721279144287,0.8738836050033569,6.6070556640625,-0.30517578125,-1.190185546875
20.089999900000002,9.6989107131958,0.7230489253997803,0.8259995579719543,5.18798828125,0.1068115234375,-0.7781982421875
20.109999900000002,9.648633003234863,0.7206547260284424,0.7613561153411865,3.8299560546875,0.0457763671875,0.06103515625
20.1299999,9.622296333312988,0.7086837291717529,0.6991068720817566,4.3792724609375,2.01416015625,0.091552734375
20.1499999,9.627084732055664,0.6751648783683777,0.6560112833976746,6.011962890625,2.8533935546875,0.152587890625
20.1699999,9.658209800720215,0.6536170840263367,0.6320692300796509,4.486083984375,1.6937255859375,-0.1983642578125
20.1899999,9.706093788146973,0.6272808313369751,0.6272808313369751,3.47900390625,2.01416015625,-0.885009765625
20.2099999,9.758766174316406,0.6224924325942993,0.629675030708313,4.0130615234375,2.7313232421875,-0.9002685546875
20.2299999,9.80904483795166,0.6488286852836609,0.6416460275650024,3.6468505859375,2.0599365234375,1.0986328125
20.249999900000002,9.854534149169922,0.667982280254364,0.6440402865409851,4.5013427734375,1.7242431640625,2.227783203125
20.269999900000002,9.888052940368652,0.7038952708244324,0.646434485912323,3.4027099609375,0.579833984375,0.5645751953125
20.2899999,9.914389610290527,0.7326257228851318,0.6200982332229614,3.3721923828125,-1.0986328125,1.5411376953125
20.3099999,9.95748519897461,0.7972691655158997,0.5650315880775452,4.7454833984375,-3.1280517578125,5.8441162109375
20.3299999,10.014945983886719,0.9361328482627869,0.4620809257030487,10.7879638671875,-1.800537109375,11.2457275390625
