# Time (seconds),Accel_X,Accel_Y,Accel_Z,Gyro_X,Gyro_Y,Gyro_Z
0.0099999,0.08619125932455063,6.868964672088623,6.967126846313477,0.42724609375,-1.03759765625,-0.30517578125
0.029999900000000003,0.08858546614646912,6.866570472717285,6.967126846313477,-0.0762939453125,-1.1749267578125,-0.030517578125
0.0499999,0.08619125932455063,6.866570472717285,6.967126846313477,0,-1.190185546875,-0.1068115234375
0.0699999,0.08140286058187485,6.866570472717285,6.967126846313477,0.1220703125,-1.190185546875,-0.1678466796875
0.08999990000000001,0.08379705995321274,6.861782073974609,6.959944248199463,-0.1068115234375,-1.373291015625,0
0.10999990000000001,0.08619125932455063,6.861782073974609,6.957550048828125,0.274658203125,-1.0223388671875,-0.30517578125
0.1299999,0.08858546614646912,6.861782073974609,6.955155849456787,0.152587890625,-1.129150390625,-0.244140625
0.14999990000000002,0.08619125932455063,6.866570472717285,6.955155849456787,-0.0152587890625,-1.28173828125,-0.1220703125
0.1699999,0.08140286058187485,6.873753070831299,6.959944248199463,0.1983642578125,-1.2054443359375,-0.152587890625
0.1899999,0.07900865375995636,6.876147270202637,6.962338447570801,-0.0762939453125,-1.251220703125,-0.1068115234375
0.20999990000000002,0.07661445438861847,6.876147270202637,6.967126846313477,0.1220703125,-1.1749267578125,-0.152587890625
0.2299999,0.07661445438861847,6.873753070831299,6.9695210456848145,0.0762939453125,-1.2054443359375,-0.152587890625
0.2499999,0.07900865375995636,6.873753070831299,6.971915245056152,-0.0762939453125,-1.251220703125,-0.030517578125
0.2699999,0.07900865375995636,6.868964672088623,6.97430944442749,0.1373291015625,-1.1749267578125,-0.18310546875
0.28999990000000003,0.08379705995321274,6.864176273345947,6.971915245056152,-0.030517578125,-1.312255859375,-0.0762939453125
0.3099999,0.08858546614646912,6.861782073974609,6.9695210456848145,0.1983642578125,-1.220703125,-0.244140625
0.3299999,0.08858546614646912,6.864176273345947,6.964732646942139,0.1068115234375,-1.15966796875,-0.18310546875
0.34999990000000003,0.08619125932455063,6.868964672088623,6.962338447570801,-0.1373291015625,-1.2054443359375,0
0.3699999,0.08379705995321274,6.873753070831299,6.962338447570801,0.1220703125,-1.15966796875,-0.18310546875
0.3899999,0.08379705995321274,6.871358871459961,6.964732646942139,0.0152587890625,-1.220703125,-0.1373291015625
0.40999990000000003,0.08379705995321274,6.871358871459961,6.967126846313477,0.0762939453125,-1.190185546875,-0.2288818359375
0.4299999,0.08619125932455063,6.871358871459961,6.9695210456848145,0.091552734375,-1.1444091796875,-0.1678466796875
0.4499999,0.08619125932455063,6.861782073974609,6.976703643798828,0.030517578125,-1.1749267578125,-0.1220703125
0.4699999,0.08379705995321274,6.866570472717285,6.9695210456848145,3.143310546875,-1.0528564453125,-0.91552734375
0.4899999,0.08379705995321274,6.861782073974609,6.971915245056152,2.655029296875,-0.5645751953125,-0.9765625
0.5099999,0.08140286058187485,6.861782073974609,6.959944248199463,0.6866455078125,-1.5106201171875,-0.152587890625
0.5299999,0.07900865375995636,6.8809356689453125,6.957550048828125,0.5340576171875,-0.9307861328125,-0.5340576171875
0.5499999,0.07661445438861847,6.88332986831665,6.950367450714111,-0.6561279296875,-1.373291015625,0.1373291015625
0.5699999,0.07422025501728058,6.892906665802002,6.955155849456787,-0.6256103515625,-1.3885498046875,0.1068115234375
0.5899998999999999,0.07182604819536209,6.897695064544678,6.955155849456787,-0.4730224609375,-1.0223388671875,-0.1983642578125
0.6099998999999999,0.07661445438861847,6.892906665802002,6.952761650085449,-1.8310546875,-1.7547607421875,0.5340576171875
0.6299999,0.07900865375995636,6.888118267059326,6.959944248199463,-2.0599365234375,-1.251220703125,0.3662109375
0.6499999,0.08140286058187485,6.873753070831299,6.959944248199463,-0.8544921875,-1.2664794921875,0.0762939453125
0.6699999,0.08379705995321274,6.868964672088623,6.964732646942139,0.2899169921875,-1.129150390625,-0.213623046875
0.6899999,0.08379705995321274,6.856993675231934,6.9695210456848145,0.1068115234375,-1.0528564453125,-0.1678466796875
0.7099999,0.08619125932455063,6.856993675231934,6.971915245056152,-0.2288818359375,-1.3427734375,-0.030517578125
0.7299998999999999,0.08619125932455063,6.8593878746032715,6.97430944442749,0.1678466796875,-1.0986328125,-0.2593994140625
0.7499998999999999,0.08619125932455063,6.861782073974609,6.97430944442749,-0.1068115234375,-1.2664794921875,-0.06103515625
0.7699999,0.08379705995321274,6.864176273345947,6.97430944442749,0.0457763671875,-1.2664794921875,-0.091552734375
0.7899999,0.08140286058187485,6.864176273345947,6.97430944442749,0.1373291015625,-1.068115234375,-0.2288818359375
0.8099999,0.08140286058187485,6.861782073974609,6.971915245056152,-0.18310546875,-1.312255859375,-0.06103515625
0.8299999,0.07900865375995636,6.864176273345947,6.9695210456848145,0.1068115234375,-1.1444091796875,-0.152587890625
0.8499998999999999,0.08140286058187485,6.861782073974609,6.967126846313477,0.030517578125,-1.15966796875,-0.1983642578125
0.8699998999999999,0.08140286058187485,6.864176273345947,6.964732646942139,-0.0457763671875,-1.251220703125,-0.1220703125
0.8899999,0.08140286058187485,6.864176273345947,6.967126846313477,0.0762939453125,-1.2054443359375,-0.244140625
0.9099999,0.08140286058187485,6.864176273345947,6.967126846313477,-0.06103515625,-1.28173828125,-0.1373291015625
0.9299999,0.08140286058187485,6.866570472717285,6.9695210456848145,-0.0152587890625,-1.129150390625,-0.18310546875
0.9499999,0.07900865375995636,6.864176273345947,6.971915245056152,0.0152587890625,-1.2054443359375,-0.1068115234375
0.9699998999999999,0.08140286058187485,6.864176273345947,6.97430944442749,0.0457763671875,-1.312255859375,-0.091552734375
0.9899998999999999,0.08140286058187485,6.861782073974609,6.976703643798828,0.1220703125,-1.190185546875,-0.2593994140625
1.0099999,0.08140286058187485,6.861782073974609,6.97430944442749,0.0457763671875,-1.220703125,-0.213623046875
1.0299999,0.08379705995321274,6.864176273345947,6.97430944442749,0.06103515625,-1.1749267578125,-0.0762939453125
1.0499999,0.08379705995321274,6.866570472717285,6.971915245056152,0,-1.1749267578125,-0.18310546875
1.0699999,0.08379705995321274,6.871358871459961,6.97430944442749,-0.0457763671875,-1.2359619140625,-0.152587890625
1.0899999,0.08379705995321274,6.873753070831299,6.971915245056152,0.0762939453125,-1.15966796875,-0.152587890625
1.1099999,0.08619125932455063,6.873753070831299,6.97430944442749,0.0457763671875,-1.15966796875,-0.1068115234375
1.1299999,0.08619125932455063,6.876147270202637,6.971915245056152,0,-1.2359619140625,-0.1220703125
1.1499999,0.08619125932455063,6.873753070831299,6.9695210456848145,0.152587890625,-1.1138916015625,-0.18310546875
1.1699998999999999,0.08619125932455063,6.871358871459961,6.964732646942139,0.06103515625,-1.1138916015625,-0.152587890625
1.1899998999999999,0.08619125932455063,6.866570472717285,6.964732646942139,-0.0152587890625,-1.1444091796875,-0.1373291015625
1.2099999,0.08619125932455063,6.861782073974609,6.962338447570801,0.0152587890625,-1.1444091796875,-0.1220703125
1.2299999,0.08858546614646912,6.8593878746032715,6.964732646942139,-0.0152587890625,-1.220703125,-0.0762939453125
1.2499999,0.08858546614646912,6.8593878746032715,6.9695210456848145,0.152587890625,-1.0986328125,-0.18310546875
1.2699999,0.08619125932455063,6.861782073974609,6.967126846313477,-0.0762939453125,-1.2664794921875,-0.1220703125
1.2899999,0.08619125932455063,6.864176273345947,6.971915245056152,-0.06103515625,-1.15966796875,-0.091552734375
1.3099999,0.08379705995321274,6.868964672088623,6.97430944442749,0.2899169921875,-1.0833740234375,-0.244140625
1.3299999,0.08619125932455063,6.866570472717285,6.971915245056152,-0.2288818359375,-1.3580322265625,-0.0152587890625
1.3499999,0.08858546614646912,6.866570472717285,6.97430944442749,0.18310546875,-1.068115234375,-0.18310546875
1.3699999,0.08619125932455063,6.866570472717285,6.971915245056152,0.2899169921875,-1.0223388671875,-0.244140625
1.3899999,0.08619125932455063,6.868964672088623,6.971915245056152,-0.3509521484375,-1.373291015625,0.0457763671875
1.4099999,0.08379705995321274,6.878541469573975,6.971915245056152,0.1983642578125,-1.03759765625,-0.2288818359375
1.4299998999999999,0.08619125932455063,6.876147270202637,6.971915245056152,-0.06103515625,-1.220703125,-0.06103515625
1.4499999,0.08379705995321274,6.876147270202637,6.971915245056152,-0.1678466796875,-1.28173828125,-0.1068115234375
1.4699999,0.08379705995321274,6.873753070831299,6.971915245056152,0.3662109375,-0.9613037109375,-0.3509521484375
1.4899999,0.08140286058187485,6.868964672088623,6.971915245056152,-0.335693359375,-1.373291015625,-0.0152587890625
1.5099999,0.08379705995321274,6.868964672088623,6.97430944442749,0.0152587890625,-1.2054443359375,-0.1068115234375
1.5299999,0.08379705995321274,6.864176273345947,6.971915245056152,0.1983642578125,-1.0986328125,-0.1983642578125
1.5499999,0.08858546614646912,6.8593878746032715,6.9695210456848145,-0.2288818359375,-1.312255859375,-0.0457763671875
1.5699999,0.08619125932455063,6.861782073974609,6.9695210456848145,0.3662109375,-0.9918212890625,-0.3662109375
1.5899999,0.08379705995321274,6.861782073974609,6.967126846313477,-0.0457763671875,-1.2359619140625,-0.0457763671875
1.6099999,0.08379705995321274,6.868964672088623,6.967126846313477,-0.244140625,-1.3427734375,0.0152587890625
1.6299999,0.08140286058187485,6.871358871459961,6.967126846313477,0.30517578125,-1.03759765625,-0.335693359375
1.6499999,0.08140286058187485,6.871358871459961,6.9695210456848145,-0.091552734375,-1.2664794921875,-0.0762939453125
1.6699999,0.08140286058187485,6.873753070831299,6.971915245056152,0.0457763671875,-1.15966796875,-0.152587890625
1.6899998999999999,0.07900865375995636,6.868964672088623,6.971915245056152,-0.1373291015625,-1.3580322265625,-0.06103515625
1.7099999,0.08140286058187485,6.866570472717285,6.97430944442749,0,-1.2054443359375,-0.1373291015625
1.7299999,0.08379705995321274,6.861782073974609,6.971915245056152,0.3509521484375,-1.0528564453125,-0.2593994140625
1.7499999,0.08619125932455063,6.8593878746032715,6.971915245056152,-0.30517578125,-1.2969970703125,0.06103515625
1.7699999,0.08379705995321274,6.866570472717285,6.971915245056152,0.1220703125,-1.1138916015625,-0.152587890625
1.7899999,0.08379705995321274,6.868964672088623,6.97430944442749,0.030517578125,-1.2054443359375,-0.1220703125
1.8099999,0.08379705995321274,6.871358871459961,6.971915245056152,-0.0457763671875,-1.190185546875,-0.1373291015625
1.8299999,0.08379705995321274,6.871358871459961,6.971915245056152,0.030517578125,-1.251220703125,-0.18310546875
1.8499999,0.08858546614646912,6.866570472717285,6.9695210456848145,-0.06103515625,-1.190185546875,-0.091552734375
1.8699999,0.08858546614646912,6.866570472717285,6.9695210456848145,0.18310546875,-1.0833740234375,-0.3509521484375
1.8899999,0.08619125932455063,6.861782073974609,6.967126846313477,-0.18310546875,-1.3275146484375,-0.1068115234375
1.9099999,0.08619125932455063,6.8593878746032715,6.967126846313477,-0.0457763671875,-1.251220703125,-0.06103515625
1.9299998999999999,0.08619125932455063,6.854599475860596,6.967126846313477,0.213623046875,-1.1138916015625,-0.2593994140625
1.9499999,0.08619125932455063,6.84981107711792,6.967126846313477,0.0152587890625,-1.15966796875,-0.091552734375
1.9699999,0.08140286058187485,6.852205276489258,6.967126846313477,0.1373291015625,-1.190185546875,-0.152587890625
1.9899999,0.07900865375995636,6.854599475860596,6.967126846313477,-0.1068115234375,-1.220703125,-0.152587890625
2.0099999,0.07661445438861847,6.856993675231934,6.967126846313477,0.0152587890625,-1.190185546875,-0.1678466796875
2.0299999,0.07661445438861847,6.8593878746032715,6.9695210456848145,0.1983642578125,-1.2054443359375,-0.213623046875
2.0499999,0.07900865375995636,6.861782073974609,6.9695210456848145,0.030517578125,-1.2359619140625,-0.1678466796875
2.0699999,0.07900865375995636,6.866570472717285,6.971915245056152,0.0762939453125,-1.15966796875,-0.18310546875
2.0899999,0.08140286058187485,6.868964672088623,6.97430944442749,0.0457763671875,-1.2359619140625,-0.18310546875
2.1099999,0.08379705995321274,6.873753070831299,6.97430944442749,0.1220703125,-1.1444091796875,-0.2288818359375
2.1299999,0.08619125932455063,6.878541469573975,6.971915245056152,0.0762939453125,-1.1749267578125,-0.1678466796875
2.1499999,0.08379705995321274,6.878541469573975,6.971915245056152,-0.1678466796875,-1.28173828125,-0.0762939453125
2.1699999,0.08140286058187485,6.878541469573975,6.971915245056152,0.0152587890625,-1.2054443359375,-0.1983642578125
2.1899999,0.07661445438861847,6.873753070831299,6.976703643798828,0.091552734375,-1.068115234375,-0.1678466796875
2.2099999,0.07661445438861847,6.866570472717285,6.976703643798828,-0.1678466796875,-1.28173828125,0
2.2299999,0.08140286058187485,6.864176273345947,6.976703643798828,-0.0152587890625,-1.190185546875,-0.0762939453125
2.2499999,0.08619125932455063,6.856993675231934,6.976703643798828,0.1068115234375,-1.0833740234375,-0.152587890625
2.2699999,0.08619125932455063,6.84981107711792,6.971915245056152,-0.0762939453125,-1.2359619140625,-0.091552734375
2.2899999,0.08858546614646912,6.84981107711792,6.971915245056152,-0.091552734375,-1.2664794921875,-0.1068115234375
2.3099999,0.08858546614646912,6.852205276489258,6.97430944442749,0.274658203125,-1.068115234375,-0.274658203125
2.3299999,0.08379705995321274,6.856993675231934,6.967126846313477,0.0762939453125,-1.190185546875,-0.152587890625
2.3499999,0.08140286058187485,6.861782073974609,6.967126846313477,-0.1220703125,-1.28173828125,0
2.3699999,0.07900865375995636,6.866570472717285,6.967126846313477,0.274658203125,-1.068115234375,-0.274658203125
2.3899999,0.07661445438861847,6.864176273345947,6.967126846313477,-0.1373291015625,-1.373291015625,-0.152587890625
2.4099999,0.07422025501728058,6.864176273345947,6.97430944442749,-0.030517578125,-1.15966796875,-0.0762939453125
2.4299999,0.07661445438861847,6.8593878746032715,6.976703643798828,0.18310546875,-1.1138916015625,-0.1678466796875
2.4499999,0.07900865375995636,6.856993675231934,6.979097843170166,-0.030517578125,-1.251220703125,-0.0762939453125
2.4699999,0.07900865375995636,6.854599475860596,6.976703643798828,0.274658203125,-1.0833740234375,-0.2899169921875
2.4899999,0.07900865375995636,6.854599475860596,6.976703643798828,-0.0152587890625,-1.2664794921875,-0.091552734375
2.5099999,0.07422025501728058,6.854599475860596,6.976703643798828,0.1068115234375,-1.129150390625,-0.18310546875
2.5299999,0.07182604819536209,6.8593878746032715,6.97430944442749,0.2899169921875,-1.1444091796875,-0.335693359375
2.5499999,0.07422025501728058,6.861782073974609,6.971915245056152,-0.06103515625,-1.312255859375,-0.1068115234375
2.5699999,0.07661445438861847,6.864176273345947,6.9695210456848145,0.091552734375,-1.2054443359375,-0.1373291015625
2.5899999,0.08379705995321274,6.864176273345947,6.967126846313477,0.274658203125,-1.0528564453125,-0.1983642578125
2.6099999,0.08379705995321274,6.866570472717285,6.967126846313477,0.091552734375,-1.15966796875,-0.2899169921875
2.6299999,0.08379705995321274,6.866570472717285,6.9695210456848145,-0.0762939453125,-1.3275146484375,-0.0457763671875
2.6499999,0.08379705995321274,6.866570472717285,6.971915245056152,0.1068115234375,-1.15966796875,-0.213623046875
2.6699999,0.08379705995321274,6.866570472717285,6.97430944442749,0.1373291015625,-1.129150390625,-0.213623046875
2.6899999,0.08140286058187485,6.866570472717285,6.97430944442749,0.0457763671875,-1.251220703125,-0.091552734375
2.7099999,0.07900865375995636,6.866570472717285,6.976703643798828,0.0152587890625,-1.2359619140625,-0.1373291015625
2.7299999,0.07661445438861847,6.864176273345947,6.981492042541504,-0.0152587890625,-1.1444091796875,-0.152587890625
2.7499999,0.07422025501728058,6.866570472717285,6.983886241912842,0.213623046875,-1.0833740234375,-0.2899169921875
2.7699999,0.07661445438861847,6.864176273345947,6.983886241912842,-0.1220703125,-1.190185546875,-0.091552734375
2.7899999,0.08140286058187485,6.861782073974609,6.983886241912842,-0.1068115234375,-1.2664794921875,-0.1220703125
2.8099999,0.08619125932455063,6.861782073974609,6.981492042541504,0.2899169921875,-1.068115234375,-0.274658203125
2.8299999,0.08379705995321274,6.866570472717285,6.979097843170166,0.1068115234375,-1.190185546875,-0.1068115234375
2.8499999,0.08379705995321274,6.868964672088623,6.979097843170166,-0.1068115234375,-1.251220703125,-0.0152587890625
2.8699999,0.08140286058187485,6.868964672088623,6.976703643798828,0,-1.251220703125,-0.18310546875
2.8899999,0.08140286058187485,6.868964672088623,6.976703643798828,0.18310546875,-1.1444091796875,-0.244140625
2.9099999,0.07900865375995636,6.871358871459961,6.97430944442749,0.1068115234375,-1.129150390625,-0.18310546875
2.9299999,0.07900865375995636,6.873753070831299,6.97430944442749,-0.1983642578125,-1.373291015625,0.030517578125
2.9499999,0.07900865375995636,6.873753070831299,6.9695210456848145,-0.0457763671875,-1.2664794921875,-0.1068115234375
2.9699999,0.08140286058187485,6.873753070831299,6.971915245056152,0.18310546875,-1.0986328125,-0.30517578125
2.9899999,0.08140286058187485,6.871358871459961,6.971915245056152,0.091552734375,-1.220703125,-0.2288818359375
3.0099999,0.08140286058187485,6.871358871459961,6.97430944442749,-0.18310546875,-1.3275146484375,-0.030517578125
3.0299999,0.07900865375995636,6.871358871459961,6.979097843170166,0.1220703125,-1.1138916015625,-0.1983642578125
3.0499999,0.07900865375995636,6.871358871459961,6.981492042541504,0.1678466796875,-1.15966796875,-0.1678466796875
3.0699999,0.07900865375995636,6.866570472717285,6.979097843170166,-0.152587890625,-1.3275146484375,-0.0152587890625
3.0899999,0.08140286058187485,6.866570472717285,6.976703643798828,0.06103515625,-1.220703125,-0.1373291015625
3.1099999,0.08140286058187485,6.866570472717285,6.971915245056152,0.1678466796875,-1.1749267578125,-0.1678466796875
3.1299999,0.08140286058187485,6.866570472717285,6.967126846313477,-0.0152587890625,-1.251220703125,-0.1373291015625
3.1499999,0.08140286058187485,6.868964672088623,6.967126846313477,-0.152587890625,-1.28173828125,-0.0762939453125
3.1699999,0.08140286058187485,6.866570472717285,6.967126846313477,0.030517578125,-1.28173828125,-0.1373291015625
3.1899999,0.08140286058187485,6.861782073974609,6.967126846313477,0.1373291015625,-1.1444091796875,-0.213623046875
3.2099999,0.08140286058187485,6.864176273345947,6.967126846313477,0.152587890625,-1.068115234375,-0.1983642578125
3.2299999,0.07900865375995636,6.8593878746032715,6.967126846313477,-0.1373291015625,-1.28173828125,0.0457763671875
3.2499999,0.08140286058187485,6.8593878746032715,6.967126846313477,0.091552734375,-1.15966796875,-0.1678466796875
3.2699999,0.08140286058187485,6.856993675231934,6.967126846313477,0.1983642578125,-1.129150390625,-0.2288818359375
3.2899999,0.08379705995321274,6.856993675231934,6.964732646942139,-0.152587890625,-1.2664794921875,-0.030517578125
3.3099999,0.08379705995321274,6.864176273345947,6.967126846313477,0.213623046875,-1.03759765625,-0.3509521484375
3.3299999000000002,0.08379705995321274,6.861782073974609,6.964732646942139,0,-1.220703125,-0.1373291015625
3.3499999,0.08379705995321274,6.864176273345947,6.967126846313477,-0.1068115234375,-1.3275146484375,-0.0457763671875
3.3699999,0.08379705995321274,6.866570472717285,6.967126846313477,0.42724609375,-1.03759765625,-0.42724609375
3.3899999,0.08140286058187485,6.8593878746032715,6.962338447570801,-0.213623046875,-1.2664794921875,-0.0457763671875
3.4099999,0.07900865375995636,6.864176273345947,6.967126846313477,-0.0457763671875,-1.2664794921875,-0.18310546875
3.4299999,0.07422025501728058,6.8593878746032715,6.9695210456848145,0.42724609375,-1.007080078125,-0.42724609375
3.4499999,0.07422025501728058,6.854599475860596,6.967126846313477,-0.5035400390625,-1.5411376953125,0.1373291015625
3.4699999,0.07661445438861847,6.864176273345947,6.97430944442749,0.457763671875,-0.9002685546875,-0.48828125
3.4899999,0.07661445438861847,6.864176273345947,6.971915245056152,0.213623046875,-1.1138916015625,-0.18310546875
3.5099999,0.07900865375995636,6.864176273345947,6.9695210456848145,-0.67138671875,-1.6632080078125,0.2593994140625
3.5299999,0.08140286058187485,6.866570472717285,6.97430944442749,0.79345703125,-0.823974609375,-0.5340576171875
3.5499999,0.08619125932455063,6.856993675231934,6.971915245056152,-0.091552734375,-1.3275146484375,-0.0457763671875
3.5699999,0.08619125932455063,6.861782073974609,6.971915245056152,-0.091552734375,-1.373291015625,-0.06103515625
3.5899999,0.08619125932455063,6.861782073974609,6.97430944442749,0.30517578125,-1.007080078125,-0.244140625
3.6099999,0.08379705995321274,6.861782073974609,6.971915245056152,-0.335693359375,-1.373291015625,0.030517578125
3.6299999,0.08140286058187485,6.861782073974609,6.971915245056152,0.30517578125,-1.1749267578125,-0.3662109375
3.6499999,0.07900865375995636,6.856993675231934,6.97430944442749,-0.0152587890625,-1.312255859375,-0.1220703125
3.6699999,0.07900865375995636,6.861782073974609,6.97430944442749,0.091552734375,-1.2969970703125,-0.1220703125
3.6899999,0.07900865375995636,6.868964672088623,6.976703643798828,0.213623046875,-1.129150390625,-0.2288818359375
3.7099999,0.08140286058187485,6.873753070831299,6.971915245056152,-0.396728515625,-1.3580322265625,0.06103515625
3.7299999,0.08140286058187485,6.876147270202637,6.971915245056152,0.1373291015625,-1.0833740234375,-0.2899169921875
3.7499999,0.08140286058187485,6.871358871459961,6.971915245056152,0.1068115234375,-1.0986328125,-0.2593994140625
3.7699999,0.07900865375995636,6.868964672088623,6.971915245056152,-0.1068115234375,-1.3427734375,-0.030517578125
3.7899999,0.07661445438861847,6.871358871459961,6.97430944442749,0.2593994140625,-1.2054443359375,-0.2288818359375
3.8099999,0.07900865375995636,6.866570472717285,6.97430944442749,-0.1068115234375,-1.2664794921875,0
3.8299999000000002,0.08140286058187485,6.864176273345947,6.97430944442749,-0.0152587890625,-1.2054443359375,-0.1678466796875
3.8499999,0.08140286058187485,6.861782073974609,6.971915245056152,0.213623046875,-1.0833740234375,-0.2899169921875
3.8699999,0.08140286058187485,6.8593878746032715,6.971915245056152,-0.06103515625,-1.373291015625,-0.0457763671875
3.8899999,0.08379705995321274,6.861782073974609,6.971915245056152,0.1220703125,-1.2054443359375,-0.18310546875
3.9099999,0.08379705995321274,6.861782073974609,6.97430944442749,0,-1.1749267578125,-0.152587890625
3.9299999,0.08619125932455063,6.861782073974609,6.97430944442749,-0.06103515625,-1.2664794921875,-0.1220703125
3.9499999,0.08619125932455063,6.8593878746032715,6.976703643798828,0.2288818359375,-1.1138916015625,-0.2593994140625
3.9699999,0.08379705995321274,6.854599475860596,6.97430944442749,-0.0152587890625,-1.312255859375,-0.0762939453125
3.9899999,0.08379705995321274,6.856993675231934,6.971915245056152,0.0457763671875,-1.2359619140625,-0.18310546875
4.0099999,0.08140286058187485,6.8593878746032715,6.9695210456848145,0.06103515625,-1.1444091796875,-0.244140625
4.029999900000001,0.08379705995321274,6.861782073974609,6.964732646942139,-0.1373291015625,-1.28173828125,-0.06103515625
4.0499999,0.08379705995321274,6.861782073974609,6.9695210456848145,0.1220703125,-1.0833740234375,-0.18310546875
4.069999900000001,0.08140286058187485,6.864176273345947,6.9695210456848145,0.1373291015625,-1.220703125,-0.2288818359375
4.0899999000000005,0.07900865375995636,6.864176273345947,6.971915245056152,-0.0457763671875,-1.312255859375,-0.0762939453125
4.1099999,0.07900865375995636,6.864176273345947,6.97430944442749,0.030517578125,-1.1444091796875,-0.152587890625
4.1299999000000005,0.08140286058187485,6.864176273345947,6.971915245056152,0.0457763671875,-1.2969970703125,-0.152587890625
4.1499999,0.08140286058187485,6.861782073974609,6.971915245056152,0.0762939453125,-1.2969970703125,-0.1373291015625
4.1699999000000005,0.07900865375995636,6.861782073974609,6.9695210456848145,0.1220703125,-1.190185546875,-0.152587890625
4.1899999,0.07661445438861847,6.864176273345947,6.9695210456848145,0.1373291015625,-1.2969970703125,-0.1678466796875
4.209999900000001,0.07422025501728058,6.868964672088623,6.967126846313477,0.0152587890625,-1.190185546875,-0.1220703125
4.2299999,0.07661445438861847,6.871358871459961,6.967126846313477,-0.030517578125,-1.1749267578125,-0.091552734375
4.249999900000001,0.07900865375995636,6.873753070831299,6.967126846313477,0.1220703125,-1.1444091796875,-0.2288818359375
4.2699999,0.07900865375995636,6.871358871459961,6.9695210456848145,0.152587890625,-1.15966796875,-0.2593994140625
4.289999900000001,0.07900865375995636,6.871358871459961,6.9695210456848145,0.0152587890625,-1.28173828125,-0.1678466796875
4.3099999,0.07900865375995636,6.868964672088623,6.971915245056152,-0.0152587890625,-1.190185546875,-0.091552734375
4.329999900000001,0.08140286058187485,6.866570472717285,6.971915245056152,0.1068115234375,-1.129150390625,-0.244140625
4.3499999,0.08140286058187485,6.866570472717285,6.971915245056152,0.06103515625,-1.1444091796875,-0.1678466796875
4.369999900000001,0.08140286058187485,6.864176273345947,6.9695210456848145,0,-1.2359619140625,0
4.3899999,0.08140286058187485,6.866570472717285,6.9695210456848145,0.06103515625,-1.2664794921875,-0.1220703125
4.409999900000001,0.07900865375995636,6.866570472717285,6.9695210456848145,0.0762939453125,-1.0986328125,-0.213623046875
4.4299999,0.08140286058187485,6.866570472717285,6.9695210456848145,0.0152587890625,-1.190185546875,-0.213623046875
4.449999900000001,0.08140286058187485,6.864176273345947,6.971915245056152,-0.0152587890625,-1.2359619140625,-0.06103515625
4.4699999,0.08140286058187485,6.861782073974609,6.97430944442749,0.091552734375,-1.190185546875,-0.1678466796875
4.489999900000001,0.08140286058187485,6.8593878746032715,6.97430944442749,0.06103515625,-1.03759765625,-0.2593994140625
4.5099999,0.08140286058187485,6.8593878746032715,6.976703643798828,0,-1.190185546875,-0.18310546875
4.529999900000001,0.08140286058187485,6.8593878746032715,6.97430944442749,-0.1220703125,-1.190185546875,-0.1678466796875
4.5499999,0.08140286058187485,6.8593878746032715,6.971915245056152,0.030517578125,-1.1749267578125,-0.244140625
4.569999900000001,0.08140286058187485,6.861782073974609,6.9695210456848145,0.1220703125,-1.15966796875,-0.213623046875
4.5899999000000005,0.08140286058187485,6.866570472717285,6.9695210456848145,0,-1.28173828125,-0.091552734375
4.609999900000001,0.08379705995321274,6.868964672088623,6.9695210456848145,0.0457763671875,-1.2054443359375,-0.091552734375
4.6299999000000005,0.08379705995321274,6.871358871459961,6.971915245056152,0.091552734375,-1.0986328125,-0.213623046875
4.6499999,0.08858546614646912,6.873753070831299,6.971915245056152,0.06103515625,-1.15966796875,-0.213623046875
4.6699999000000005,0.08858546614646912,6.873753070831299,6.971915245056152,-0.030517578125,-1.15966796875,-0.1373291015625
4.6899999,0.08858546614646912,6.871358871459961,6.971915245056152,0.030517578125,-1.1444091796875,-0.1373291015625
4.709999900000001,0.08858546614646912,6.866570472717285,6.971915245056152,0.0762939453125,-1.2054443359375,-0.2288818359375
4.7299999,0.08858546614646912,6.864176273345947,6.971915245056152,0.030517578125,-1.2359619140625,-0.06103515625
4.749999900000001,0.08619125932455063,6.864176273345947,6.9695210456848145,0.0152587890625,-1.190185546875,-0.1983642578125
4.7699999,0.08140286058187485,6.864176273345947,6.97430944442749,0.06103515625,-1.190185546875,-0.213623046875
4.789999900000001,0.07661445438861847,6.864176273345947,6.97430944442749,-0.0152587890625,-1.251220703125,-0.1220703125
4.8099999,0.07661445438861847,6.864176273345947,6.976703643798828,0.0152587890625,-1.2054443359375,-0.1068115234375
4.829999900000001,0.07661445438861847,6.861782073974609,6.97430944442749,0.0762939453125,-1.1749267578125,-0.1373291015625
4.8499999,0.08140286058187485,6.864176273345947,6.97430944442749,0.0762939453125,-1.190185546875,-0.18310546875
4.869999900000001,0.08379705995321274,6.864176273345947,6.97430944442749,0.06103515625,-1.15966796875,-0.213623046875
4.8899999,0.08858546614646912,6.861782073974609,6.97430944442749,-0.152587890625,-1.251220703125,-0.1373291015625
4.909999900000001,0.08858546614646912,6.861782073974609,6.971915245056152,-0.0457763671875,-1.220703125,-0.18310546875
4.9299999,0.08619125932455063,6.861782073974609,6.97430944442749,0.152587890625,-1.1444091796875,-0.213623046875
4.949999900000001,0.08379705995321274,6.861782073974609,6.971915245056152,0.030517578125,-1.220703125,-0.152587890625
4.9699999,0.08140286058187485,6.864176273345947,6.9695210456848145,-0.0457763671875,-1.220703125,-0.06103515625
4.989999900000001,0.07661445438861847,6.866570472717285,6.9695210456848145,0.0152587890625,-1.251220703125,-0.1373291015625
5.0099999,0.07661445438861847,6.868964672088623,6.967126846313477,0.091552734375,-1.2359619140625,-0.1983642578125
5.029999900000001,0.07900865375995636,6.871358871459961,6.967126846313477,0.1068115234375,-1.220703125,-0.18310546875
5.0499999,0.07900865375995636,6.864176273345947,6.97430944442749,0.6866455078125,-0.9002685546875,0.0457763671875
5.069999900000001,0.08140286058187485,6.871358871459961,6.971915245056152,0.1220703125,-1.2054443359375,-0.4425048828125
5.0899999000000005,0.08140286058187485,6.861782073974609,6.971915245056152,-0.5645751953125,-1.556396484375,0.0762939453125
5.109999900000001,0.08140286058187485,6.876147270202637,6.9695210456848145,0.732421875,-0.8087158203125,-0.4425048828125
5.1299999000000005,0.08379705995321274,6.856993675231934,6.971915245056152,3.6163330078125,0.1678466796875,0.9002685546875
5.1499999,0.08140286058187485,6.873753070831299,6.959944248199463,4.1961669921875,0.457763671875,-0.213623046875
5.1699999000000005,0.08140286058187485,6.852205276489258,6.959944248199463,2.0751953125,0.1983642578125,-0.30517578125
5.1899999,0.07900865375995636,6.856993675231934,6.955155849456787,1.556396484375,-0.42724609375,-1.7547607421875
5.209999900000001,0.07422025501728058,6.861782073974609,6.936002254486084,0.396728515625,-1.28173828125,-1.190185546875
5.2299999,0.0694318488240242,6.8809356689453125,6.950367450714111,-1.800537109375,-1.4801025390625,-0.1983642578125
5.249999900000001,0.06464344263076782,6.876147270202637,6.938396453857422,-2.838134765625,-2.777099609375,0.8392333984375
5.2699999,0.05746084079146385,6.919242858886719,6.952761650085449,0.8544921875,-0.67138671875,-0.8697509765625
5.289999900000001,-0.06224924325942993,6.8043212890625,6.92881965637207,-4.82177734375,-3.2196044921875,1.2054443359375
5.3099999,-0.14844051003456116,6.823474884033203,7.096413612365723,2.532958984375,-6.072998046875,-10.8489990234375
5.329999900000001,-0.33279404044151306,6.878541469573975,7.151480674743652,2.5177001953125,-15.9759521484375,-17.9443359375
5.3499999,-0.10295066982507706,7.24485445022583,7.108384609222412,0.885009765625,-8.1024169921875,-19.6533203125
5.369999900000001,0.40940847992897034,8.17380428314209,7.438784599304199,36.1480712890625,52.8717041015625,-21.66748046875
5.3899999,0.6512228846549988,9.816226959228516,8.128314971923828,22.9034423828125,90.2862548828125,-26.06201171875
5.409999900000001,0.667982280254364,11.999738693237305,9.227252960205078,-0.3509521484375,29.4036865234375,18.8140869140625
5.4299999,-0.0454898327589035,13.97256088256836,10.448296546936035,-22.03369140625,-53.03955078125,110.65673828125
5.449999900000001,-1.015141487121582,15.334861755371094,10.977415084838867,-31.79931640625,-87.615966796875,154.5867919921875
5.4699999,-1.8363527059555054,15.504850387573242,10.462661743164062,-18.9971923828125,-93.353271484375,180.145263671875
5.489999900000001,-2.52109432220459,14.858415603637695,9.153033256530762,-10.3302001953125,-81.268310546875,210.906982421875
5.5099999,-3.2417490482330322,13.453019142150879,7.637503623962402,25.3143310546875,-35.6292724609375,255.279541015625
5.529999900000001,-3.7253777980804443,11.678915977478027,6.301538944244385,3.0975341796875,-29.1900634765625,282.2265625
5.5499999,-3.861847400665283,9.428366661071777,5.592854976654053,-0.457763671875,-38.5589599609375,282.745361328125
5.569999900000001,-3.292027235031128,6.845022678375244,5.274426460266113,-0.6103515625,-44.6624755859375,263.153076171875
5.5899999000000005,-2.1763293743133545,4.388571739196777,5.207388877868652,-5.889892578125,-49.5452880859375,227.0660400390625
5.609999900000001,-0.6488286852836609,2.2218191623687744,5.085284233093262,13.641357421875,-41.748046875,184.4635009765625
5.6299999000000005,0.9169792532920837,0.4908113479614258,4.886565685272217,43.731689453125,-28.5491943359375,162.200927734375
5.6499999,2.4899697303771973,-0.8259995579719543,5.628767967224121,77.7587890625,-6.4544677734375,121.9329833984375
5.6699999000000005,3.9647979736328125,-1.50355863571167,7.022193431854248,354.949951171875,-79.0863037109375,63.04931640625
5.6899999,5.123591423034668,-1.599326729774475,8.056488990783691,145.0347900390625,-228.759765625,31.768798828125
5.709999900000001,6.038176536560059,-1.0271124839782715,9.042900085449219,138.7481689453125,-203.2623291015625,13.24462890625
5.7299999,6.509834289550781,0.7230489253997803,7.268796443939209,177.9327392578125,-181.9915771484375,-4.5318603515625
5.749999900000001,7.007828235626221,2.612074136734009,5.125985622406006,-9.2010498046875,-106.3385009765625,44.61669921875
5.7699999,7.316680431365967,4.771644115447998,3.155557870864868,85.8306884765625,-32.4249267578125,85.418701171875
5.789999900000001,7.51779317855835,6.550535678863525,2.078166961669922,26.397705078125,-103.302001953125,99.9755859375
5.8099999,7.642292022705078,7.182605266571045,2.013523578643799,27.7099609375,-148.5595703125,114.654541015625
5.829999900000001,7.6566572189331055,6.777985095977783,2.205059766769409,9.613037109375,-128.7384033203125,112.48779296875
5.8499999,7.524975776672363,5.631162166595459,1.5155296325683594,33.4014892578125,-95.5047607421875,48.6602783203125
5.869999900000001,7.194576263427734,5.410895824432373,1.3646949529647827,66.8487548828125,-70.0531005859375,5.4931640625
5.8899999,6.794744491577148,4.869806289672852,0.272938996553421,62.6373291015625,-98.388671875,84.5794677734375
5.909999900000001,6.325480937957764,5.676652431488037,-0.33039984107017517,28.3050537109375,-82.8399658203125,120.513916015625
5.9299999,6.1052141189575195,5.894524574279785,-1.3096283674240112,72.2503662109375,-12.969970703125,123.992919921875
5.949999900000001,6.107608318328857,5.6910176277160645,-2.229001760482788,89.0960693359375,42.9229736328125,128.509521484375
5.9699999,6.390124320983887,5.17626428604126,-2.7940332889556885,116.5771484375,100.982666015625,127.2125244140625
5.989999900000001,6.782773494720459,4.434061527252197,-2.9281086921691895,121.9482421875,105.072021484375,107.5592041015625
6.0099999,7.168240070343018,3.706224203109741,-2.7676970958709717,89.263916015625,55.0537109375,83.6639404296875
6.029999900000001,7.568071365356445,2.9664158821105957,-2.3295583724975586,39.7491455078125,61.187744140625,85.2203369140625
6.0499999,7.953537940979004,1.889025092124939,-1.4939818382263184,43.39599609375,94.1925048828125,80.3070068359375
6.069999900000001,8.339004516601562,0.7182605266571045,-0.14365209639072418,77.880859375,113.9373779296875,50.0030517578125
6.0899999000000005,8.825027465820312,-0.5482721924781799,1.6328455209732056,89.17236328125,114.2120361328125,27.52685546875
6.109999900000001,9.502586364746094,-1.8555063009262085,3.9217023849487305,55.17578125,83.831787109375,26.275634765625
6.1299999000000005,10.409989356994629,-3.0334534645080566,6.3733649253845215,46.93603515625,49.4537353515625,8.8043212890625
6.149999900000001,11.293449401855469,-3.734954595565796,8.774748802185059,61.6455078125,14.7857666015625,-23.0712890625
6.1699999000000005,12.054805755615234,-4.218583583831787,10.718840599060059,38.26904296875,-51.4678955078125,-24.566650390625
6.1899999,12.354081153869629,-4.146757125854492,11.719616889953613,47.7752685546875,-102.35595703125,-12.39013671875
6.209999900000001,12.121843338012695,-3.5434184074401855,11.492168426513672,96.13037109375,-111.9232177734375,-8.819580078125
6.2299999,11.511322021484375,-2.849100112915039,10.287884712219238,104.9346923828125,-109.771728515625,-8.23974609375
6.249999900000001,10.805032730102539,-1.9800047874450684,8.269572257995605,117.828369140625,-107.940673828125,6.4544677734375
6.2699999,10.144232749938965,-1.3455413579940796,6.107608318328857,132.8277587890625,-111.175537109375,7.080078125
6.289999900000001,9.636661529541016,-0.7374141216278076,3.9887399673461914,138.4124755859375,-118.1793212890625,-1.1138916015625
6.3099999,9.222464561462402,-0.24899697303771973,2.1571757793426514,114.410400390625,-139.0228271484375,-6.1492919921875
6.329999900000001,8.789113998413086,0.23942017555236816,0.6200982332229614,73.9593505859375,-145.294189453125,-10.3912353515625
6.3499999,8.307879447937012,0.8164227604866028,-0.6727706789970398,65.582275390625,-130.6915283203125,-10.31494140625
6.369999900000001,7.771578788757324,1.3263877630233765,-1.8363527059555054,90.4388427734375,-118.988037109375,-14.739990234375
6.3899999,7.208941459655762,1.8076223134994507,-3.0597896575927734,104.30908203125,-106.4605712890625,-26.5960693359375
6.409999900000001,6.6630635261535645,2.1380221843719482,-4.422090530395508,68.6492919921875,-103.3172607421875,-18.9666748046875
6.4299999,6.19379997253418,2.319981336593628,-5.894524574279785,33.4014892578125,-99.761962890625,0.8544921875
6.449999900000001,5.7987565994262695,2.3702597618103027,-7.42681360244751,52.886962890625,-75.0274658203125,-0.6561279296875
6.4699999,5.5329999923706055,2.209848165512085,-8.83699893951416,61.7523193359375,-47.698974609375,-2.349853515625
6.489999900000001,5.353435039520264,1.9249382019042969,-10.093954086303711,31.7840576171875,-31.5399169921875,-7.6141357421875
6.5099999,5.264849662780762,1.6065093278884888,-11.058817863464355,-3.0059814453125,-16.4947509765625,-11.29150390625
6.529999900000001,5.20978307723999,1.3862427473068237,-11.57596492767334,-21.8353271484375,4.33349609375,-11.5966796875
6.5499999,5.2049946784973145,1.357512354850769,-11.492168426513672,-37.8875732421875,28.0303955078125,-7.38525390625
6.569999900000001,5.276820659637451,1.4652514457702637,-10.819397926330566,-47.0733642578125,58.7310791015625,-0.6561279296875
6.5899999000000005,5.475539207458496,1.6280571222305298,-9.615114212036133,-52.3223876953125,86.0137939453125,3.47900390625
6.609999900000001,5.872976779937744,1.7812861204147339,-8.056488990783691,-56.6864013671875,96.3287353515625,5.9967041015625
6.6299999000000005,6.406883716583252,1.9345149993896484,-6.421248912811279,-54.718017578125,94.8028564453125,9.8419189453125
6.649999900000001,7.067683219909668,2.097320795059204,-4.9799394607543945,-52.0477294921875,81.085205078125,16.4947509765625
6.6699999000000005,7.781155586242676,2.2888567447662354,-3.7684733867645264,-52.8564453125,91.5985107421875,21.8505859375
6.6899999,8.463502883911133,2.5282769203186035,-2.9161376953125,-23.6053466796875,104.4921875,15.93017578125
6.709999900000001,9.119514465332031,2.693476915359497,-2.2002713680267334,-0.0762939453125,103.6376953125,14.1448974609375
6.7299999,9.718064308166504,2.671929121017456,-1.4772224426269531,1.2054443359375,106.781005859375,17.6544189453125
6.749999900000001,10.134655952453613,2.497152328491211,-0.8523358106613159,6.378173828125,101.8218994140625,14.1143798828125
6.7699999,10.323798179626465,2.142810583114624,-0.17238251864910126,-0.457763671875,88.31787109375,10.1165771484375
6.789999900000001,10.326191902160645,1.6711528301239014,0.6488286852836609,-14.7552490234375,86.395263671875,10.711669921875
6.8099999,10.187328338623047,1.1683704853057861,1.680729627609253,-9.552001953125,79.1473388671875,2.8076171875
6.829999900000001,10.108319282531738,0.6584054827690125,3.0550012588500977,9.8419189453125,64.239501953125,-8.9263916015625
6.8499999,10.251971244812012,0.1173158809542656,4.733336925506592,19.439697265625,55.4656982421875,-14.8468017578125
6.869999900000001,10.632649421691895,-0.35434186458587646,6.476315498352051,10.467529296875,33.2183837890625,-15.2130126953125
6.8899999,11.135432243347168,-0.6392518281936646,7.898471355438232,2.2125244140625,-13.0615234375,-12.2528076171875
6.909999900000001,11.585541725158691,-0.6536170840263367,8.822632789611816,0.1068115234375,-53.3599853515625,-7.6141357421875
6.9299999,11.820174217224121,-0.33279404044151306,9.030928611755371,22.1405029296875,-67.44384765625,-11.7034912109375
6.949999900000001,11.81059741973877,0.22266076505184174,8.53293514251709,60.4248046875,-71.4263916015625,-23.74267578125
6.9699999,11.621455192565918,0.912190854549408,7.496245384216309,76.9500732421875,-85.14404296875,-29.7393798828125
6.989999900000001,11.30302619934082,1.525106430053711,6.026205539703369,73.4100341796875,-103.3782958984375,-28.472900390625
7.0099999,10.90558910369873,1.987187385559082,4.235342979431152,54.3670654296875,-130.4779052734375,-15.533447265625
7.029999900000001,10.3549222946167,2.274491548538208,2.3271639347076416,34.2254638671875,-142.08984375,-6.317138671875
7.0499999,9.622296333312988,2.3942017555236816,0.38067805767059326,37.4603271484375,-130.1422119140625,-11.3677978515625
7.069999900000001,8.757989883422852,2.382230758666992,-1.4772224426269531,42.8009033203125,-125.152587890625,-9.857177734375
7.0899999000000005,7.884106159210205,2.2697031497955322,-3.028665065765381,29.998779296875,-116.4093017578125,-2.7923583984375
7.109999900000001,7.127538681030273,2.1308395862579346,-4.280832767486572,38.421630859375,-91.5374755859375,-7.7362060546875
7.1299999000000005,6.600813865661621,1.9800047874450684,-5.125985622406006,48.4771728515625,-78.1707763671875,-15.8233642578125
7.149999900000001,6.354211330413818,1.886630892753601,-5.612008571624756,40.679931640625,-78.79638671875,-11.16943359375
7.1699999000000005,6.332663536071777,1.8052281141281128,-5.880159378051758,26.397705078125,-78.4912109375,-0.18310546875
7.1899999,6.430825710296631,1.7621324062347412,-6.145915985107422,26.6876220703125,-74.64599609375,-1.3885498046875
7.209999900000001,6.840234279632568,1.7836803197860718,-6.361393928527832,31.2347412109375,-59.75341796875,-5.340576171875
7.2299999,7.252037048339844,1.9177556037902832,-6.698976516723633,44.2657470703125,-58.319091796875,-13.763427734375
7.249999900000001,7.546523571014404,1.8986018896102905,-6.998251438140869,26.397705078125,-59.63134765625,-4.6234130859375
7.2699999,7.580042362213135,1.9105730056762695,-7.4100542068481445,13.9007568359375,-54.5196533203125,4.241943359375
7.289999900000001,7.163451671600342,1.6831238269805908,-7.886500358581543,10.0555419921875,-37.3382568359375,-1.28173828125
7.3099999,6.476315498352051,1.4676456451416016,-8.49941635131836,-1.129150390625,-23.162841796875,-1.9378662109375
7.329999900000001,5.724536418914795,1.3886369466781616,-9.160215377807617,-13.5650634765625,-12.3443603515625,1.922607421875
7.3499999,5.1331682205200195,1.4748282432556152,-9.691728591918945,-31.005859375,4.608154296875,10.284423828125
7.369999900000001,4.793191909790039,1.6879122257232666,-9.95748519897461,-43.853759765625,22.88818359375,18.85986328125
7.3899999,4.786009311676025,1.8794482946395874,-9.856928825378418,-43.2586669921875,39.1082763671875,23.0712890625
7.409999900000001,5.092466831207275,1.9488801956176758,-9.366117477416992,-41.8548583984375,53.77197265625,20.3399658203125
7.4299999,5.623979568481445,1.8818424940109253,-8.537723541259766,-49.2095947265625,65.24658203125,15.411376953125
7.449999900000001,6.313509941101074,1.7549498081207275,-7.493851184844971,-52.5970458984375,77.1636962890625,15.9454345703125
7.4699999,7.036558628082275,1.6496049165725708,-6.282385349273682,-50.5828857421875,78.4149169921875,17.08984375
7.489999900000001,7.726089000701904,1.5825673341751099,-5.094861030578613,-38.0706787109375,78.857421875,12.237548828125
7.5099999,8.362946510314941,1.5705963373184204,-3.9193081855773926,-31.6619873046875,81.0699462890625,6.3018798828125
7.529999900000001,8.832210540771484,1.6112977266311646,-2.9328970909118652,-26.9927978515625,75.653076171875,-0.0457763671875
7.5499999,9.133879661560059,1.7166426181793213,-2.1787235736846924,-21.2249755859375,63.04931640625,-0.48828125
7.569999900000001,9.263166427612305,1.8938134908676147,-1.6519991159439087,-15.5487060546875,54.473876953125,-1.3427734375
7.5899999000000005,9.244012832641602,2.1068975925445557,-1.3551181554794312,-6.2103271484375,55.328369140625,-5.55419921875
7.609999900000001,9.064447402954102,2.3056161403656006,-1.290474772453308,2.0294189453125,51.8646240234375,-3.265380859375
7.6299999000000005,8.908824920654297,2.4444799423217773,-1.335964560508728,-10.3912353515625,39.9627685546875,12.63427734375
7.649999900000001,8.755595207214355,2.5019407272338867,-1.4437036514282227,-17.9595947265625,42.1905517578125,22.8729248046875
7.6699999000000005,8.741230010986328,2.432508945465088,-1.53707754611969,0.823974609375,50.6134033203125,17.8985595703125
7.6899999,8.777143478393555,2.2649147510528564,-1.656787633895874,20.6756591796875,56.9000244140625,7.2784423828125
7.709999900000001,8.9064302444458,1.98958158493042,-1.7693150043487549,2.2125244140625,46.0968017578125,12.5579833984375
7.7299999,9.028534889221191,1.6974890232086182,-1.8363527059555054,-25.4058837890625,40.8782958984375,23.3154296875
7.749999900000001,9.191340446472168,1.4484920501708984,-1.8100165128707886,-19.6075439453125,55.7098388671875,18.7835693359375
7.7699999,9.363722801208496,1.2665326595306396,-1.6304513216018677,-0.7171630859375,63.995361328125,4.08935546875
7.789999900000001,9.528923034667969,1.1635819673538208,-1.357512354850769,-1.220703125,59.417724609375,-2.532958984375
7.8099999,9.593565940856934,1.1563993692398071,-1.1085153818130493,-18.5699462890625,59.112548828125,0.9613037109375
7.829999900000001,9.528923034667969,1.2186486721038818,-0.9696516990661621,-27.2674560546875,61.21826171875,5.3863525390625
7.8499999,9.368511199951172,1.314416766166687,-0.9193734526634216,-20.8740234375,66.680908203125,3.173828125
7.869999900000001,9.208099365234375,1.4197616577148438,-0.8762778043746948,-15.533447265625,69.2901611328125,-1.9989013671875
7.8899999,9.100360870361328,1.501164436340332,-0.811634361743927,-16.4642333984375,69.427490234375,-9.613037109375
7.909999900000001,9.105149269104004,1.5131354331970215,-0.6727706789970398,-18.0206298828125,70.526123046875,-14.801025390625
7.9299999,9.196128845214844,1.4389152526855469,-0.36152446269989014,-21.54541015625,87.21923828125,-18.73779296875
7.949999900000001,9.378087997436523,1.37906014919281,0.09816227108240128,-19.2413330078125,101.959228515625,-24.5513916015625
7.9699999,9.641449928283691,1.3120225667953491,0.7733271718025208,-24.322509765625,102.020263671875,-23.3154296875
7.989999900000001,10.02691650390625,1.3072341680526733,1.6974890232086182,-37.8265380859375,93.841552734375,-15.44189453125
8.0099999,10.498574256896973,1.3527239561080933,2.87064790725708,-39.6575927734375,84.04541015625,-10.467529296875
8.0299999,11.08994197845459,1.3742717504501343,4.264073371887207,-27.4505615234375,76.6754150390625,-12.3138427734375
8.049999900000001,11.690886497497559,1.4484920501708984,5.789179801940918,-14.16015625,63.720703125,-21.209716796875
8.069999900000001,12.193669319152832,1.580173134803772,7.220912456512451,-5.4473876953125,34.9884033203125,-24.0631103515625
8.0899999,12.497733116149902,1.8124107122421265,8.293514251708984,-2.0904541015625,-11.3677978515625,-14.4805908203125
8.1099999,12.466608047485352,2.0877439975738525,8.796297073364258,-4.7454833984375,-59.6466064453125,0.18310546875
8.129999900000001,12.145785331726074,2.3056161403656006,8.631096839904785,-8.026123046875,-91.61376953125,11.41357421875
8.149999900000001,11.523292541503906,2.4181437492370605,7.817068576812744,-1.1444091796875,-106.353759765625,7.415771484375
8.1699999,10.773907661437988,2.3989901542663574,6.53377628326416,11.260986328125,-114.715576171875,-1.3275146484375
8.1899999,10.010157585144043,2.274491548538208,5.008669853210449,13.0462646484375,-111.053466796875,-5.6915283203125
8.2099999,9.354146003723145,2.169146776199341,3.5386300086975098,6.8359375,-101.593017578125,-11.0626220703125
8.229999900000001,8.89685344696045,2.0925323963165283,2.3535003662109375,9.674072265625,-95.7794189453125,-13.9617919921875
8.2499999,8.635885238647461,2.073378562927246,1.522712230682373,29.35791015625,-90.6219482421875,-17.7764892578125
8.2699999,8.508993148803711,2.1380221843719482,1.0103530883789062,43.426513671875,-88.5467529296875,-24.35302734375
8.2899999,8.432378768920898,2.248155355453491,0.6871358752250671,40.740966796875,-91.0186767578125,-23.8037109375
8.309999900000001,8.432378768920898,2.3798365592956543,0.4165911078453064,40.069580078125,-92.071533203125,-11.9476318359375
8.3299999,8.432378768920898,2.499546527862549,0.19393034279346466,41.534423828125,-94.9554443359375,-7.476806640625
8.3499999,8.47786808013916,2.583343744277954,-0.05985504388809204,44.403076171875,-99.2431640625,-8.941650390625
8.3699999,8.482656478881836,2.58813214302063,-0.4165911078453064,45.166015625,-107.5592041015625,-8.9263916015625
8.389999900000001,8.38688850402832,2.537853717803955,-0.9050082564353943,33.3404541015625,-115.6463623046875,-8.392333984375
8.4099999,8.125920295715332,2.52109432220459,-1.6424223184585571,20.050048828125,-114.0594482421875,-2.227783203125
8.4299999,7.800309181213379,2.516305923461914,-2.43011474609375,17.4102783203125,-106.842041015625,5.279541015625
8.4499999,7.46033239364624,2.535459518432617,-3.2561142444610596,30.0750732421875,-89.080810546875,0.4730224609375
8.469999900000001,7.220912456512451,2.5330653190612793,-3.931279182434082,41.80908203125,-77.6519775390625,-5.4473876953125
8.4899999,7.141903877258301,2.5234885215759277,-4.402936935424805,47.637939453125,-80.3070068359375,-10.7269287109375
8.5099999,7.022193431854248,2.5450363159179688,-4.774038314819336,55.7861328125,-78.5675048828125,-18.402099609375
8.5299999,6.983886241912842,2.6024973392486572,-5.035006046295166,49.1180419921875,-74.7528076171875,-5.767822265625
8.549999900000001,6.890512466430664,2.691082715988159,-5.245696067810059,40.34423828125,-65.582275390625,7.8277587890625
8.569999900000001,6.876147270202637,2.741360902786255,-5.3582234382629395,46.6461181640625,-57.31201171875,6.256103515625
8.5899999,6.955155849456787,2.7222073078155518,-5.377377033233643,61.5692138671875,-57.9986572265625,0.6256103515625
8.6099999,7.091625213623047,2.58813214302063,-5.360617637634277,69.0155029296875,-58.3648681640625,-1.708984375
8.629999900000001,7.163451671600342,2.4205379486083984,-5.4444146156311035,57.159423828125,-54.74853515625,1.03759765625
8.649999900000001,7.141903877258301,2.1595699787139893,-5.767632007598877,41.6717529296875,-49.8809814453125,7.2174072265625
8.6699999,6.976703643798828,1.8291701078414917,-6.385335922241211,25.909423828125,-48.736572265625,12.8021240234375
8.6899999,6.696582317352295,1.3934253454208374,-7.311892032623291,11.23046875,-46.844482421875,11.1541748046875
8.709999900000001,6.265625953674316,0.9241618514060974,-8.465897560119629,-7.7667236328125,-41.7327880859375,4.8370361328125
8.729999900000001,5.765237808227539,0.569819986820221,-9.619902610778809,-34.8052978515625,-24.4293212890625,4.058837890625
8.7499999,5.231330871582031,0.40701428055763245,-10.520122528076172,-48.3856201171875,8.026123046875,8.1939697265625
8.7699999,4.802768707275391,0.4692635238170624,-10.979808807373047,-39.3218994140625,43.0450439453125,10.2081298828125
8.7899999,4.599261283874512,0.6703764796257019,-10.912771224975586,-33.0810546875,65.1397705078125,8.5906982421875
8.809999900000001,4.683058738708496,0.9193734526634216,-10.347740173339844,-44.189453125,79.0557861328125,8.056640625
8.8299999,5.0254292488098145,1.139639973640442,-9.399636268615723,-55.023193359375,87.09716796875,9.4757080078125
8.8499999,5.5329999923706055,1.359906554222107,-8.216899871826172,-51.1932373046875,95.2301025390625,10.009765625
8.8699999,6.141127586364746,1.5418659448623657,-6.8809356689453125,-47.05810546875,103.5003662109375,12.0086669921875
8.889999900000001,6.694188117980957,1.7334020137786865,-5.588066577911377,-42.54150390625,111.358642578125,10.772705078125
8.9099999,7.16584587097168,1.889025092124939,-4.441244125366211,-39.36767578125,110.260009765625,11.444091796875
8.9299999,7.618350028991699,1.9800047874450684,-3.4093432426452637,-41.50390625,106.597900390625,17.059326171875
8.9499999,7.989450931549072,2.0446481704711914,-2.583343744277954,-31.8145751953125,107.5286865234375,12.8631591796875
8.969999900000001,8.310274124145508,2.073378562927246,-1.9632453918457031,-18.98193359375,98.4344482421875,8.392333984375
8.9899999,8.494627952575684,2.1045033931732178,-1.558625340461731,-21.42333984375,85.7696533203125,9.1552734375
9.0099999,8.549694061279297,2.142810583114624,-1.37906014919281,-26.0162353515625,79.77294921875,12.6800537109375
9.0299999,8.504204750061035,2.1547815799713135,-1.2880805730819702,-22.064208984375,83.6639404296875,10.101318359375
9.049999900000001,8.497021675109863,2.1164743900299072,-1.2018892765045166,-13.2598876953125,87.799072265625,6.1187744140625
9.069999900000001,8.635885238647461,2.0183119773864746,-0.950498104095459,-14.4805908203125,82.366943359375,7.0648193359375
9.0899999,8.83939266204834,1.8938134908676147,-0.6177040338516235,-22.735595703125,83.5418701171875,9.9029541015625
9.1099999,9.157821655273438,1.723825216293335,-0.21547815203666687,-26.85546875,76.0955810546875,17.8375244140625
9.129999900000001,9.502586364746094,1.5442601442337036,0.2059013396501541,-24.2919921875,79.5135498046875,13.9617919921875
9.149999900000001,9.804255485534668,1.3910311460494995,0.5841852426528931,-23.01025390625,85.4034423828125,2.410888671875
9.1699999,10.06043529510498,1.2952631711959839,0.9313444495201111,-27.0538330078125,80.780029296875,-0.91552734375
9.1899999,10.307038307189941,1.290474772453308,1.3838485479354858,-36.07177734375,76.507568359375,5.37109375
9.209999900000001,10.575188636779785,1.3455413579940796,1.9488801956176758,-35.400390625,81.268310546875,7.75146484375
9.229999900000001,11.05402946472168,1.2880805730819702,2.8107926845550537,-32.9742431640625,74.70703125,5.889892578125
9.2499999,11.710040092468262,1.2617442607879639,3.9671921730041504,-23.6663818359375,69.4427490234375,-11.8408203125
9.2699999,12.48815631866455,1.2234370708465576,5.288791656494141,-2.6397705078125,50.7049560546875,-25.3753662109375
9.2899999,13.113042831420898,1.280897855758667,6.445190906524658,19.1497802734375,11.138916015625,-24.10888671875
9.309999900000001,13.369222640991211,1.4867992401123047,7.105990409851074,22.2625732421875,-25.81787109375,-16.693115234375
9.3299999,13.153743743896484,1.7286136150360107,7.074865818023682,10.650634765625,-56.5032958984375,-13.885498046875
9.3499999,12.521675109863281,1.944091796875,6.392518520355225,7.5531005859375,-82.94677734375,-12.2222900390625
9.3699999,11.640608787536621,2.1164743900299072,5.30076265335083,12.5579833984375,-92.7734375,-11.8560791015625
9.389999900000001,10.737994194030762,2.229001760482788,4.094084739685059,18.85986328125,-93.9788818359375,-15.1824951171875
9.4099999,9.947908401489258,2.2912509441375732,2.964021682739258,27.8167724609375,-94.6044921875,-20.1568603515625
9.4299999,9.337387084960938,2.3367409706115723,1.9991583824157715,34.942626953125,-89.29443359375,-23.6968994140625
9.4499999,8.968679428100586,2.3535003662109375,1.2689268589019775,31.7535400390625,-90.88134765625,-17.7764892578125
9.469999900000001,8.765172004699707,2.3798365592956543,0.7493851184844971,30.6243896484375,-95.4742431640625,-12.9852294921875
9.4899999,8.686163902282715,2.4013843536376953,0.37828385829925537,38.970947265625,-95.062255859375,-15.7470703125
9.5099999,8.669404029846191,2.4133553504943848,0.07661445438861847,40.5120849609375,-99.5025634765625,-16.021728515625
9.5299999,8.631096839904785,2.4133553504943848,-0.26096799969673157,30.3192138671875,-111.1297607421875,-9.1552734375
9.549999900000001,8.56645393371582,2.365471363067627,-0.6655880808830261,20.3094482421875,-122.6959228515625,-5.5389404296875
9.569999900000001,8.456320762634277,2.3367409706115723,-1.158793568611145,24.2919921875,-120.1629638671875,-10.9100341796875
9.5899999,8.286332130432129,2.2840683460235596,-1.7142484188079834,35.2630615234375,-112.85400390625,-16.9830322265625
9.6099999,8.135497093200684,2.205059766769409,-2.276885747909546,35.552978515625,-109.344482421875,-13.5955810546875
9.629999900000001,8.010998725891113,2.10210919380188,-2.8131868839263916,29.571533203125,-107.6202392578125,-13.2904052734375
9.649999900000001,7.90086555480957,2.0015525817871094,-3.294421434402466,27.435302734375,-110.3057861328125,-20.751953125
9.6699999,7.738059997558594,1.9249382019042969,-3.7660791873931885,26.7181396484375,-115.692138671875,-23.62060546875
9.6899999,7.493851184844971,1.922544002532959,-4.2760443687438965,20.599365234375,-119.7357177734375,-16.357421875
9.709999900000001,7.101202011108398,1.9943699836730957,-4.886565685272217,11.7645263671875,-117.9962158203125,-14.2364501953125
9.729999900000001,6.63433313369751,2.123656988143921,-5.56173038482666,3.4332275390625,-111.3739013671875,-15.5181884765625
9.7499999,6.119579315185547,2.3295583724975586,-6.260837554931641,3.2806396484375,-104.1412353515625,-13.916015625
9.7699999,5.521028995513916,2.609679937362671,-6.988674640655518,13.9312744140625,-99.8382568359375,-17.6239013671875
9.7899999,4.896142482757568,2.9257144927978516,-7.773972988128662,25.482177734375,-78.1707763671875,-14.0380859375
9.809999900000001,4.259284973144531,3.1675288677215576,-8.59997272491455,24.10888671875,-56.732177734375,-7.9345703125
9.8299999,3.6535518169403076,3.31118106842041,-9.445125579833984,19.9432373046875,-36.7584228515625,-6.317138671875
9.8499999,3.114856481552124,3.3710360527038574,-10.216058731079102,20.6756591796875,-15.106201171875,-7.8582763671875
9.8699999,2.698265314102173,3.3877954483032227,-10.769119262695312,9.0179443359375,5.8746337890625,0.18310546875
9.889999900000001,2.456450939178467,3.3710360527038574,-11.013327598571777,-9.8724365234375,22.9949951171875,18.280029296875
9.9099999,2.473210334777832,3.318363666534424,-10.896012306213379,-17.7154541015625,38.02490234375,30.94482421875
9.9299999,2.7916390895843506,3.179499864578247,-10.402806282043457,-17.5628662109375,55.4962158203125,35.9344482421875
9.9499999,3.3423056602478027,2.9688100814819336,-9.648633003234863,-14.0838623046875,73.638916015625,35.5377197265625
9.969999900000001,4.0533833503723145,2.7006595134735107,-8.736441612243652,-16.8609619140625,82.4432373046875,37.3382568359375
9.9899999,4.855441093444824,2.3965959548950195,-7.750030994415283,-24.810791015625,84.5489501953125,40.8782958984375
10.0099999,5.688623428344727,2.0853497982025146,-6.7492547035217285,-26.4739990234375,90.2862548828125,40.7562255859375
10.0299999,6.48828649520874,1.8100165128707886,-5.810727596282959,-15.68603515625,98.6785888671875,33.538818359375
10.049999900000001,7.16584587097168,1.6160861253738403,-4.991910457611084,-4.8828125,105.1483154296875,25.45166015625
10.069999900000001,7.644686222076416,1.5322890281677246,-4.367023944854736,-6.7291259765625,103.69873046875,26.9012451171875
10.0899999,7.924807548522949,1.5179238319396973,-3.93367338180542,-15.0299072265625,96.405029296875,32.8216552734375
10.1099999,8.133103370666504,1.4844050407409668,-3.5913026332855225,-13.397216796875,105.865478515625,31.6925048828125
10.129999900000001,8.365341186523438,1.4173674583435059,-3.2752678394317627,-5.7373046875,115.72265625,24.444580078125
10.149999900000001,8.62630844116211,1.338358759880066,-2.940079689025879,-10.3912353515625,99.4720458984375,26.1077880859375
10.1699999,8.834604263305664,1.2497732639312744,-2.6408045291900635,-24.5361328125,87.34130859375,36.2396240234375
10.1899999,8.968679428100586,1.072602391242981,-2.451662540435791,-32.8826904296875,82.275390625,49.072265625
10.209999900000001,8.916007041931152,0.9361328482627869,-2.4157495498657227,-26.4434814453125,90.1947021484375,36.92626953125
10.229999900000001,8.78432559967041,0.7733271718025208,-2.456450939178467,-24.7650146484375,104.705810546875,14.0838623046875
10.2499999,8.59997272491455,0.7422025203704834,-2.473210334777832,-35.980224609375,111.5875244140625,11.993408203125
10.2699999,8.489839553833008,0.8164227604866028,-2.2577321529388428,-50.537109375,115.7379150390625,24.35302734375
10.2899999,8.573636054992676,0.828393816947937,-1.7717092037200928,-48.40087890625,123.2452392578125,29.083251953125
10.309999900000001,8.860940933227539,0.7182605266571045,-0.993593692779541,-47.576904296875,126.220703125,12.8936767578125
10.3299999,9.337387084960938,0.5315127968788147,0.004788403399288654,-51.2542724609375,124.1912841796875,-3.8909912109375
10.3499999,9.926360130310059,0.33997663855552673,1.161187767982483,-48.3856201171875,123.7945556640625,-0.2899169921875
10.3699999,10.524910926818848,0.2537853717803955,2.346317768096924,-37.8265380859375,119.1253662109375,9.4451904296875
10.389999900000001,11.135432243347168,0.2298433631658554,3.536235809326172,-25.8026123046875,101.4556884765625,6.103515625
10.4099999,11.779472351074219,0.21547815203666687,4.6950297355651855,-19.1497802734375,78.1097412109375,-6.134033203125
10.4299999,12.361263275146484,0.2561795711517334,5.750872611999512,-7.5836181640625,59.50927734375,-15.5792236328125
10.4499999,12.85207462310791,0.38546648621559143,6.66785192489624,8.8653564453125,43.8079833984375,-20.99609375
10.469999900000001,13.139378547668457,0.6272808313369751,7.316680431365967,19.8822021484375,17.0745849609375,-21.8048095703125
10.4899999,13.151350021362305,0.9002198576927185,7.580042362213135,20.81298828125,-17.974853515625,-19.1192626953125
10.5099999,12.840104103088379,1.1971008777618408,7.378929615020752,18.7225341796875,-51.8341064453125,-17.7459716796875
10.5299999,12.282255172729492,1.4197616577148438,6.780379295349121,16.4337158203125,-82.33642578125,-10.1776123046875
10.549999900000001,11.587936401367188,1.5753847360610962,5.904101371765137,18.5546875,-99.029541015625,-3.753662109375
10.569999900000001,10.8720703125,1.6424223184585571,4.8602294921875,29.6478271484375,-98.236083984375,-7.8887939453125
10.5899999,10.235212326049805,1.6208745241165161,3.7900211811065674,35.2630615234375,-95.2301025390625,-16.9830322265625
10.6099999,9.66299819946289,1.5945383310317993,2.7222073078155518,33.7066650390625,-92.498779296875,-22.5982666015625
10.629999900000001,9.172186851501465,1.580173134803772,1.7573440074920654,30.5938720703125,-92.34619140625,-18.035888671875
10.649999900000001,8.81784439086914,1.5921441316604614,0.9552865028381348,32.2723388671875,-87.2039794921875,-11.71875
10.6699999,8.561665534973145,1.659181833267212,0.31603461503982544,37.59765625,-82.0159912109375,-13.8092041015625
10.6899999,8.432378768920898,1.7142484188079834,-0.1867477297782898,38.4063720703125,-85.75439453125,-15.5792236328125
10.709999900000001,8.398859977722168,1.7741034030914307,-0.569819986820221,36.6973876953125,-83.8470458984375,-12.1612548828125
10.729999900000001,8.396465301513672,1.8579005002975464,-0.8882488012313843,35.33935546875,-79.7271728515625,-13.336181640625
10.7499999,8.425195693969727,1.922544002532959,-1.1827356815338135,34.5916748046875,-84.4268798828125,-9.979248046875
10.7699999,8.432378768920898,1.965639591217041,-1.479616641998291,33.172607421875,-91.5985107421875,-5.9967041015625
10.7899999,8.418013572692871,1.9752163887023926,-1.802833914756775,29.4647216796875,-90.911865234375,-5.767822265625
10.809999900000001,8.439560890197754,1.965639591217041,-2.099714994430542,25.360107421875,-83.0230712890625,-6.5765380859375
10.8299999,8.427590370178223,1.941697597503662,-2.365471363067627,27.77099609375,-75.775146484375,-5.3558349609375
10.8499999,8.40843677520752,1.946485996246338,-2.5785553455352783,28.839111328125,-80.3985595703125,1.7242431640625
10.8699999,8.291120529174805,1.9919757843017578,-2.849100112915039,21.8963623046875,-93.475341796875,8.087158203125
10.889999900000001,8.075642585754395,1.9943699836730957,-3.2369606494903564,22.5982666015625,-98.541259765625,4.39453125
10.9099999,7.8098859786987305,1.9704279899597168,-3.778050184249878,34.0118408203125,-82.82470703125,-2.44140625
10.9299999,7.618350028991699,1.8746598958969116,-4.338293552398682,35.0799560546875,-67.8253173828125,-0.8087158203125
10.9499999,7.577648162841797,1.7166426181793213,-4.766855716705322,27.130126953125,-62.6220703125,4.2266845703125
10.969999900000001,7.735665798187256,1.5418659448623657,-4.924872875213623,24.932861328125,-60.5621337890625,2.0599365234375
10.9899999,8.001421928405762,1.37906014919281,-4.807557106018066,32.3028564453125,-62.5152587890625,-7.9498291015625
11.0099999,8.293514251708984,1.237802267074585,-4.527435302734375,40.5120849609375,-67.596435546875,-12.542724609375
11.0299999,8.480262756347656,1.1420341730117798,-4.273650169372559,37.994384765625,-76.4923095703125,-10.8795166015625
11.049999900000001,8.44434928894043,1.091755986213684,-4.247313976287842,33.5540771484375,-85.7086181640625,-11.7950439453125
11.069999900000001,8.159439086914062,1.091755986213684,-4.548983097076416,31.5399169921875,-90.606689453125,-14.8773193359375
11.0899999,7.582436561584473,1.173158884048462,-5.228936672210693,28.350830078125,-90.33203125,-14.6331787109375
11.1099999,6.780379295349121,1.2880805730819702,-6.248866558074951,29.0374755859375,-82.977294921875,-11.8255615234375
11.129999900000001,5.837063789367676,1.436521053314209,-7.50582218170166,33.7066650390625,-67.6116943359375,-12.2222900390625
11.149999900000001,4.857835292816162,1.580173134803772,-8.813055992126465,26.1688232421875,-53.6346435546875,-10.8184814453125
11.1699999,3.950432777404785,1.6735470294952393,-10.079588890075684,7.2784423828125,-48.492431640625,2.777099609375
11.1899999,3.181894063949585,1.7621324062347412,-11.077971458435059,-12.0697021484375,-30.7769775390625,15.56396484375
11.209999900000001,2.626439332962036,1.821987509727478,-11.779472351074219,-25.7415771484375,-1.3427734375,27.984619140625
11.229999900000001,2.3535003662109375,1.8363527059555054,-12.050017356872559,-33.38623046875,16.937255859375,40.46630859375
11.2499999,2.403778553009033,1.7908629179000854,-11.868058204650879,-38.6962890625,37.872314453125,45.6695556640625
11.2699999,2.786850690841675,1.6711528301239014,-11.252747535705566,-37.7655029296875,61.0198974609375,45.2880859375
11.2899999,3.4548330307006836,1.4652514457702637,-10.292673110961914,-35.2630615234375,78.18603515625,47.1649169921875
11.309999900000001,4.24970817565918,1.194706678390503,-9.2033109664917,-30.670166015625,89.630126953125,46.7987060546875
11.3299999,5.097255229949951,0.8738836050033569,-8.1139497756958,-34.515380859375,100.860595703125,43.1671142578125
11.3499999,5.872976779937744,0.5674257874488831,-7.084442615509033,-44.12841796875,108.94775390625,40.71044921875
11.3699999,6.572083473205566,0.31842881441116333,-6.121973514556885,-41.412353515625,110.565185546875,39.093017578125
11.389999900000001,7.175422668457031,0.17238251864910126,-5.212177276611328,-28.3050537109375,109.0545654296875,33.3251953125
11.4099999,7.659051418304443,0.10534487664699554,-4.41969633102417,-18.768310546875,108.795166015625,22.6898193359375
11.4299999,8.04691219329834,0.09816227108240128,-3.7708675861358643,-25.1312255859375,106.0028076171875,19.9127197265625
11.4499999,8.360552787780762,0.11971008777618408,-3.2561142444610596,-26.947021484375,111.2518310546875,17.547607421875
11.469999900000001,8.609549522399902,0.17477671802043915,-2.8227639198303223,-9.58251953125,121.64306640625,9.674072265625
11.4899999,8.813055992126465,0.272938996553421,-2.4588451385498047,2.74658203125,121.4752197265625,3.0364990234375
11.5099999,8.880094528198242,0.3974374830722809,-2.166752576828003,-9.185791015625,113.7237548828125,3.47900390625
11.5299999,8.789113998413086,0.5123591423034668,-2.011129379272461,-27.89306640625,107.696533203125,12.542724609375
11.549999900000001,8.60236644744873,0.6153098344802856,-1.900996208190918,-41.1376953125,104.5074462890625,18.157958984375
11.569999900000001,8.379706382751465,0.689530074596405,-1.745373010635376,-45.6085205078125,101.62353515625,17.791748046875
11.5899999,8.26478385925293,0.7326257228851318,-1.4939818382263184,-33.9202880859375,107.879638671875,14.984130859375
11.6099999,8.303091049194336,0.706289529800415,-1.0869675874710083,-26.092529296875,110.5804443359375,15.1214599609375
11.629999900000001,8.573636054992676,0.5770025849342346,-0.4812345504760742,-36.041259765625,108.9019775390625,15.869140625
11.649999900000001,9.071630477905273,0.363918662071228,0.30885201692581177,-42.96875,106.201171875,13.5955810546875
11.6699999,9.751583099365234,0.1149216815829277,1.2258312702178955,-36.1480712890625,101.5167236328125,11.260986328125
11.6899999,10.591948509216309,-0.14604631066322327,2.2601263523101807,-30.33447265625,94.9554443359375,11.077880859375
11.709999900000001,11.492168426513672,-0.3687070608139038,3.335123062133789,-23.3917236328125,86.36474609375,3.448486328125
11.729999900000001,12.392388343811035,-0.5171475410461426,4.4077253341674805,-10.92529296875,70.6939697265625,-9.765625
11.7499999,13.177685737609863,-0.5746083855628967,5.4228668212890625,2.2125244140625,48.583984375,-17.63916015625
11.7699999,13.711592674255371,-0.48602294921875,6.189011573791504,6.988525390625,23.9105224609375,-17.63916015625
11.7899999,13.833697319030762,-0.26096799969673157,6.531382083892822,1.861572265625,-5.5084228515625,-14.373779296875
11.809999900000001,13.534421920776367,0.016759412363171577,6.332663536071777,-3.875732421875,-38.14697265625,-14.2364501953125
11.8299999,12.878411293029785,0.31842881441116333,5.693411827087402,-9.6588134765625,-66.6656494140625,-14.892578125
11.8499999,12.054805755615234,0.5482721924781799,4.750096321105957,-5.828857421875,-81.9854736328125,-12.3291015625
11.8699999,11.26950740814209,0.6991068720817566,3.7445313930511475,3.0670166015625,-81.146240234375,-12.3748779296875
11.889999900000001,10.625467300415039,0.7613561153411865,2.8203697204589844,14.2364501953125,-71.2738037109375,-19.500732421875
11.9099999,10.24000072479248,0.706289529800415,2.0590133666992188,27.8778076171875,-58.380126953125,-27.40478515625
11.9299999,10.038887977600098,0.629675030708313,1.522712230682373,27.740478515625,-52.5665283203125,-33.4014892578125
11.9499999,9.971850395202637,0.545877993106842,1.1635819673538208,22.2015380859375,-56.4727783203125,-32.6690673828125
11.969999900000001,9.967061996459961,0.48602294921875,0.9169792532920837,20.2789306640625,-61.1724853515625,-23.37646484375
11.9899999,9.938331604003906,0.4429273009300232,0.7110779285430908,13.458251953125,-65.704345703125,-18.5394287109375
12.0099999,9.837775230407715,0.45250412821769714,0.4620809257030487,6.561279296875,-72.2503662109375,-28.228759765625
12.0299999,9.701305389404297,0.5291185975074768,0.19393034279346466,6.500244140625,-73.577880859375,-31.8450927734375
12.049999900000001,9.481039047241211,0.706289529800415,-0.14604631066322327,16.2811279296875,-72.4334716796875,-33.721923828125
12.069999900000001,9.265560150146484,0.9193734526634216,-0.5003881454467773,22.5372314453125,-73.2269287109375,-32.3638916015625
12.0899999,9.074024200439453,1.1755530834197998,-0.8331822156906128,23.406982421875,-70.6939697265625,-35.186767578125
12.1099999,8.860940933227539,1.4389152526855469,-1.1803414821624756,28.9764404296875,-65.155029296875,-42.1295166015625
12.129999900000001,8.635885238647461,1.702277421951294,-1.522712230682373,28.7628173828125,-69.9462890625,-34.698486328125
12.149999900000001,8.38449478149414,1.9728221893310547,-1.8818424940109253,18.463134765625,-75.103759765625,-24.383544921875
12.1699999,8.154650688171387,2.2385785579681396,-2.2601263523101807,14.862060546875,-74.5086669921875,-27.7252197265625
12.1899999,7.936778545379639,2.47560453414917,-2.5905263423919678,22.3236083984375,-76.96533203125,-39.2608642578125
12.209999900000001,7.752425193786621,2.7078421115875244,-2.913743495941162,36.0565185546875,-73.883056640625,-38.360595703125
12.229999900000001,7.558494567871094,2.918531894683838,-3.205836057662964,35.400390625,-71.6705322265625,-25.3753662109375
12.2499999,7.424419403076172,3.004723072052002,-3.5218706130981445,23.7274169921875,-71.319580078125,-14.6636962890625
12.2699999,7.3693528175354,2.9879636764526367,-3.7876269817352295,19.866943359375,-65.7501220703125,-18.280029296875
12.289999900000002,7.534552574157715,2.806004285812378,-3.9432501792907715,27.252197265625,-65.1397705078125,-27.83203125
12.309999900000001,7.68538761138916,2.5953147411346436,-4.055777549743652,40.7867431640625,-67.138671875,-35.8123779296875
12.3299999,7.7213006019592285,2.449268341064453,-4.242525577545166,40.1763916015625,-73.272705078125,-33.660888671875
12.3499999,7.481880187988281,2.4684219360351562,-4.596867084503174,24.8565673828125,-80.0933837890625,-24.47509765625
12.3699999,7.000645637512207,2.652775526046753,-5.17626428604126,20.660400390625,-75.531005859375,-19.8822021484375
12.389999900000001,6.44279670715332,2.9257144927978516,-5.870582580566406,29.266357421875,-66.864013671875,-17.27294921875
12.4099999,5.992686748504639,3.160346269607544,-6.540958881378174,30.57861328125,-56.21337890625,-14.0838623046875
12.4299999,5.6910176277160645,3.2561142444610596,-7.19936466217041,26.8096923828125,-52.24609375,-9.8419189453125
12.4499999,5.592854976654053,3.141192674636841,-7.733271598815918,9.0789794921875,-49.224853515625,-0.1068115234375
12.469999900000001,5.66228723526001,2.8634653091430664,-8.142680168151855,-3.0364990234375,-38.14697265625,-0.701904296875
12.4899999,5.949591159820557,2.4851813316345215,-8.305485725402832,-0.4119873046875,-25.787353515625,-9.033203125
12.5099999,6.380547523498535,2.0877439975738525,-8.161833763122559,10.650634765625,-15.1824951171875,-20.843505859375
12.5299999,6.813898086547852,1.7286136150360107,-7.862558364868164,23.25439453125,-11.9781494140625,-31.7535400390625
12.549999900000001,7.220912456512451,1.381454348564148,-7.560888767242432,17.8070068359375,-13.427734375,-35.8734130859375
12.569999900000001,7.443572998046875,1.113303780555725,-7.474697589874268,4.9896240234375,-12.87841796875,-50.201416015625
12.5899999,7.560888767242432,0.9169792532920837,-7.539340972900391,3.7994384765625,-0.5035400390625,-67.7490234375
12.6099999,7.510610580444336,0.7972691655158997,-7.745242595672607,23.92578125,19.3939208984375,-84.869384765625
12.629999900000001,7.264008045196533,0.849941611289978,-8.003816604614258,31.768798828125,29.998779296875,-97.5189208984375
12.649999900000001,6.914454460144043,1.0582371950149536,-8.178592681884766,3.1585693359375,38.75732421875,-95.1995849609375
12.6699999,6.44279670715332,1.4413094520568848,-8.255207061767578,-25.9857177734375,45.7305908203125,-90.576171875
12.6899999,6.069301128387451,2.0039467811584473,-8.118738174438477,-20.1263427734375,44.6929931640625,-97.83935546875
12.709999900000001,5.882553577423096,2.6001031398773193,-7.745242595672607,-4.0130615234375,50.0030517578125,-103.9581298828125
12.729999900000001,5.944802761077881,3.0334534645080566,-7.2352776527404785,-10.9405517578125,50.0946044921875,-89.05029296875
12.7499999,6.265625953674316,3.272873640060425,-6.605602264404297,-32.6690673828125,50.2471923828125,-75.408935546875
12.7699999,6.737283706665039,3.3255462646484375,-5.928043365478516,-33.111572265625,57.4188232421875,-91.30859375
12.789999900000002,7.225700855255127,3.354276657104492,-5.185841083526611,-12.4664306640625,58.6395263671875,-113.6474609375
12.809999900000001,7.544129371643066,3.533841609954834,-4.460397720336914,3.6773681640625,55.72509765625,-128.631591796875
12.8299999,7.546523571014404,3.974374771118164,-3.8163576126098633,-13.336181640625,41.3360595703125,-124.969482421875
12.8499999,7.237671852111816,4.606443881988525,-3.3518824577331543,-31.4788818359375,21.42333984375,-106.842041015625
12.8699999,6.677428722381592,5.394136428833008,-3.050212860107422,-32.8826904296875,10.8642578125,-97.2137451171875
12.889999900000001,5.990292549133301,6.189011573791504,-2.9281086921691895,-33.4930419921875,-0.5340576171875,-94.90966796875
12.9099999,5.339069843292236,6.8809356689453125,-2.9544448852539062,-42.8466796875,-17.3797607421875,-83.0230712890625
12.9299999,4.733336925506592,7.424419403076172,-3.117250680923462,-37.6434326171875,-22.2930908203125,-73.66943359375
12.9499999,4.153939723968506,7.922413349151611,-3.292027235031128,-30.1361083984375,-14.5111083984375,-72.5555419921875
12.969999900000001,3.56017804145813,8.461109161376953,-3.4141316413879395,-27.64892578125,-5.584716796875,-66.89453125
12.9899999,2.9448680877685547,9.069235801696777,-3.4596214294433594,-14.0228271484375,-1.9989013671875,-52.4139404296875
13.0099999,2.3271639347076416,9.725247383117676,-3.442862033843994,-6.8511962890625,-1.0986328125,-33.0963134765625
13.0299999,1.7693150043487549,10.338163375854492,-3.397372245788574,-13.641357421875,-2.532958984375,-10.7269287109375
13.049999900000001,1.335964560508728,10.809821128845215,-3.3494882583618164,-15.93017578125,-1.1749267578125,8.1634521484375
13.069999900000001,1.048660397529602,11.118672370910645,-3.292027235031128,-5.6304931640625,8.48388671875,21.4080810546875
13.0899999,0.912190854549408,11.255142211914062,-3.227383852005005,-1.6021728515625,10.4217529296875,33.26416015625
13.1099999,0.9600749015808105,11.21204662322998,-3.177105665206909,-6.1798095703125,4.0740966796875,59.5703125
13.129999900000001,1.1492167711257935,10.96544361114502,-3.160346269607544,-5.096435546875,8.11767578125,84.2132568359375
13.149999900000001,1.5418659448623657,10.508151054382324,-3.1483752727508545,13.1072998046875,21.759033203125,96.8475341796875
13.1699999,2.056619167327881,9.876082420349121,-3.1699230670928955,46.69189453125,41.3818359375,86.944580078125
13.1899999,2.63362193107605,9.150638580322266,-3.1938650608062744,61.859130859375,55.4046630859375,81.3140869140625
13.209999900000001,3.224989652633667,8.415618896484375,-3.2106244564056396,47.2259521484375,48.33984375,106.6741943359375
13.229999900000001,3.8091750144958496,7.711723804473877,-3.1866824626922607,24.2919921875,22.5067138671875,141.9219970703125
13.2499999,4.371812343597412,7.01979923248291,-3.134010076522827,31.005859375,8.209228515625,146.8048095703125
13.2699999,4.927267074584961,6.3063273429870605,-3.1028854846954346,62.92724609375,23.6968994140625,130.2337646484375
13.289999900000002,5.456385612487793,5.537788391113281,-3.0861260890960693,73.9898681640625,40.52734375,126.861572265625
13.309999900000001,5.940014362335205,4.721365928649902,-3.141192674636841,54.443359375,27.7252197265625,137.0086669921875
13.3299999,6.303933143615723,3.928884983062744,-3.2800562381744385,16.4337158203125,-22.705078125,158.4930419921875
13.3499999,6.610390663146973,3.1699230670928955,-3.49314022064209,-27.3590087890625,-83.2672119140625,186.3861083984375
13.3699999,6.876147270202637,2.499546527862549,-3.7158010005950928,-56.549072265625,-116.5008544921875,214.4622802734375
13.389999900000001,7.1490864753723145,1.9991583824157715,-3.950432777404785,-35.33935546875,-116.7144775390625,218.1396484375
13.4099999,7.398083209991455,1.580173134803772,-4.134786128997803,16.998291015625,-92.10205078125,174.74365234375
13.4299999,7.5848307609558105,1.290474772453308,-4.273650169372559,58.4716796875,-51.7120361328125,148.2086181640625
13.4499999,7.577648162841797,1.0271124839782715,-4.414907932281494,59.295654296875,-39.9627685546875,153.62548828125
13.469999900000001,7.553706169128418,0.5602431893348694,-4.5154643058776855,44.647216796875,-60.1043701171875,188.5833740234375
13.4899999,7.608773231506348,-0.24660277366638184,-4.613626480102539,38.726806640625,-78.4149169921875,207.000732421875
13.5099999,7.7428483963012695,-1.3024457693099976,-4.759673118591309,32.6995849609375,-93.3685302734375,171.7987060546875
13.5299999,7.881711959838867,-2.3774423599243164,-4.965574264526367,15.1214599609375,-101.654052734375,132.1868896484375
13.549999900000001,7.781155586242676,-3.07415509223938,-5.324704647064209,3.570556640625,-111.1602783203125,121.9329833984375
13.569999900000001,7.33583402633667,-3.272873640060425,-5.810727596282959,7.232666015625,-116.76025390625,143.7530517578125
13.5899999,6.718130111694336,-3.4380736351013184,-6.387730121612549,14.190673828125,-121.734619140625,181.9305419921875
13.6099999,6.069301128387451,-3.801992416381836,-7.1490864753723145,12.2833251953125,-127.6092529296875,168.7774658203125
13.629999900000001,5.497087001800537,-4.481945514678955,-7.989450931549072,-2.9754638671875,-107.5286865234375,106.4453125
13.649999900000001,5.092466831207275,-5.339069843292236,-8.848969459533691,-20.5078125,-88.958740234375,75.1800537109375
13.6699999,4.809951305389404,-6.110002517700195,-9.62947940826416,-22.8424072265625,-86.8988037109375,81.6650390625
13.6899999,4.618414878845215,-6.8043212890625,-10.338163375854492,-2.2735595703125,-69.2138671875,68.1915283203125
13.709999900000001,4.410119533538818,-7.4770917892456055,-11.092336654663086,21.087646484375,-37.8265380859375,18.49365234375
13.729999900000001,4.158728122711182,-8.090007781982422,-11.848904609680176,8.3160400390625,-0.6561279296875,-26.2451171875
13.7499999,3.804386615753174,-8.427590370178223,-12.476184844970703,-15.960693359375,36.9110107421875,-48.797607421875
13.7699999,3.4955344200134277,-8.403648376464844,-12.749124526977539,-17.2882080078125,62.164306640625,-59.87548828125
13.789999900000002,3.2968156337738037,-8.066065788269043,-12.54561710357666,8.4686279296875,84.65576171875,-89.202880859375
13.809999900000001,3.222595453262329,-7.522581577301025,-12.047622680664062,30.181884765625,106.87255859375,-126.6632080078125
13.8299999,3.3710360527038574,-6.856993675231934,-11.21444034576416,0.8392333984375,131.65283203125,-128.1890869140625
13.8499999,3.6391866207122803,-6.074089527130127,-10.230423927307129,-28.80859375,143.524169921875,-119.4305419921875
13.8699999,4.146757125854492,-5.20978307723999,-9.014169692993164,-20.7366943359375,142.9901123046875,-125.7171630859375
13.889999900000001,4.821922302246094,-4.273650169372559,-7.680599212646484,1.8310546875,140.9454345703125,-140.9454345703125
13.9099999,5.5545477867126465,-3.3231520652770996,-6.399701118469238,1.7852783203125,137.75634765625,-154.4647216796875
13.9299999,6.232107162475586,-2.3774423599243164,-5.288791656494141,-26.6876220703125,127.25830078125,-142.76123046875
13.9499999,6.833051681518555,-1.4437036514282227,-4.4077253341674805,-43.853759765625,104.4158935546875,-127.2430419921875
13.969999900000001,7.338228225708008,-0.6248866319656372,-3.7229835987091064,-33.75244140625,83.3892822265625,-134.552001953125
13.9899999,7.735665798187256,0.090979665517807,-3.31118106842041,-8.6669921875,83.92333984375,-152.77099609375
14.0099999,8.04691219329834,0.6703764796257019,-3.045424461364746,-15.07568359375,85.14404296875,-160.736083984375
14.0299999,8.221688270568848,1.1635819673538208,-2.9065608978271484,-24.3377685546875,70.556640625,-150.115966796875
14.049999900000001,8.396465301513672,1.4389152526855469,-2.8179752826690674,-7.5531005859375,61.6302490234375,-153.9306640625
14.069999900000001,8.56884765625,1.50355863571167,-2.7461493015289307,-9.82666015625,46.20361328125,-183.10546875
14.0899999,8.621520042419434,1.4460978507995605,-2.7102363109588623,-42.2821044921875,30.6854248046875,-232.4371337890625
14.1099999,8.611943244934082,1.2880805730819702,-2.626439332962036,-67.718505859375,16.8304443359375,-280.059814453125
14.129999900000001,8.14028549194336,1.5131354331970215,-2.5258827209472656,-63.1103515625,-8.0108642578125,-345.88623046875
14.149999900000001,7.036558628082275,2.6862943172454834,-2.4851813316345215,-68.695068359375,-25.93994140625,-355.8502197265625
14.1699999,5.810727596282959,4.288015365600586,-2.470816135406494,-59.26513671875,-25.20751953125,-229.6142578125
14.1899999,4.333505153656006,6.265625953674316,-2.6671407222747803,-42.3431396484375,-13.763427734375,-131.195068359375
14.209999900000001,3.3039982318878174,7.922413349151611,-2.999934673309326,-28.961181640625,-11.4288330078125,-121.978759765625
14.229999900000001,2.695871114730835,8.860940933227539,-3.359065055847168,-11.29150390625,-4.913330078125,-121.429443359375
14.2499999,2.3965959548950195,9.244012832641602,-3.7229835987091064,-9.857177734375,-2.716064453125,-98.08349609375
14.2699999,2.231395959854126,9.346963882446289,-3.9863457679748535,-16.9677734375,-2.62451171875,-63.9495849609375
14.289999900000002,2.032677173614502,9.481039047241211,-4.0533833503723145,-24.6124267578125,0.213623046875,-41.6259765625
14.309999900000001,1.7477672100067139,9.696516990661621,-3.907337188720703,-17.852783203125,5.767822265625,-20.8587646484375
14.3299999,1.3862427473068237,10.096348762512207,-3.5697548389434814,-6.805419921875,13.2904052734375,7.9345703125
14.3499999,1.0342950820922852,10.589553833007812,-3.0885202884674072,-9.94873046875,13.092041015625,45.562744140625
14.3699999,0.9193734526634216,10.888829231262207,-2.499546527862549,-18.157958984375,6.4849853515625,82.1685791015625
14.389999900000001,1.1276689767837524,10.931924819946289,-1.9369091987609863,-20.8587646484375,-14.9383544921875,95.306396484375
14.4099999,1.6496049165725708,10.690110206604004,-1.4987702369689941,-4.3182373046875,-27.5421142578125,88.37890625
14.4299999,2.2864625453948975,10.27591323852539,-1.290474772453308,25.787353515625,-11.0321044921875,89.9810791015625
14.4499999,2.935291290283203,9.713275909423828,-1.3311761617660522,34.1949462890625,-8.636474609375,116.7144775390625
14.469999900000001,3.529053211212158,9.117119789123535,-1.5682021379470825,12.8326416015625,-31.1737060546875,141.632080078125
14.4899999,4.055777549743652,8.47547435760498,-1.9057846069335938,18.5546875,-39.4439697265625,143.2647705078125
14.5099999,4.568136692047119,7.908048152923584,-2.298433542251587,61.82861328125,-15.1824951171875,145.3399658203125
14.5299999,4.910507678985596,7.395689010620117,-2.626439332962036,79.77294921875,-1.77001953125,174.9114990234375
14.549999900000001,5.322310447692871,6.552929878234863,-2.9496564865112305,86.090087890625,-12.939453125,219.696044921875
14.569999900000001,5.705382823944092,5.542576789855957,-3.3470940589904785,75.86669921875,-23.3612060546875,189.51416015625
14.5899999,6.179434776306152,4.357447147369385,-3.6966474056243896,26.5655517578125,-20.7672119140625,131.072998046875
14.6099999,6.6391215324401855,3.4524388313293457,-4.094084739685059,7.0648193359375,-27.069091796875,132.2784423828125
14.629999900000001,6.921637058258057,2.9520506858825684,-4.333505153656006,30.3192138671875,-32.7606201171875,162.2467041015625
14.649999900000001,7.180211067199707,2.580949544906616,-4.4508209228515625,73.455810546875,-27.16064453125,170.1812744140625
14.6699999,7.3454108238220215,2.1930887699127197,-4.4939165115356445,81.2835693359375,-10.894775390625,137.603759765625
14.6899999,7.572859764099121,1.6663644313812256,-4.455609321594238,51.055908203125,-5.2947998046875,118.927001953125
14.709999900000001,7.726089000701904,1.194706678390503,-4.438849925994873,42.144775390625,-26.6265869140625,141.5863037109375
14.729999900000001,7.85537576675415,0.6871358752250671,-4.335899353027344,59.75341796875,-39.5965576171875,175.079345703125
14.7499999,7.955932140350342,-0.035913024097681046,-4.350264549255371,77.0111083984375,-38.6199951171875,177.398681640625
14.7699999,8.101978302001953,-0.9744400978088379,-4.496310710906982,54.62646484375,-39.4439697265625,133.1787109375
14.789999900000002,8.245630264282227,-1.944091796875,-4.692635536193848,4.7454833984375,-43.2891845703125,102.8594970703125
14.809999900000001,8.334216117858887,-2.5234885215759277,-4.819528102874756,-19.5770263671875,-67.230224609375,109.43603515625
14.8299999,8.248024940490723,-2.5522189140319824,-4.757278919219971,-12.9852294921875,-86.3189697265625,131.4544677734375
14.8499999,8.032546997070312,-2.43011474609375,-4.594472885131836,9.9334716796875,-92.1630859375,164.764404296875
14.8699999,7.726089000701904,-2.47560453414917,-4.611232280731201,24.5513916015625,-99.8687744140625,180.938720703125
14.889999900000001,7.352593421936035,-2.8778305053710938,-4.879383087158203,2.3040771484375,-106.1248779296875,166.32080078125
14.9099999,6.955155849456787,-3.509899616241455,-5.386953830718994,-35.3546142578125,-114.9139404296875,156.585693359375
14.9299999,6.45476770401001,-4.084507942199707,-5.9735331535339355,-45.95947265625,-123.1231689453125,168.9605712890625
14.9499999,5.92325496673584,-4.4939165115356445,-6.469132900238037,-18.5394287109375,-116.241455078125,178.985595703125
14.969999900000001,5.310339450836182,-4.886565685272217,-6.936002254486084,27.618408203125,-100.0518798828125,159.2864990234375
14.9899999,4.663905143737793,-5.406107425689697,-7.4986395835876465,57.0068359375,-87.371826171875,116.0430908203125
15.0099999,4.07014274597168,-6.244078159332275,-8.250418663024902,51.8341064453125,-71.3653564453125,78.033447265625
15.0299999,3.5170822143554688,-7.297526836395264,-9.208099365234375,25.360107421875,-53.3294677734375,47.943115234375
15.049999900000001,3.0597896575927734,-8.374917984008789,-10.20887565612793,4.2877197265625,-31.524658203125,14.6484375
15.069999900000001,2.7222073078155518,-9.30386734008789,-11.037269592285156,-6.256103515625,0.79345703125,-18.890380859375
15.0899999,2.4803929328918457,-9.907206535339355,-11.587936401367188,-8.1634521484375,32.4554443359375,-50.4608154296875
15.1099999,2.3965959548950195,-10.15141487121582,-11.81059741973877,-13.4735107421875,58.2122802734375,-83.0078125
15.129999900000001,2.3965959548950195,-9.945513725280762,-11.63342571258545,-27.801513671875,83.4197998046875,-119.354248046875
15.149999900000001,2.561795711517334,-9.375694274902344,-11.125855445861816,-32.2265625,106.75048828125,-143.98193359375
15.1699999,2.8395233154296875,-8.49941635131836,-10.369287490844727,-22.979736328125,119.1558837890625,-153.228759765625
15.1899999,3.251325845718384,-7.5201873779296875,-9.509769439697266,-18.8751220703125,130.1422119140625,-169.281005859375
15.209999900000001,3.7181951999664307,-6.449979305267334,-8.643068313598633,-32.3944091796875,144.500732421875,-190.948486328125
15.229999900000001,4.309563159942627,-5.4252610206604,-7.7428483963012695,-48.8433837890625,154.1900634765625,-197.1893310546875
15.2499999,4.896142482757568,-4.381389141082764,-6.854599475860596,-30.7464599609375,155.731201171875,-201.4312744140625
15.2699999,5.521028995513916,-3.361459255218506,-5.963956356048584,-13.8702392578125,146.4080810546875,-210.1898193359375
15.289999900000002,6.1315507888793945,-2.4444799423217773,-5.178658485412598,-22.15576171875,140.13671875,-214.8284912109375
15.309999900000001,6.658275127410889,-1.6424223184585571,-4.546588897705078,-30.5938720703125,139.8468017578125,-218.75
15.3299999,7.134721279144287,-0.9097966551780701,-4.017470359802246,-30.21240234375,133.209228515625,-215.728759765625
15.3499999,7.5201873779296875,-0.24660277366638184,-3.509899616241455,-25.69580078125,122.74169921875,-208.709716796875
15.3699999,7.857769966125488,0.3711012601852417,-2.9759926795959473,-27.8167724609375,111.175537109375,-209.9151611328125
15.389999900000001,8.027758598327637,1.0534487962722778,-2.410961151123047,-34.11865234375,98.297119140625,-221.25244140625
15.4099999,8.099584579467773,1.7381904125213623,-1.8555063009262085,-26.123046875,92.926025390625,-219.3603515625
15.4299999,7.979874134063721,2.499546527862549,-1.357512354850769,-5.6610107421875,87.1124267578125,-227.0355224609375
15.4499999,7.790732383728027,3.2968156337738037,-0.9457096457481384,-4.3487548828125,66.253662109375,-241.424560546875
15.469999900000001,7.41484260559082,4.163516521453857,-0.7230489253997803,-13.9312744140625,41.6717529296875,-239.7613525390625
15.4899999,7.0317702293396,5.018246650695801,-0.6224924325942993,-26.9622802734375,23.13232421875,-206.9244384765625
15.5099999,6.603208065032959,5.7987565994262695,-0.6129156351089478,-27.4658203125,10.8795166015625,-177.764892578125
15.5299999,6.1985883712768555,6.493074893951416,-0.6991068720817566,-19.6533203125,-3.5247802734375,-174.3316650390625
15.549999900000001,5.872976779937744,6.97430944442749,-0.7948749661445618,-23.6968994140625,-19.5159912109375,-161.895751953125
15.569999900000001,5.525817394256592,7.359776020050049,-0.9145850539207458,-28.2745361328125,-27.6641845703125,-137.1002197265625
15.5899999,5.080495834350586,7.728483200073242,-1.0414776802062988,-30.82275390625,-39.093017578125,-120.91064453125
15.6099999,4.592078685760498,8.039729118347168,-1.1875240802764893,-25.390625,-45.8526611328125,-107.4371337890625
15.629999900000001,3.993528366088867,8.418013572692871,-1.3766659498214722,-24.505615234375,-46.7376708984375,-97.8240966796875
15.649999900000001,3.3518824577331543,8.810662269592285,-1.577778935432434,-30.8074951171875,-40.8782958984375,-76.2176513671875
15.6699999,2.607285737991333,9.313444137573242,-1.7597382068634033,-30.487060546875,-33.4930419921875,-49.407958984375
15.6899999,2.0159177780151367,9.911994934082031,-1.8626888990402222,-23.98681640625,-38.848876953125,-26.214599609375
15.709999900000001,1.1994950771331787,10.474632263183594,-1.7884687185287476,-21.636962890625,-21.5301513671875,-28.13720703125
15.729999900000001,0.8188169598579407,11.05402946472168,-1.6543933153152466,-15.93017578125,-21.636962890625,9.002685546875
15.7499999,0.4141969084739685,11.458649635314941,-1.338358759880066,-32.77587890625,-30.4107666015625,38.0401611328125
15.7699999,0.40462008118629456,11.626243591308594,-0.9768342971801758,-31.6314697265625,-49.2401123046875,57.2967529296875
15.789999900000002,0.5051765441894531,11.693281173706055,-0.6607996821403503,-5.6610107421875,-43.64013671875,54.74853515625
15.809999900000001,0.7134721279144287,11.616666793823242,-0.4812345504760742,21.4080810546875,-8.0718994140625,55.908203125
15.8299999,1.0007762908935547,11.525687217712402,-0.4572925269603729,19.073486328125,2.38037109375,90.1031494140625
15.8499999,1.3742717504501343,11.343728065490723,-0.45250412821769714,9.0484619140625,-37.17041015625,148.7884521484375
15.869999900000002,2.0015525817871094,10.869675636291504,-0.38546648621559143,16.021728515625,-78.0181884765625,200.3173828125
15.889999900000001,2.9281086921691895,9.8784761428833,-0.304063618183136,33.4014892578125,-91.30859375,206.1767578125
15.9099999,4.039018154144287,8.56884765625,-0.363918662071228,27.9083251953125,-107.421875,171.69189453125
15.9299999,5.240907669067383,7.1706342697143555,-0.6033388376235962,1.89208984375,-112.3809814453125,154.3121337890625
15.9499999,6.2847795486450195,6.045359134674072,-1.0271124839782715,-0.762939453125,-127.838134765625,156.2042236328125
15.969999900000001,7.000645637512207,5.372588634490967,-1.4915876388549805,6.34765625,-154.693603515625,164.36767578125
15.9899999,7.3693528175354,5.04218864440918,-1.9153614044189453,5.035400390625,-168.8232421875,169.2657470703125
16.0099999,7.41484260559082,4.8602294921875,-2.346317768096924,0.701904296875,-174.25537109375,167.8619384765625
16.0299999,7.242460250854492,4.668693542480469,-2.8371291160583496,1.2969970703125,-182.8765869140625,159.24072265625
16.0499999,6.971915245056152,4.364629745483398,-3.359065055847168,-4.57763671875,-189.6820068359375,154.1748046875
16.0699999,6.6630635261535645,4.000710964202881,-3.952826976776123,-18.0511474609375,-199.9664306640625,153.594970703125
16.089999900000002,6.315904140472412,3.6128504276275635,-4.534617900848389,-37.3687744140625,-219.329833984375,158.203125
16.109999900000002,5.978321552276611,3.313575267791748,-5.070919036865234,-51.7120361328125,-239.5172119140625,167.510986328125
16.1299999,5.525817394256592,3.0765492916107178,-5.5976433753967285,-41.290283203125,-250.762939453125,168.9605712890625
16.1499999,4.963180065155029,2.940079689025879,-6.189011573791504,-32.53173828125,-254.638671875,169.891357421875
16.1699999,4.307168960571289,2.8562827110290527,-6.8378400802612305,-50.384521484375,-258.0413818359375,180.4046630859375
16.1899999,3.641580820083618,2.7916390895843506,-7.474697589874268,-55.4351806640625,-250.2593994140625,187.2406005859375
16.2099999,2.935291290283203,2.719813108444214,-8.142680168151855,-5.8441162109375,-227.3101806640625,165.802001953125
16.2299999,2.274491548538208,2.5785553455352783,-8.789113998413086,22.2320556640625,-211.090087890625,151.3671875
16.249999900000002,1.6496049165725708,2.3319525718688965,-9.39245319366455,3.509521484375,-195.0225830078125,153.564453125
16.269999900000002,1.0630255937576294,1.9800047874450684,-9.976638793945312,2.6702880859375,-170.22705078125,134.5367431640625
16.2899999,0.507570743560791,1.556231141090393,-10.527304649353027,16.937255859375,-149.0325927734375,100.0823974609375
16.3099999,-0.07422025501728058,1.0630255937576294,-11.02051067352295,25.2838134765625,-126.6021728515625,81.3446044921875
16.3299999,-0.6847416758537292,0.4118026793003082,-11.6430025100708,25.2838134765625,-107.36083984375,81.329345703125
16.3499999,-1.3862427473068237,-0.35913026332855225,-12.469002723693848,18.5699462890625,-76.9500732421875,46.5850830078125
16.3699999,-1.987187385559082,-1.1899182796478271,-13.366827964782715,-5.859375,-27.34375,-2.0904541015625
16.3899999,-2.3702597618103027,-1.889025092124939,-14.085088729858398,-38.75732421875,28.045654296875,-37.445068359375
16.4099999,-2.477998733520508,-2.2912509441375732,-14.451401710510254,-46.783447265625,66.009521484375,-72.0977783203125
16.429999900000002,-2.27209734916687,-2.3319525718688965,-14.302961349487305,-41.50390625,96.710205078125,-107.8948974609375
16.4499999,-1.8746598958969116,-2.054224967956543,-13.769054412841797,-33.5845947265625,131.591796875,-142.8070068359375
16.4699999,-1.3862427473068237,-1.5131354331970215,-13.055582046508789,-30.1666259765625,164.825439453125,-162.7655029296875
16.4899999,-0.8738836050033569,-0.7709329724311829,-12.224793434143066,-44.00634765625,188.7054443359375,-162.4908447265625
16.5099999,-0.33997663855552673,0.11252748221158981,-11.322179794311523,-49.0570068359375,204.345703125,-154.5867919921875
16.5299999,0.2346317619085312,1.0031704902648926,-10.426748275756836,-14.6484375,220.7183837890625,-161.6363525390625
16.5499999,0.8307880163192749,1.8171991109848022,-9.536105155944824,17.7459716796875,240.6005859375,-182.647705078125
16.5699999,1.4317326545715332,2.499546527862549,-8.7268648147583,15.0909423828125,248.9166259765625,-191.9403076171875
16.589999900000002,1.9823989868164062,3.1076738834381104,-8.010998725891113,2.3040771484375,243.9117431640625,-191.1163330078125
16.609999900000002,2.4420857429504395,3.6774938106536865,-7.331045627593994,10.1165771484375,237.5946044921875,-190.216064453125
16.6299999,2.87064790725708,4.24970817565918,-6.672640323638916,27.77099609375,232.666015625,-184.326171875
16.6499999,3.2848446369171143,4.750096321105957,-6.035782337188721,27.374267578125,216.3238525390625,-173.065185546875
16.6699999,3.711012601852417,5.099649429321289,-5.494692802429199,38.7420654296875,207.58056640625,-183.807373046875
16.6899999,4.0964789390563965,5.348646640777588,-5.094861030578613,55.999755859375,208.282470703125,-207.1075439453125
16.7099999,4.400542736053467,5.453991413116455,-4.8051629066467285,52.06298828125,205.87158203125,-214.84375
16.7299999,4.584896087646484,5.633556365966797,-4.592078685760498,37.109375,194.0460205078125,-214.0960693359375
16.749999900000002,4.563348293304443,5.904101371765137,-4.398148536682129,40.8477783203125,190.1397705078125,-219.8028564453125
16.769999900000002,4.41969633102417,6.308721542358398,-4.168305397033691,55.1910400390625,199.89013671875,-219.0704345703125
16.7899999,4.144362926483154,6.854599475860596,-3.9025487899780273,48.858642578125,195.0836181640625,-215.02685546875
16.8099999,3.7205893993377686,7.457938194274902,-3.60566782951355,31.6925048828125,181.060791015625,-212.6007080078125
16.8299999,3.2824504375457764,8.11634349822998,-3.2824504375457764,21.7742919921875,156.2042236328125,-188.2781982421875
16.8499999,2.8227639198303223,8.78432559967041,-2.896984100341797,10.589599609375,127.777099609375,-151.9622802734375
16.8699999,2.4875755310058594,9.464279174804688,-2.4372973442077637,-5.3863525390625,98.4954833984375,-107.4371337890625
16.8899999,2.274491548538208,10.192116737365723,-1.867477297782898,-18.37158203125,71.7620849609375,-72.113037109375
16.9099999,2.231395959854126,10.94150161743164,-1.1971008777618408,-26.7181396484375,43.02978515625,-36.895751953125
16.929999900000002,2.3535003662109375,11.623848915100098,-0.47405192255973816,-34.698486328125,0.6866455078125,11.1236572265625
16.9499999,2.5977089405059814,12.1194486618042,0.17238251864910126,-48.126220703125,-49.1943359375,65.5670166015625
16.9699999,3.002328872680664,12.294225692749023,0.6224924325942993,-66.2384033203125,-93.6431884765625,121.3531494140625
16.9899999,3.5266590118408203,12.052411079406738,0.7876923680305481,-70.2667236328125,-122.9400634765625,166.9921875
17.0099999,4.106055736541748,11.396400451660156,0.6488286852836609,-59.7076416015625,-148.529052734375,193.5882568359375
17.0299999,4.642356872558594,10.417171478271484,0.2322375625371933,-51.055908203125,-177.337646484375,203.4759521484375
17.0499999,5.044582843780518,9.255983352661133,-0.3902548849582672,-51.4984130859375,-208.3892822265625,205.1849365234375
17.0699999,5.231330871582031,8.121131896972656,-1.1563993692398071,-47.607421875,-221.3134765625,195.1446533203125
17.089999900000002,5.22175407409668,7.182605266571045,-2.0015525817871094,-37.3992919921875,-217.926025390625,180.6488037109375
17.109999900000002,5.073313236236572,6.521805286407471,-2.9065608978271484,-33.599853515625,-208.19091796875,177.398681640625
17.1299999,4.896142482757568,6.052541732788086,-3.7612907886505127,-40.58837890625,-197.57080078125,185.7147216796875
17.1499999,4.821922302246094,5.681440830230713,-4.4939165115356445,-49.1943359375,-187.164306640625,188.629150390625
17.1699999,4.881777286529541,5.307945251464844,-5.035006046295166,-46.93603515625,-188.3697509765625,171.4324951171875
17.1899999,5.049371242523193,4.934449672698975,-5.374982833862305,-42.022705078125,-197.296142578125,150.390625
17.2099999,5.1810526847839355,4.627991676330566,-5.57370138168335,-50.47607421875,-204.6356201171875,138.61083984375
17.2299999,5.193023681640625,4.458003520965576,-5.698200225830078,-73.394775390625,-214.324951171875,138.6260986328125
17.249999900000002,5.085284233093262,4.4292731285095215,-5.791574001312256,-89.385986328125,-228.8360595703125,146.240234375
17.269999900000002,4.841075897216797,4.477157115936279,-5.913678169250488,-80.4901123046875,-241.0736083984375,146.2249755859375
17.2899999,4.522646903991699,4.534617900848389,-6.114790916442871,-70.098876953125,-249.5574951171875,141.0369873046875
17.3099999,4.086902141571045,4.5394062995910645,-6.464344501495361,-57.5714111328125,-245.5596923828125,130.3558349609375
17.3299999,3.557783842086792,4.49870491027832,-6.97430944442749,-38.360595703125,-229.43115234375,115.6158447265625
17.3499999,2.964021682739258,4.405331134796143,-7.565677165985107,-22.39990234375,-215.88134765625,103.424072265625
17.3699999,2.363077163696289,4.266467571258545,-8.128314971923828,-8.758544921875,-202.880859375,90.8660888671875
17.3899999,1.7094600200653076,4.108449935913086,-8.710105895996094,8.6822509765625,-186.431884765625,80.56640625
17.409999900000003,1.0654197931289673,3.892971992492676,-9.277531623840332,25.360107421875,-159.97314453125,78.2318115234375
17.429999900000002,0.42377370595932007,3.60566782951355,-9.852140426635742,26.275634765625,-139.5721435546875,76.35498046875
17.4499999,-0.14604631066322327,3.2345664501190186,-10.44350814819336,26.3519287109375,-122.49755859375,62.5
17.4699999,-0.608127236366272,2.741360902786255,-11.008539199829102,31.8756103515625,-99.6246337890625,44.0521240234375
17.4899999,-0.9576807022094727,2.0207061767578125,-11.592724800109863,31.005859375,-69.1375732421875,22.308349609375
17.5099999,-1.235408067703247,1.2521674633026123,-12.30859088897705,25.6500244140625,-24.0631103515625,-14.58740234375
17.5299999,-1.400607943534851,0.5506663918495178,-12.931083679199219,0.0152587890625,38.726806640625,-51.6510009765625
17.5499999,-1.4053963422775269,0.12689268589019775,-13.342885971069336,-14.251708984375,92.681884765625,-81.787109375
17.5699999,-1.2066776752471924,0.05506663769483566,-13.33809757232666,-3.1280517578125,125.30517578125,-101.654052734375
17.589999900000002,-0.871489405632019,0.26336219906806946,-12.9741792678833,12.0391845703125,152.8778076171875,-123.138427734375
17.609999900000002,-0.4668693244457245,0.6488286852836609,-12.416330337524414,15.0909423828125,185.8673095703125,-149.2919921875
17.6299999,-0.08379705995321274,1.1252747774124146,-11.805809020996094,7.6446533203125,219.085693359375,-161.712646484375
17.6499999,0.26815059781074524,1.6759412288665771,-11.17852783203125,16.8609619140625,247.955322265625,-171.9512939453125
17.6699999,0.6153098344802856,2.2864625453948975,-10.462661743164062,24.932861328125,264.5263671875,-178.22265625
17.6899999,1.0007762908935547,2.875436305999756,-9.674968719482422,20.93505859375,265.2435302734375,-180.35888671875
17.7099999,1.3766659498214722,3.4548330307006836,-8.834604263305664,11.5814208984375,261.2457275390625,-182.9071044921875
17.7299999,1.7956513166427612,3.995922565460205,-8.006210327148438,8.85009765625,261.65771484375,-178.3905029296875
17.749999900000002,2.2002713680267334,4.491522312164307,-7.252037048339844,24.35302734375,261.7340087890625,-178.8177490234375
17.769999900000002,2.6360161304473877,4.9152960777282715,-6.572083473205566,35.369873046875,262.6800537109375,-192.840576171875
17.7899999,3.071760892868042,5.200206279754639,-6.026205539703369,39.703369140625,263.0615234375,-211.7462158203125
17.8099999,3.380612850189209,5.418078422546387,-5.590460777282715,45.59326171875,268.7225341796875,-237.3809814453125
17.8299999,3.5458126068115234,5.621585369110107,-5.264849662780762,49.2706298828125,274.627685546875,-247.7264404296875
17.8499999,3.529053211212158,5.837063789367676,-4.953603267669678,38.116455078125,282.012939453125,-245.086669921875
17.8699999,3.421314239501953,6.174646377563477,-4.592078685760498,8.819580078125,279.083251953125,-238.0523681640625
17.8899999,3.2417490482330322,6.550535678863525,-4.127603530883789,-7.110595703125,272.4456787109375,-239.9139404296875
17.909999900000003,2.9975404739379883,7.094019412994385,-3.5410242080688477,-11.016845703125,267.27294921875,-240.3106689453125
17.929999900000002,2.6144683361053467,7.824251174926758,-2.7293899059295654,-29.8614501953125,255.55419921875,-212.1734619140625
17.9499999,2.2577321529388428,8.829815864562988,-1.680729627609253,-58.807373046875,203.9337158203125,-149.9481201171875
17.9699999,1.9057846069335938,9.904812812805176,-0.4165911078453064,-56.0302734375,143.2952880859375,-96.221923828125
17.9899999,1.8483237028121948,10.99896240234375,0.9648633003234863,-41.07666015625,73.1658935546875,-30.2276611328125
18.0099999,2.051830768585205,11.829751014709473,2.2601263523101807,-38.818359375,10.3912353515625,26.9012451171875
18.0299999,2.456450939178467,12.289437294006348,3.205836057662964,-28.3660888671875,-30.21240234375,59.75341796875
18.0499999,2.9688100814819336,12.392388343811035,3.708618402481079,-3.4332275390625,-62.164306640625,76.416015625
18.0699999,3.4620156288146973,12.167332649230957,3.780444383621216,3.90625,-87.2039794921875,90.5609130859375
18.089999900000002,3.8762125968933105,11.75792407989502,3.428496837615967,5.0048828125,-124.1302490234375,137.4664306640625
18.109999900000002,4.218583583831787,11.202469825744629,2.849100112915039,-0.213623046875,-170.0439453125,170.135498046875
18.1299999,4.469974517822266,10.541669845581055,2.094926595687866,2.7008056640625,-189.6820068359375,185.24169921875
18.1499999,4.661510944366455,9.744400978088379,1.237802267074585,18.3258056640625,-195.73974609375,186.2335205078125
18.1699999,4.788403511047363,8.834604263305664,0.3064578175544739,24.9786376953125,-186.0198974609375,179.2144775390625
18.1899999,4.900930881500244,7.879317760467529,-0.6751648783683777,23.3917236328125,-174.835205078125,173.27880859375
18.2099999,5.082890033721924,6.97430944442749,-1.6519991159439087,20.1568603515625,-165.2679443359375,158.050537109375
18.2299999,5.303156852722168,6.162675380706787,-2.5474305152893066,16.2353515625,-158.050537109375,147.430419921875
18.249999900000002,5.5976433753967285,5.4875102043151855,-3.3303346633911133,19.9432373046875,-167.510986328125,144.4854736328125
18.269999900000002,5.880159378051758,4.922478675842285,-3.9671921730041504,16.326904296875,-173.980712890625,134.0179443359375
18.2899999,6.117185115814209,4.474762916564941,-4.462791919708252,3.6773681640625,-175.2166748046875,121.9024658203125
18.3099999,6.289567947387695,4.122815132141113,-4.831499099731445,-8.23974609375,-182.1441650390625,114.6087646484375
18.3299999,6.399701118469238,3.794809579849243,-5.128379821777344,-14.83154296875,-196.3348388671875,112.396240234375
18.3499999,6.428431510925293,3.426102638244629,-5.415684223175049,-25.8331298828125,-218.2769775390625,106.0638427734375
18.3699999,6.368576526641846,3.023876667022705,-5.762843608856201,-45.5474853515625,-229.4464111328125,86.395263671875
18.3899999,6.179434776306152,2.6599581241607666,-6.155492782592773,-68.7713623046875,-232.391357421875,60.333251953125
18.409999900000003,5.8657941818237305,2.4133553504943848,-6.514622688293457,-87.9058837890625,-233.7188720703125,38.818359375
18.429999900000002,5.432443618774414,2.3750481605529785,-6.785167694091797,-85.723876953125,-231.292724609375,10.009765625
18.4499999,4.910507678985596,2.5306711196899414,-6.936002254486084,-73.638916015625,-233.5662841796875,-25.5584716796875
18.4699999,4.369418144226074,2.9017724990844727,-6.98628044128418,-83.0230712890625,-235.0616455078125,-45.0897216796875
18.4899999,3.7421371936798096,3.404554843902588,-7.029376029968262,-80.8563232421875,-215.6524658203125,-44.1741943359375
18.5099999,2.911349296569824,3.950432777404785,-7.196970462799072,-22.4761962890625,-181.1981201171875,-65.5670166015625
18.5299999,1.7381904125213623,4.417302131652832,-7.582436561584473,43.1060791015625,-139.4500732421875,-97.381591796875
18.5499999,0.2944868206977844,4.7836151123046875,-8.216899871826172,47.119140625,-102.3406982421875,-97.7325439453125
18.5699999,-1.292868971824646,5.0014872550964355,-8.935160636901855,22.491455078125,-73.6541748046875,-82.0465087890625
18.589999900000002,-2.7437551021575928,5.169081687927246,-9.5408935546875,24.47509765625,-43.5638427734375,-74.127197265625
18.609999900000002,-3.7876269817352295,5.298368453979492,-9.821015357971191,27.7862548828125,-46.0662841796875,-56.0302734375
18.6299999,-4.486733913421631,5.396530628204346,-9.75397777557373,16.4947509765625,-39.825439453125,-38.14697265625
18.6499999,-4.876988887786865,5.506663799285889,-9.485827445983887,16.082763671875,-31.951904296875,-24.90234375
18.6699999,-5.066130638122559,5.633556365966797,-9.114726066589355,14.312744140625,-39.61181640625,-15.716552734375
18.6899999,-5.054159641265869,5.762843608856201,-8.810662269592285,18.6004638671875,-36.4227294921875,-1.5869140625
18.7099999,-4.8051629066467285,5.805939197540283,-8.583212852478027,23.345947265625,-28.50341796875,19.2413330078125
18.7299999,-4.357447147369385,5.700594425201416,-8.489839553833008,24.9481201171875,-36.865234375,41.0003662109375
18.749999900000002,-3.8953661918640137,5.449203014373779,-8.633491516113281,29.632568359375,-48.8128662109375,66.497802734375
18.769999900000002,-3.5051112174987793,5.023035049438477,-8.951920509338379,29.72412109375,-39.00146484375,98.20556640625
18.7899999,-3.2345664501190186,4.333505153656006,-9.452308654785156,24.566650390625,-15.3961181640625,112.8692626953125
18.8099999,-2.9688100814819336,3.581725835800171,-10.072406768798828,20.2789306640625,6.5765380859375,89.35546875
18.8299999,-2.628833532333374,2.765302896499634,-10.60391902923584,9.9334716796875,39.8712158203125,54.2755126953125
18.8499999,-2.1954829692840576,2.1739351749420166,-11.051634788513184,14.5263671875,86.029052734375,29.449462890625
18.8699999,-1.7142484188079834,1.8052281141281128,-11.33654499053955,18.4478759765625,120.2392578125,16.4947509765625
18.8899999,-1.1899182796478271,1.6304513216018677,-11.410765647888184,7.4462890625,137.5579833984375,6.5765380859375
18.909999900000003,-0.6033388376235962,1.6352397203445435,-11.243170738220215,-11.90185546875,149.0325927734375,-8.7127685546875
18.929999900000002,0.05746084079146385,1.824381709098816,-10.843339920043945,-23.162841796875,163.0706787109375,-25.604248046875
18.9499999,0.768538773059845,2.2242133617401123,-10.180145263671875,-22.8424072265625,175.4150390625,-21.3623046875
18.9699999,1.4628572463989258,2.779668092727661,-9.404424667358398,-6.7138671875,185.1654052734375,-15.4266357421875
18.9899999,2.185906171798706,3.270479440689087,-8.69095230102539,19.775390625,190.3533935546875,-9.3231201171875
19.0099999,2.9879636764526367,3.5027170181274414,-8.037335395812988,13.885498046875,178.03955078125,-10.1318359375
19.0299999,3.861847400665283,3.6152446269989014,-7.568071365356445,6.0577392578125,161.3922119140625,-24.993896484375
19.0499999,4.754884719848633,3.6391866207122803,-7.184999465942383,13.0767822265625,143.0206298828125,-48.9959716796875
19.0699999,5.473145008087158,3.6750996112823486,-6.892906665802002,48.7060546875,161.1175537109375,-74.1729736328125
19.089999900000002,5.896918773651123,3.7181951999664307,-6.742072105407715,72.3114013671875,199.462890625,-108.5205078125
19.109999900000002,5.971138954162598,3.6966474056243896,-6.75883150100708,71.3348388671875,207.03125,-144.195556640625
19.1299999,5.772420406341553,3.7014358043670654,-6.828263282775879,60.6842041015625,208.526611328125,-173.1109619140625
19.1499999,5.458779811859131,3.687070608139038,-6.871358871459961,60.5010986328125,207.275390625,-185.272216796875
19.1699999,5.099649429321289,3.861847400665283,-6.847416877746582,59.844970703125,182.7545166015625,-197.235107421875
19.1899999,4.716577529907227,4.153939723968506,-6.7492547035217285,67.9779052734375,172.05810546875,-221.8017578125
19.2099999,4.3861775398254395,4.520252704620361,-6.646304130554199,74.0814208984375,174.01123046875,-233.8104248046875
19.2299999,4.151545524597168,4.900930881500244,-6.538564682006836,68.6492919921875,158.87451171875,-222.2137451171875
19.249999900000002,3.9695863723754883,5.250484466552734,-6.481103897094727,86.24267578125,145.2484130859375,-227.35595703125
19.269999900000002,3.794809579849243,5.568912982940674,-6.473921298980713,93.719482421875,151.611328125,-240.509033203125
19.2899999,3.60566782951355,5.872976779937744,-6.48828649520874,50.201416015625,142.364501953125,-207.1990966796875
19.3099999,3.3303346633911133,6.160281181335449,-6.497863292694092,30.1666259765625,139.4195556640625,-173.8128662109375
19.3299999,3.0789434909820557,6.562506675720215,-6.382941722869873,17.8375244140625,130.1422119140625,-152.3590087890625
19.3499999,2.9305028915405273,6.995857238769531,-6.026205539703369,-9.33837890625,93.4600830078125,-110.6109619140625
19.3699999,2.913743495941162,7.539340972900391,-5.413290023803711,-39.61181640625,50.1251220703125,-60.211181640625
19.3899999,3.00711727142334,8.267178535461426,-4.572925090789795,-45.257568359375,13.7481689453125,-18.6767578125
19.409999900000003,3.141192674636841,9.004592895507812,-3.5649664402008057,-57.525634765625,-25.482177734375,24.2767333984375
19.429999900000002,3.2561142444610596,9.679757118225098,-2.6024973392486572,-57.92236328125,-57.6934814453125,64.971923828125
19.4499999,3.3423056602478027,10.122684478759766,-1.821987509727478,-66.162109375,-96.923828125,102.752685546875
19.4699999,3.4141316413879395,10.218452453613281,-1.3479355573654175,-83.3740234375,-145.6146240234375,135.711669921875
19.4899999,3.576937437057495,9.926360130310059,-1.2641384601593018,-76.5380859375,-167.41943359375,156.768798828125
19.5099999,3.758896589279175,9.351752281188965,-1.6328455209732056,-22.2930908203125,-166.8853759765625,133.3770751953125
19.5299999,3.931279182434082,8.611943244934082,-2.3271639347076416,-0.732421875,-149.4598388671875,103.08837890625
19.5499999,4.034229755401611,7.881711959838867,-3.1962592601776123,-25.93994140625,-149.2919921875,112.12158203125
19.5699999,4.086902141571045,7.264008045196533,-4.034229755401611,-46.38671875,-176.605224609375,138.671875
19.589999900000002,4.1156325340271,6.773196697235107,-4.656722068786621,-40.4052734375,-197.540283203125,146.3165283203125
19.609999900000002,4.113238334655762,6.421248912811279,-5.078101634979248,-27.374267578125,-200.775146484375,131.6680908203125
19.6299999,4.046200752258301,6.174646377563477,-5.410895824432373,-18.646240234375,-196.746826171875,123.9776611328125
19.6499999,3.825934410095215,6.01423454284668,-5.719748020172119,-20.599365234375,-201.751708984375,127.1209716796875
19.6699999,3.49314022064209,5.942408561706543,-6.054935932159424,-25.5584716796875,-209.1522216796875,133.48388671875
19.6899999,3.117250680923462,5.868188381195068,-6.404489517211914,-19.4091796875,-209.197998046875,135.009765625
19.7099999,2.7724854946136475,5.738901615142822,-6.789956092834473,-7.7972412109375,-204.559326171875,125.7171630859375
19.7299999,2.494758129119873,5.542576789855957,-7.2137298583984375,0.640869140625,-192.5811767578125,111.2060546875
19.749999900000002,2.300827741622925,5.286397457122803,-7.623138427734375,5.279541015625,-174.0264892578125,98.0377197265625
19.769999900000002,2.209848165512085,5.037400245666504,-7.996633529663086,3.3721923828125,-161.9873046875,91.7510986328125
19.7899999,2.2026655673980713,4.81473970413208,-8.271966934204102,13.458251953125,-147.39990234375,80.62744140625
19.8099999,2.2385785579681396,4.6255974769592285,-8.398859977722168,30.09033203125,-124.664306640625,58.16650390625
19.8299999,2.2601263523101807,4.481945514678955,-8.429984092712402,27.2216796875,-111.6790771484375,45.6695556640625
19.8499999,2.166752576828003,4.371812343597412,-8.429984092712402,17.6239013671875,-120.819091796875,48.2330322265625
19.8699999,1.9369091987609863,4.278438568115234,-8.487444877624512,16.387939453125,-130.6915283203125,50.018310546875
19.8899999,1.558625340461731,4.175487995147705,-8.707711219787598,28.7017822265625,-120.5291748046875,39.1693115234375
19.909999900000003,1.0821791887283325,4.019864559173584,-9.102754592895508,43.5638427734375,-84.716796875,15.045166015625
19.929999900000002,0.5961562395095825,3.7876269817352295,-9.624691009521484,38.665771484375,-53.0548095703125,4.4403076171875
19.9499999,0.1604115068912506,3.488351821899414,-10.18493366241455,32.1197509765625,-29.3121337890625,0.2593994140625
19.9699999,-0.1364694982767105,3.162740468978882,-10.706870079040527,31.4788818359375,-5.5389404296875,-7.1868896484375
19.9899999,-0.2753331959247589,2.8131868839263916,-11.149797439575195,39.8101806640625,24.10888671875,-18.341064453125
20.0099999,-0.26575639843940735,2.4684219360351562,-11.559206008911133,56.8695068359375,68.4814453125,-39.642333984375
20.0299999,-0.12210428714752197,2.099714994430542,-11.841721534729004,65.91796875,121.673583984375,-68.084716796875
20.0499999,0.090979665517807,1.845929503440857,-11.999738693237305,56.1065673828125,158.6456298828125,-93.048095703125
20.0699999,0.38546648621559143,1.721431016921997,-11.899182319641113,43.243408203125,172.66845703125,-99.5025634765625
20.089999900000002,0.7493851184844971,1.7956513166427612,-11.525687217712402,41.5191650390625,178.4210205078125,-98.419189453125
20.109999900000002,1.1635819673538208,1.9776105880737305,-10.991780281066895,53.8330078125,186.553955078125,-103.94287109375
20.1299999,1.6184803247451782,2.1715409755706787,-10.38844108581543,50.8575439453125,184.08203125,-119.598388671875
20.1499999,2.0470423698425293,2.3487119674682617,-9.856928825378418,25.08544921875,179.9163818359375,-123.53515625
20.1699999,2.4588451385498047,2.4851813316345215,-9.375694274902344,10.3912353515625,183.04443359375,-117.218017578125
20.1899999,2.8419175148010254,2.6886885166168213,-8.904036521911621,6.40869140625,184.1583251953125,-121.0784912109375
20.2099999,3.1651346683502197,2.896984100341797,-8.470685958862305,16.7999267578125,190.97900390625,-132.080078125
20.2299999,3.471592426300049,3.1651346683502197,-7.996633529663086,15.228271484375,196.9757080078125,-135.4217529296875
