# Time (seconds),Accel_X,Accel_Y,Accel_Z,Gyro_X,Gyro_Y,Gyro_Z
0.0099999,1.1109095811843872,0.9169792532920837,-9.751583099365234,0.4730224609375,1.2664794921875,-0.030517578125
0.029999900000000003,1.0869675874710083,0.9528923034667969,-9.742006301879883,2.0599365234375,1.89208984375,3.2196044921875
0.0499999,1.048660397529602,1.0271124839782715,-9.713275909423828,2.8839111328125,0.457763671875,5.0048828125
0.0699999,1.0007762908935547,1.1851298809051514,-9.674968719482422,6.5155029296875,-2.5482177734375,4.8065185546875
0.08999990000000001,0.9145850539207458,1.5059528350830078,-9.586383819580078,15.9912109375,-2.9144287109375,9.552001953125
0.10999990000000001,0.7972691655158997,2.0422539710998535,-9.493009567260742,34.454345703125,-2.3040771484375,22.5982666015625
0.1299999,0.5961562395095825,2.7892448902130127,-9.550470352172852,49.8046875,-7.6141357421875,40.2679443359375
0.14999990000000002,0.3495534360408783,3.603273630142212,-9.636661529541016,47.42431640625,-4.45556640625,56.182861328125
0.1699999,0.11013327538967133,4.213795185089111,-9.840168952941895,2.2125244140625,-10.986328125,70.3582763671875
0.1899999,-0.08619125932455063,4.8051629066467285,-10.405200958251953,-84.5947265625,-42.083740234375,68.0694580078125
0.20999990000000002,-0.1412578970193863,4.824316501617432,-11.54244613647461,-62.0880126953125,-50.018310546875,92.22412109375
0.2299999,-0.009576806798577309,4.455609321594238,-13.259089469909668,23.406982421875,-1.0986328125,113.1134033203125
0.2499999,0.3280056416988373,3.138798475265503,-15.251065254211426,47.5006103515625,58.2275390625,120.330810546875
0.2699999,0.8236053586006165,0.9481038451194763,-16.938976287841797,3.9825439453125,85.4339599609375,107.177734375
0.28999990000000003,1.3670891523361206,-1.5322890281677246,-17.808073043823242,-34.6527099609375,97.3052978515625,65.216064453125
0.3099999,1.8363527059555054,-3.821146011352539,-17.781736373901367,-30.8380126953125,117.7978515625,37.0941162109375
0.3299999,2.121262788772583,-5.252878665924072,-16.907852172851562,-25.177001953125,143.49365234375,29.4342041015625
0.34999990000000003,2.2194249629974365,-5.75326681137085,-15.416264533996582,-24.444580078125,158.6151123046875,18.2647705078125
0.3699999,2.1787235736846924,-5.693411827087402,-13.438653945922852,-21.2860107421875,158.3709716796875,2.044677734375
0.3899999,2.0590133666992188,-5.137956619262695,-11.21204662322998,-22.735595703125,150.93994140625,-26.6571044921875
0.40999990000000003,1.9632453918457031,-4.4939165115356445,-9.124302864074707,-33.2794189453125,134.33837890625,-41.8853759765625
0.4299999,1.9177556037902832,-3.756502389907837,-7.311892032623291,-44.37255859375,122.4365234375,-47.271728515625
0.4499999,1.9632453918457031,-3.026270866394043,-5.95677375793457,-49.4842529296875,112.8082275390625,-62.6983642578125
0.4699999,2.078166961669922,-2.3726539611816406,-4.891354084014893,-47.18017578125,103.3172607421875,-76.7822265625
0.4899999,2.2601263523101807,-1.7860745191574097,-4.0749311447143555,-34.8663330078125,90.4693603515625,-84.4573974609375
0.5099999,2.497152328491211,-1.1540051698684692,-3.4189200401306152,-29.6478271484375,68.0084228515625,-89.29443359375
0.5299999,2.782062292098999,-0.6320692300796509,-2.96162748336792,-27.801513671875,49.4537353515625,-88.2415771484375
0.5499999,3.098097085952759,-0.29209262132644653,-2.63362193107605,-17.852783203125,43.2281494140625,-89.4927978515625
0.5699999,3.3854012489318848,-0.038307227194309235,-2.3750481605529785,-2.62451171875,35.5377197265625,-102.294921875
0.5899998999999999,3.603273630142212,0.23942017555236816,-2.0829553604125977,9.94873046875,17.9595947265625,-112.48779296875
0.6099998999999999,3.732560396194458,0.6823474764823914,-1.7070658206939697,20.233154296875,-0.3662109375,-109.4818115234375
0.6299999,3.756502389907837,1.1635819673538208,-1.3694833517074585,31.7840576171875,-16.082763671875,-101.8829345703125
0.6499999,3.6798880100250244,1.601720929145813,-1.2473790645599365,35.003662109375,-36.8804931640625,-108.856201171875
0.6699999,3.4572272300720215,2.142810583114624,-1.525106430053711,34.8968505859375,-56.57958984375,-126.8310546875
0.6899999,3.1100680828094482,2.784456491470337,-2.099714994430542,47.607421875,-60.4705810546875,-120.6207275390625
0.7099999,2.6216509342193604,3.5960910320281982,-2.8227639198303223,66.9708251953125,-63.507080078125,-95.550537109375
0.7299998999999999,1.9776105880737305,4.529829502105713,-3.4955344200134277,61.8896484375,-87.7532958984375,-85.2508544921875
0.7499998999999999,1.2306196689605713,5.351040840148926,-4.410119533538818,22.2015380859375,-133.3770751953125,-85.540771484375
0.7699999,0.4118026793003082,6.485892295837402,-5.621585369110107,7.2479248046875,-145.416259765625,-84.1064453125
0.7899999,-0.2849099934101105,7.625532627105713,-7.419631004333496,57.8155517578125,-119.232177734375,-39.825439453125
0.8099999,-0.689530074596405,8.523358345031738,-9.090784072875977,122.467041015625,-74.3560791015625,19.6380615234375
0.8299999,-0.7829039692878723,8.810662269592285,-10.292673110961914,92.437744140625,-80.1544189453125,31.646728515625
0.8499998999999999,-0.6224924325942993,8.221688270568848,-10.855310440063477,14.8468017578125,-132.537841796875,24.3072509765625
0.8699998999999999,-0.4165911078453064,7.216124057769775,-10.977415084838867,-14.4805908203125,-156.55517578125,26.4129638671875
0.8899999,-0.2561795711517334,5.992686748504639,-11.597513198852539,39.031982421875,-140.9759521484375,41.3360595703125
0.9099999,-0.15801730751991272,5.03021764755249,-12.193669319152832,98.3734130859375,-79.833984375,39.12353515625
0.9299999,-0.14604631066322327,4.2090067863464355,-13.072340965270996,73.4710693359375,-63.2781982421875,35.2630615234375
0.9499999,-0.2585737705230713,3.1435868740081787,-13.438653945922852,60.4095458984375,-53.8177490234375,50.35400390625
0.9699998999999999,-0.4213795065879822,3.1244332790374756,-16.95573616027832,132.8582763671875,-89.3707275390625,52.276611328125
0.9899998999999999,-0.7015010714530945,3.160346269607544,-14.70518684387207,135.589599609375,185.3179931640625,89.2333984375
1.0099999,-0.8547300100326538,3.1890766620635986,-16.364368438720703,-101.5777587890625,28.778076171875,63.9495849609375
1.0299999,-0.9289502501487732,2.650381326675415,-13.75468921661377,-34.5001220703125,-155.2581787109375,111.9842529296875
1.0499999,-0.9816226959228516,2.612074136734009,-11.252747535705566,43.7774658203125,41.32080078125,60.05859375
1.0699999,-0.9289502501487732,1.9105730056762695,-10.47702693939209,46.234130859375,13.9312744140625,92.041015625
1.0899999,-0.9241618514060974,1.7525556087493896,-9.99339771270752,-15.1214599609375,-6.866455078125,102.7984619140625
1.1099999,-0.8834604024887085,1.4460978507995605,-10.146626472473145,-23.4527587890625,-1.7242431640625,90.484619140625
1.1299999,-0.7541735172271729,1.2497732639312744,-10.409989356994629,1.678466796875,22.15576171875,82.1533203125
1.1499999,-0.5530605912208557,0.9624691009521484,-10.891223907470703,10.498046875,26.580810546875,95.7489013671875
1.1699998999999999,-0.28969839215278625,0.7613561153411865,-11.286267280578613,-9.552001953125,22.88818359375,102.0050048828125
1.1899998999999999,0.016759412363171577,0.2992752194404602,-11.78904914855957,-24.261474609375,25.543212890625,93.0328369140625
1.2099999,0.35673606395721436,-0.3016694188117981,-12.459425926208496,-29.2816162109375,33.1268310546875,78.91845703125
1.2299999,0.6847416758537292,-0.9002198576927185,-13.199234008789062,-23.193359375,49.0570068359375,73.05908203125
1.2499999,0.9864110946655273,-1.4053963422775269,-13.88158130645752,-13.24462890625,70.3582763671875,72.998046875
1.2699999,1.2401964664459229,-1.8411411046981812,-14.338873863220215,-24.0631103515625,84.2437744140625,64.8345947265625
1.2899999,1.4293384552001953,-2.164358377456665,-14.52562141418457,-39.276123046875,93.0938720703125,46.0052490234375
1.3099999,1.5873557329177856,-2.497152328491211,-14.420276641845703,-38.360595703125,106.2164306640625,34.912109375
1.3299999,1.6879122257232666,-2.5665841102600098,-14.068328857421875,-29.3121337890625,121.5057373046875,25.8331298828125
1.3499999,1.7573440074920654,-2.5713725090026855,-13.414711952209473,-20.3704833984375,136.65771484375,17.4713134765625
1.3699999,1.8531121015548706,-2.492363929748535,-12.562376022338867,-16.78466796875,137.0391845703125,8.2550048828125
1.3899999,1.9823989868164062,-2.5258827209472656,-11.561599731445312,-18.2952880859375,132.01904296875,-4.08935546875
1.4099999,2.1356279850006104,-2.5450363159179688,-10.522516250610352,-24.8260498046875,136.0321044921875,-21.6827392578125
1.4299998999999999,2.319981336593628,-2.5665841102600098,-9.643844604492188,-29.8004150390625,137.3291015625,-36.7584228515625
1.4499999,2.4851813316345215,-2.4851813316345215,-8.923190116882324,-28.2440185546875,138.702392578125,-45.074462890625
1.4699999,2.609679937362671,-2.3319525718688965,-8.178592681884766,-26.6876220703125,145.56884765625,-52.6885986328125
1.4899999,2.7102363109588623,-2.169146776199341,-7.534552574157715,-26.0009765625,138.641357421875,-63.6138916015625
1.5099999,2.765302896499634,-1.824381709098816,-6.75883150100708,-32.257080078125,127.8533935546875,-79.6661376953125
1.5299999,2.832340717315674,-1.5921441316604614,-6.04775333404541,-27.4505615234375,123.6572265625,-79.04052734375
1.5499999,2.9041666984558105,-1.2832920551300049,-5.284003257751465,-15.594482421875,120.1934814453125,-80.4901123046875
1.5699999,3.002328872680664,-1.0103530883789062,-4.343081951141357,3.143310546875,119.8883056640625,-95.3826904296875
1.5899999,3.1004912853240967,-0.8403648138046265,-3.313575267791748,14.7705078125,96.160888671875,-104.1717529296875
1.6099999,3.1675288677215576,-0.4596867263317108,-1.920149803161621,3.6468505859375,72.906494140625,-115.9210205078125
1.6299999,3.2106244564056396,0.028730420395731926,-0.6512228846549988,5.4473876953125,39.031982421875,-121.8414306640625
1.6499999,3.1890766620635986,0.8667010068893433,0.4836287498474121,11.7034912109375,11.9171142578125,-131.011962890625
1.6699999,3.138798475265503,1.9369091987609863,1.1827356815338135,23.284912109375,-5.43212890625,-130.6915283203125
1.6899998999999999,3.028665065765381,3.0406360626220703,1.4269442558288574,48.9501953125,-21.1181640625,-116.6534423828125
1.7099999,2.851494312286377,4.050989151000977,1.2689268589019775,75.927734375,-36.590576171875,-110.107421875
1.7299999,2.559401512145996,4.855441093444824,0.7541735172271729,89.7369384765625,-60.2874755859375,-112.3504638671875
1.7499999,2.094926595687866,5.74129581451416,-0.07661445438861847,83.1451416015625,-87.0361328125,-114.6392822265625
1.7699999,1.4772224426269531,6.92881965637207,-1.0821791887283325,81.5582275390625,-105.9112548828125,-94.7723388671875
1.7899999,0.8403648138046265,7.975085735321045,-2.341529369354248,94.8333740234375,-123.9776611328125,-46.9818115234375
1.8099999,0.28730419278144836,8.89685344696045,-3.6391866207122803,90.6829833984375,-143.7225341796875,-26.7333984375
1.8299999,-0.035913024097681046,8.841787338256836,-5.329493045806885,79.833984375,-163.7115478515625,-19.8974609375
1.8499999,-0.21787235140800476,8.305485725402832,-6.9910688400268555,59.4024658203125,-160.33935546875,-21.4996337890625
1.8699999,-0.31364041566848755,7.654263019561768,-9.05247688293457,35.58349609375,-170.501708984375,-20.721435546875
1.8899999,-0.3423708379268646,7.242460250854492,-11.101913452148438,54.9163818359375,-162.04833984375,3.0975341796875
1.9099999,-0.24181437492370605,6.845022678375244,-12.99812126159668,86.97509765625,-123.10791015625,33.0963134765625
1.9299998999999999,0.023942016065120697,6.268020153045654,-14.329297065734863,86.9903564453125,-90.8203125,34.637451171875
1.9499999,0.3423708379268646,5.671864032745361,-14.956578254699707,54.87060546875,-95.5047607421875,8.4686279296875
1.9699999,0.569819986820221,5.04218864440918,-14.9182710647583,57.830810546875,-93.5211181640625,20.4010009765625
1.9899999,0.6440402865409851,4.824316501617432,-14.45619010925293,81.4666748046875,-72.265625,45.196533203125
2.0099999,0.5937620401382446,4.644751071929932,-13.876792907714844,86.456298828125,-49.285888671875,70.6939697265625
2.0299999,0.5051765441894531,4.299986362457275,-13.160926818847656,63.5833740234375,-42.9534912109375,76.2939453125
2.0499999,0.3711012601852417,3.6990416049957275,-12.45463752746582,47.4090576171875,-51.5289306640625,74.310302734375
2.0699999,0.1364694982767105,2.9712042808532715,-11.719616889953613,49.74365234375,-46.81396484375,75.592041015625
2.0899999,-0.2106897532939911,2.674323320388794,-12.416330337524414,87.371826171875,-41.6412353515625,75.6683349609375
2.1099999,-0.6799532771110535,2.1787235736846924,-12.591106414794922,159.1033935546875,21.91162109375,97.3358154296875
2.1299999,-1.115697979927063,2.518700122833252,-11.93509578704834,34.5306396484375,112.5335693359375,86.3494873046875
2.1499999,-1.3623007535934448,1.723825216293335,-11.726799964904785,-4.302978515625,-93.9483642578125,129.486083984375
2.1699999,-1.5179238319396973,1.6903064250946045,-9.684545516967773,29.1900634765625,-41.3970947265625,92.8192138671875
2.1899999,-1.4748282432556152,0.9744400978088379,-9.605537414550781,47.882080078125,-15.960693359375,84.7015380859375
2.2099999,-1.403002142906189,0.6129156351089478,-9.9000244140625,19.6075439453125,-0.7476806640625,103.1036376953125
2.2299999,-1.3239935636520386,0.35434186458587646,-11.231200218200684,-19.989013671875,-4.9591064453125,105.682373046875
2.2499999,-1.2449848651885986,0.2968810200691223,-12.622231483459473,-19.1802978515625,12.542724609375,100.860595703125
2.2699999,-1.1324573755264282,0.14365209639072418,-14.015656471252441,-14.495849609375,44.586181640625,105.3009033203125
2.2899999,-0.8978256583213806,-0.2322375625371933,-15.030797958374023,-15.869140625,76.1566162109375,113.1134033203125
2.3099999,-0.569819986820221,-0.7469909191131592,-15.535974502563477,-27.7557373046875,85.662841796875,98.93798828125
2.3299999,-0.19393034279346466,-1.335964560508728,-15.382745742797852,-33.26416015625,94.0399169921875,77.45361328125
2.3499999,0.16998831927776337,-1.7334020137786865,-14.784195899963379,-26.0772705078125,101.8829345703125,74.5086669921875
2.3699999,0.4668693244457245,-1.8531121015548706,-13.998897552490234,-5.2337646484375,110.2447509765625,80.3375244140625
2.3899999,0.689530074596405,-1.7046716213226318,-13.0914945602417,-1.953125,115.3717041015625,74.951171875
2.4099999,0.9217676520347595,-1.6950948238372803,-12.30859088897705,-25.7720947265625,112.85400390625,64.849853515625
2.4299999,1.1492167711257935,-1.7142484188079834,-11.707646369934082,-43.182373046875,106.7657470703125,53.3447265625
2.4499999,1.3886369466781616,-1.6831238269805908,-11.202469825744629,-41.2750244140625,113.6474609375,41.5802001953125
2.4699999,1.941697597503662,-1.742978811264038,-10.687716484069824,-6.3629150390625,124.2218017578125,44.647216796875
2.4899999,2.296039342880249,-2.054224967956543,-10.32858657836914,-17.4407958984375,133.5601806640625,26.79443359375
2.5099999,2.6886885166168213,-2.6839001178741455,-9.876082420349121,-38.238525390625,126.0223388671875,3.5858154296875
2.5299999,3.0550012588500977,-3.2800562381744385,-9.196128845214844,-46.0968017578125,122.0703125,-20.20263671875
2.5499999,3.3470940589904785,-3.754108190536499,-8.480262756347656,-33.5693359375,122.6654052734375,-30.9906005859375
2.5699999,3.5625722408294678,-4.199429988861084,-7.843404769897461,-19.22607421875,123.291015625,-37.8570556640625
2.5899999,3.7014358043670654,-4.764461517333984,-7.3238630294799805,-20.355224609375,121.9482421875,-62.56103515625
2.6099999,3.7421371936798096,-5.231330871582031,-6.828263282775879,-37.445068359375,120.6817626953125,-107.452392578125
2.6299999,3.7158010005950928,-5.48272180557251,-6.268020153045654,-48.736572265625,117.0654296875,-134.6282958984375
2.6499999,3.579331636428833,-5.128379821777344,-5.5545477867126465,-42.2210693359375,110.83984375,-139.8468017578125
2.6699999,3.3877954483032227,-4.189853191375732,-4.73573112487793,-27.557373046875,104.5379638671875,-147.6898193359375
2.6899999,3.1962592601776123,-2.7437551021575928,-3.9240965843200684,-19.83642578125,94.0093994140625,-160.7818603515625
2.7099999,3.071760892868042,-1.0414776802062988,-3.2130186557769775,-11.3372802734375,81.5582275390625,-159.698486328125
2.7299999,3.0382418632507324,0.8690952062606812,-2.6001031398773193,4.302978515625,68.8934326171875,-143.85986328125
2.7499999,3.1220390796661377,2.6455929279327393,-2.0853497982025146,30.792236328125,57.1746826171875,-123.8555908203125
2.7699999,3.28963303565979,3.9217023849487305,-1.6615760326385498,55.816650390625,41.7633056640625,-111.1602783203125
2.7899999,3.4141316413879395,4.6471452713012695,-1.2689268589019775,57.18994140625,22.735595703125,-114.8681640625
2.8099999,3.397372245788574,5.161899089813232,-0.9840168952941895,33.69140625,-7.9498291015625,-126.1444091796875
2.8299999,3.222595453262329,5.640739440917969,-0.8834604024887085,27.923583984375,-35.797119140625,-112.396240234375
2.8499999,2.9281086921691895,6.258443355560303,-1.0103530883789062,49.6673583984375,-46.4630126953125,-85.99853515625
2.8699999,2.6192567348480225,6.734889507293701,-1.2713210582733154,77.911376953125,-45.196533203125,-71.5179443359375
2.8899999,2.3127987384796143,7.101202011108398,-1.5298948287963867,78.7506103515625,-56.732177734375,-76.2786865234375
2.9099999,1.9967641830444336,7.4316020011901855,-1.6615760326385498,62.5457763671875,-83.282470703125,-75.225830078125
2.9299999,1.659181833267212,7.771578788757324,-1.8124107122421265,64.88037109375,-111.8011474609375,-42.877197265625
2.9499999,1.3623007535934448,7.833827972412109,-2.1547815799713135,87.890625,-121.64306640625,-9.429931640625
2.9699999,1.113303780555725,7.55131196975708,-2.7126305103302,87.310791015625,-129.364013671875,-9.7198486328125
2.9899999,0.9576807022094727,6.63433313369751,-3.890577793121338,74.21875,-162.5518798828125,-19.927978515625
3.0099999,0.7589619159698486,5.659893035888672,-5.4875102043151855,65.093994140625,-180.5267333984375,-19.8974609375
3.0299999,0.43095630407333374,5.238513469696045,-7.582436561584473,42.1142578125,-179.9468994140625,-17.1051025390625
3.0499999,0.0071826050989329815,5.453991413116455,-9.849745750427246,42.48046875,-170.3033447265625,6.439208984375
3.0699999,-0.38067805767059326,5.803544998168945,-12.143390655517578,66.8182373046875,-160.247802734375,40.130615234375
3.0899999,-0.6200982332229614,6.095637321472168,-13.814543724060059,67.3065185546875,-140.2435302734375,46.4935302734375
3.1099999,-0.6871358752250671,5.774814605712891,-15.078681945800781,53.6651611328125,-121.2005615234375,28.62548828125
3.1299999,-0.7038952708244324,5.530605792999268,-15.708357810974121,59.5703125,-89.5843505859375,12.5274658203125
3.1499999,-0.7757213711738586,5.509057998657227,-15.650896072387695,93.9483642578125,-54.534912109375,32.806396484375
3.1699999,-0.9361328482627869,5.66228723526001,-14.949395179748535,115.29541015625,-31.280517578125,77.0111083984375
3.1899999,-1.0821791887283325,5.614402770996094,-14.231135368347168,96.2677001953125,-43.7164306640625,91.400146484375
3.2099999,-1.173158884048462,5.051765441894531,-16.33324432373047,148.5137939453125,-95.0775146484375,87.21923828125
3.2299999,-1.256955862045288,4.932055473327637,-13.03164005279541,118.5150146484375,232.1319580078125,96.160888671875
3.2499999,-1.2401964664459229,3.825934410095215,-14.4226713180542,-38.3148193359375,-60.4400634765625,99.5330810546875
3.2699999,-1.1252747774124146,3.4787750244140625,-10.6925048828125,10.19287109375,-128.5247802734375,135.0555419921875
3.2899999,-0.950498104095459,2.4157495498657227,-9.095572471618652,39.3524169921875,-1.7242431640625,94.0093994140625
3.3099999,-0.7134721279144287,1.455674648284912,-8.463502883911133,59.326171875,-11.6424560546875,91.6900634765625
3.3299999000000002,-0.5985504388809204,0.9600749015808105,-8.741230010986328,44.0521240234375,-12.115478515625,93.719482421875
3.3499999,-0.6368576288223267,0.8619126081466675,-9.476250648498535,20.08056640625,-12.969970703125,107.72705078125
3.3699999,-0.7805097699165344,0.9840168952941895,-10.565611839294434,4.2877197265625,-8.8043212890625,114.92919921875
3.3899999,-0.9241618514060974,0.9097966551780701,-11.824962615966797,11.8408203125,4.425048828125,115.0665283203125
3.4099999,-0.9864110946655273,0.47165772318840027,-13.060370445251465,10.8795166015625,22.9949951171875,112.8692626953125
3.4299999,-0.9289502501487732,-0.2106897532939911,-14.13057804107666,-6.2713623046875,36.9415283203125,104.0802001953125
3.4499999,-0.7661445140838623,-1.0055646896362305,-14.856021881103516,-18.2342529296875,53.955078125,95.2606201171875
3.4699999,-0.5506663918495178,-1.656787633895874,-15.22472858428955,-23.162841796875,69.366455078125,87.2650146484375
3.4899999,-0.33997663855552673,-2.140416383743286,-15.210363388061523,-21.759033203125,84.6405029296875,80.4595947265625
3.5099999,-0.1628057211637497,-2.387019157409668,-14.860810279846191,-20.8892822265625,99.7467041015625,69.793701171875
3.5299999,0.004788403399288654,-2.494758129119873,-14.271836280822754,-25.6805419921875,106.781005859375,58.2427978515625
3.5499999,0.16998831927776337,-2.451662540435791,-13.618219375610352,-33.2794189453125,106.93359375,49.3621826171875
3.5699999,0.3758896589279175,-2.4013843536376953,-12.96460247039795,-37.506103515625,113.9984130859375,44.2962646484375
3.5899999,0.6033388376235962,-2.31758713722229,-12.464214324951172,-38.116455078125,121.9329833984375,35.125732421875
3.6099999,0.8475474119186401,-2.1356279850006104,-12.052411079406738,-37.109375,128.72314453125,21.5911865234375
3.6299999,1.0989385843276978,-1.9321208000183105,-11.652579307556152,-30.45654296875,137.939453125,19.3939208984375
3.6499999,1.3407529592514038,-1.625662922859192,-11.05402946472168,-26.7333984375,147.0489501953125,18.0511474609375
3.6699999,1.6208745241165161,-1.357512354850769,-10.350133895874023,-21.4996337890625,143.035888671875,11.7034912109375
3.6899999,1.9321208000183105,-1.1061211824417114,-9.452308654785156,-26.5350341796875,135.498046875,2.960205078125
3.7099999,2.3127987384796143,-0.9193734526634216,-8.497021675109863,-36.2701416015625,131.4849853515625,-0.7171630859375
3.7299999,2.7317841053009033,-0.8475474119186401,-7.682993412017822,-32.7911376953125,123.7030029296875,-1.1749267578125
3.7499999,3.1675288677215576,-0.7589619159698486,-6.890512466430664,-23.3612060546875,123.71826171875,-11.260986328125
3.7699999,3.5936968326568604,-0.790086567401886,-6.315904140472412,-8.758544921875,121.27685546875,-19.775390625
3.7899999,3.9695863723754883,-0.9074024558067322,-5.853823184967041,-1.6021728515625,115.5548095703125,-21.78955078125
3.8099999,4.288015365600586,-1.1085153818130493,-5.39174222946167,-4.7454833984375,115.0054931640625,-31.5399169921875
3.8299999000000002,4.551377296447754,-1.4748282432556152,-4.977545261383057,-2.227783203125,105.8502197265625,-48.309326171875
3.8499999,4.742913722991943,-1.8483237028121948,-4.51067590713501,0.4119873046875,93.5211181640625,-69.88525390625
3.8699999,4.8722004890441895,-2.1116859912872314,-4.079719543457031,-3.9825439453125,85.99853515625,-88.9434814453125
3.8899999,4.93923807144165,-2.0254945755004883,-3.7660791873931885,-11.0931396484375,77.0721435546875,-99.6246337890625
3.9099999,4.98472785949707,-1.6711528301239014,-3.5482068061828613,-15.2587890625,71.3653564453125,-107.513427734375
3.9299999,5.013458251953125,-1.0558429956436157,-3.426102638244629,-8.60595703125,67.32177734375,-114.9139404296875
3.9499999,5.008669853210449,-0.26575639843940735,-3.220201253890991,0.4730224609375,65.673828125,-126.77001953125
3.9699999,4.987122058868408,0.5985504388809204,-2.8586769104003906,21.636962890625,60.516357421875,-127.105712890625
3.9899999,4.891354084014893,1.9919757843017578,-1.9488801956176758,65.4144287109375,24.993896484375,-122.3602294921875
4.0099999,4.7836151123046875,2.5043349266052246,-1.5107412338256836,56.0455322265625,9.94873046875,-136.2152099609375
4.029999900000001,4.608838081359863,2.9281086921691895,-1.2282254695892334,49.1790771484375,-11.8865966796875,-137.5274658203125
4.0499999,4.326322555541992,3.5721490383148193,-1.2018892765045166,71.3043212890625,-30.9295654296875,-130.06591796875
4.069999900000001,3.950432777404785,4.32871675491333,-1.3287819623947144,101.4556884765625,-32.28759765625,-120.6817626953125
4.0899999000000005,3.49314022064209,5.063736438751221,-1.5658079385757446,83.1146240234375,-46.38671875,-112.8082275390625
4.1099999,2.9472622871398926,5.8873419761657715,-2.0374655723571777,34.759521484375,-90.3167724609375,-117.9656982421875
4.1299999000000005,2.3989901542663574,6.971915245056152,-2.913743495941162,42.48046875,-116.729736328125,-111.4044189453125
4.1499999,1.9057846069335938,8.068459510803223,-3.8977603912353516,108.062744140625,-84.442138671875,-67.3370361328125
4.1699999000000005,1.5538369417190552,8.971074104309082,-4.95120906829834,123.321533203125,-67.1539306640625,-26.214599609375
4.1899999,1.359906554222107,9.41400146484375,-5.758055210113525,61.2030029296875,-110.3973388671875,-22.003173828125
4.209999900000001,1.2617442607879639,9.157821655273438,-6.244078159332275,8.4075927734375,-157.0587158203125,-22.247314453125
4.2299999,1.216254472732544,8.664615631103516,-7.06528902053833,31.43310546875,-159.881591796875,-17.8985595703125
4.249999900000001,1.2018892765045166,8.17141056060791,-8.185775756835938,76.66015625,-127.349853515625,4.7760009765625
4.2699999,1.2521674633026123,7.568071365356445,-9.485827445983887,80.9326171875,-93.0328369140625,29.0679931640625
4.289999900000001,1.3215993642807007,6.904877662658691,-10.764330863952637,42.5262451171875,-114.4866943359375,31.8756103515625
4.3099999,1.3455413579940796,6.172252178192139,-11.57596492767334,13.0462646484375,-120.941162109375,20.5078125
4.329999900000001,1.2521674633026123,5.7772088050842285,-12.193669319152832,29.3426513671875,-106.353759765625,15.93017578125
4.3499999,1.113303780555725,5.521028995513916,-12.698845863342285,55.11474609375,-85.44921875,36.5142822265625
4.369999900000001,0.9768342971801758,5.2696380615234375,-13.287819862365723,36.2701416015625,-76.2481689453125,55.633544921875
4.3899999,0.933738648891449,4.963180065155029,-13.706804275512695,10.7269287109375,-57.4798583984375,37.41455078125
4.409999900000001,0.9074024558067322,4.639962673187256,-13.716381072998047,11.7340087890625,-32.3944091796875,26.3671875
4.4299999,0.7924807667732239,4.671087741851807,-13.220781326293945,39.9932861328125,-25.177001953125,47.271728515625
4.449999900000001,0.524330198764801,5.224148273468018,-12.035652160644531,58.65478515625,-29.6478271484375,75.469970703125
4.4699999,0.19632454216480255,5.583278179168701,-10.776301383972168,55.7403564453125,-42.8924560546875,103.515625
4.489999900000001,-0.11013327538967133,5.458779811859131,-9.667786598205566,41.6717529296875,-49.25537109375,110.2752685546875
4.5099999,-0.35673606395721436,4.857835292816162,-8.868123054504395,43.8995361328125,-41.1376953125,95.1690673828125
4.529999900000001,-0.49799394607543945,3.9001545906066895,-8.497021675109863,75.0274658203125,-42.3126220703125,98.5870361328125
4.5499999,-0.586579442024231,2.9975404739379883,-8.449137687683105,72.540283203125,-55.5572509765625,112.762451171875
4.569999900000001,-0.6129156351089478,2.169146776199341,-8.743624687194824,41.595458984375,-57.5103759765625,113.983154296875
4.5899999000000005,-0.5889736413955688,1.534683346748352,-9.409213066101074,30.6854248046875,-48.3856201171875,100.006103515625
4.609999900000001,-0.5195417404174805,0.9959878921508789,-10.57040023803711,36.7584228515625,-42.083740234375,96.7254638671875
4.6299999000000005,-0.4381389021873474,0.6224924325942993,-11.882423400878906,19.7296142578125,-26.30615234375,105.2703857421875
4.6499999,-0.3663128614425659,0.4908113479614258,-13.237541198730469,-13.2904052734375,-2.4871826171875,100.250244140625
4.6699999000000005,-0.29209262132644653,0.4596867263317108,-14.470555305480957,-22.1710205078125,10.406494140625,94.1314697265625
4.6899999,-0.2322375625371933,0.569819986820221,-15.27979564666748,-8.30078125,31.06689453125,95.794677734375
4.709999900000001,-0.14844051003456116,0.6368576288223267,-15.792154312133789,-11.0321044921875,50.872802734375,103.5614013671875
4.7299999,-0.021547814831137657,0.5817909836769104,-15.978901863098145,-27.64892578125,68.8018798828125,102.294921875
4.749999900000001,0.12928688526153564,0.3495534360408783,-15.873557090759277,-29.35791015625,86.700439453125,90.545654296875
4.7699999,0.2968810200691223,0.08619125932455063,-15.512032508850098,-12.0086669921875,102.294921875,83.465576171875
4.789999900000001,0.4405331015586853,-0.038307227194309235,-14.879963874816895,1.28173828125,114.044189453125,85.113525390625
4.8099999,0.5913678407669067,-0.15322890877723694,-14.075511932373047,2.0599365234375,126.8463134765625,91.49169921875
4.829999900000001,0.7805097699165344,-0.38307225704193115,-13.136984825134277,-10.68115234375,130.9967041015625,83.0230712890625
4.8499999,1.0749965906143188,-0.8068459630012512,-12.270283699035645,-29.1290283203125,123.6419677734375,61.1572265625
4.869999900000001,1.4508862495422363,-1.4101848602294922,-11.494562149047852,-28.106689453125,123.96240234375,47.4700927734375
4.8899999,1.886630892753601,-1.867477297782898,-10.917559623718262,-10.040283203125,137.0697021484375,36.56005859375
4.909999900000001,2.346317768096924,-2.2840683460235596,-10.469843864440918,0.091552734375,149.0478515625,27.5726318359375
4.9299999,2.786850690841675,-2.4899697303771973,-10.014945983886719,-14.83154296875,149.688720703125,9.918212890625
4.949999900000001,3.1890766620635986,-2.7269957065582275,-9.531316757202148,-27.3895263671875,142.578125,-8.7432861328125
4.9699999,3.5194764137268066,-2.940079689025879,-8.944737434387207,-17.547607421875,146.4385986328125,-26.519775390625
4.989999900000001,3.734954595565796,-2.8419175148010254,-8.307879447937012,3.47900390625,155.5633544921875,-51.513671875
5.0099999,3.8570590019226074,-2.6815059185028076,-7.580042362213135,11.4593505859375,156.06689453125,-54.962158203125
5.029999900000001,3.9264907836914062,-2.3535003662109375,-6.675034523010254,-10.498046875,145.263671875,-55.4351806640625
5.0499999,3.9863457679748535,-1.946485996246338,-5.7341132164001465,-27.6031494140625,125.1068115234375,-70.4345703125
5.069999900000001,4.084507942199707,-1.6089035272598267,-4.745307922363281,-13.916015625,117.4774169921875,-78.033447265625
5.0899999000000005,4.228160381317139,-1.4484920501708984,-3.866635799407959,7.904052734375,114.715576171875,-75.8209228515625
5.109999900000001,4.369418144226074,-1.280897855758667,-3.0550012588500977,16.5557861328125,106.2164306640625,-84.0606689453125
5.1299999000000005,4.520252704620361,-1.1492167711257935,-2.296039342880249,12.8021240234375,91.1712646484375,-100.89111328125
5.1499999,4.639962673187256,-0.8619126081466675,-1.5179238319396973,5.889892578125,71.533203125,-105.46875
5.1699999000000005,4.747702121734619,-0.3519476354122162,-0.751779317855835,9.70458984375,50.6591796875,-100.7080078125
5.1899999,4.843470096588135,0.31124621629714966,-0.1388636976480484,24.7650146484375,27.16064453125,-95.794677734375
5.209999900000001,4.9368438720703125,0.8738836050033569,0.26575639843940735,35.7818603515625,9.857177734375,-96.160888671875
5.2299999,4.987122058868408,1.235408067703247,0.3663128614425659,41.6412353515625,-3.021240234375,-104.67529296875
5.249999900000001,4.948814868927002,1.5921441316604614,0.1867477297782898,48.6602783203125,-18.3258056640625,-117.645263671875
5.2699999,4.778826713562012,1.9991583824157715,-0.24181437492370605,63.812255859375,-32.958984375,-119.6441650390625
5.289999900000001,4.46518611907959,2.695871114730835,-0.7924807667732239,72.9522705078125,-44.1131591796875,-114.2730712890625
5.3099999,4.039018154144287,3.3877954483032227,-1.4748282432556152,60.72998046875,-60.791015625,-107.574462890625
5.329999900000001,3.531447410583496,4.261679172515869,-2.22660756111145,26.2908935546875,-86.1968994140625,-116.14990234375
5.3499999,3.064578056335449,5.1810526847839355,-3.383007049560547,33.0352783203125,-102.4627685546875,-117.8741455078125
5.369999900000001,2.695871114730835,6.186617374420166,-4.505887508392334,89.2791748046875,-76.0345458984375,-94.05517578125
5.3899999,2.449268341064453,6.979097843170166,-5.415684223175049,113.09814453125,-53.680419921875,-68.3746337890625
5.409999900000001,2.2409727573394775,7.733271598815918,-5.805939197540283,55.389404296875,-89.4317626953125,-74.2645263671875
5.4299999,2.0183119773864746,8.370129585266113,-6.04775333404541,11.7950439453125,-145.416259765625,-72.6165771484375
5.449999900000001,1.7693150043487549,9.074024200439453,-6.323086738586426,45.4254150390625,-138.0767822265625,-41.6259765625
5.4699999,1.577778935432434,9.560047149658203,-6.9695210456848145,96.1456298828125,-98.114013671875,6.53076171875
5.489999900000001,1.4724340438842773,9.84495735168457,-7.790732383728027,72.08251953125,-96.7864990234375,18.2647705078125
5.5099999,1.400607943534851,9.320627212524414,-9.437943458557129,17.120361328125,-136.0626220703125,39.9932861328125
5.529999900000001,1.403002142906189,8.604761123657227,-10.584765434265137,67.9931640625,-103.7139892578125,69.6868896484375
5.5499999,1.4652514457702637,7.778761386871338,-11.760318756103516,77.4993896484375,-63.2781982421875,65.216064453125
5.569999900000001,1.6041151285171509,6.708553314208984,-12.696451187133789,50.048828125,-48.6297607421875,52.9632568359375
5.5899999000000005,1.8124107122421265,5.552153587341309,-13.084312438964844,42.0684814453125,-51.1322021484375,58.8226318359375
5.609999900000001,2.073378562927246,4.2090067863464355,-13.053187370300293,46.2646484375,-52.1087646484375,74.1119384765625
5.6299999000000005,2.343923568725586,2.935291290283203,-12.811373710632324,42.0684814453125,-39.6728515625,55.755615234375
5.6499999,2.5330653190612793,1.7980455160140991,-12.45703125,33.233642578125,-22.4761962890625,29.78515625
5.6699999000000005,2.5689783096313477,1.1037269830703735,-12.09311294555664,25.482177734375,-22.918701171875,29.8614501953125
5.6899999,2.425326347351074,0.912190854549408,-11.729193687438965,22.3388671875,-26.7486572265625,47.5311279296875
5.709999900000001,2.1571757793426514,0.9816226959228516,-11.44907283782959,19.7601318359375,-17.974853515625,51.483154296875
5.7299999,1.8794482946395874,1.0845733880996704,-11.291055679321289,23.0865478515625,-2.532958984375,39.2913818359375
5.749999900000001,1.6855180263519287,0.9768342971801758,-11.080365180969238,27.5421142578125,6.7291259765625,36.19384765625
5.7699999,1.5969325304031372,0.7182605266571045,-10.828974723815918,17.2576904296875,-3.5552978515625,40.2374267578125
5.789999900000001,1.6112977266311646,0.38546648621559143,-10.445901870727539,4.5318603515625,-6.89697265625,27.34375
5.8099999,1.721431016921997,0.004788403399288654,-10.201693534851074,5.950927734375,-4.180908203125,10.68115234375
5.829999900000001,1.8579005002975464,-0.24181437492370605,-10.096348762512207,10.68115234375,3.173828125,3.631591796875
5.8499999,1.9704279899597168,-0.26336219906806946,-10.041281700134277,6.9427490234375,6.927490234375,5.4168701171875
5.869999900000001,2.0207061767578125,-0.009576806798577309,-10.070012092590332,0.6561279296875,2.3040771484375,0.79345703125
5.8899999,1.9943699836730957,0.4596867263317108,-10.08437728881836,-1.8157958984375,-0.885009765625,-4.45556640625
5.909999900000001,1.9153614044189453,1.0007762908935547,-10.08437728881836,-3.0364990234375,6.0272216796875,-0.3509521484375
5.9299999,1.8076223134994507,1.6065093278884888,-10.065223693847656,0.8392333984375,11.4288330078125,5.9661865234375
5.949999900000001,1.7286136150360107,2.051830768585205,-9.93593692779541,4.913330078125,12.2528076171875,8.209228515625
5.9699999,1.7094600200653076,2.233790159225464,-9.727641105651855,4.119873046875,7.781982421875,7.7972412109375
5.989999900000001,1.7405846118927002,2.188300371170044,-9.536105155944824,-1.4190673828125,3.7689208984375,1.434326171875
6.0099999,1.802833914756775,2.0661959648132324,-9.469067573547363,-7.87353515625,3.2958984375,-2.0904541015625
6.029999900000001,1.8722656965255737,1.968033790588379,-9.466673851013184,-7.4920654296875,8.60595703125,1.9989013671875
6.0499999,1.9369091987609863,1.9297266006469727,-9.536105155944824,-0.6866455078125,10.467529296875,6.89697265625
6.069999900000001,2.0039467811584473,1.8722656965255737,-9.512163162231445,1.64794921875,8.4991455078125,5.8135986328125
6.0899999000000005,2.0661959648132324,1.7286136150360107,-9.442731857299805,2.410888671875,4.974365234375,0.54931640625
6.109999900000001,2.1068975925445557,1.6089035272598267,-9.315838813781738,-3.2806396484375,3.753662109375,-6.134033203125
6.1299999000000005,2.1284453868865967,1.534683346748352,-9.244012832641602,-6.0577392578125,2.2125244140625,-5.55419921875
6.149999900000001,2.1284453868865967,1.580173134803772,-9.17936897277832,-3.23486328125,3.8909912109375,-2.4261474609375
6.1699999000000005,2.1140801906585693,1.647210717201233,-9.165003776550293,-1.3275146484375,3.326416015625,-1.89208984375
6.1899999,2.094926595687866,1.7046716213226318,-9.17936897277832,-1.4495849609375,0.5035400390625,-5.2490234375
6.209999900000001,2.075772762298584,1.7357962131500244,-9.21288776397705,-2.2735595703125,-0.152587890625,-8.23974609375
6.2299999,2.056619167327881,1.7717092037200928,-9.29189682006836,-2.13623046875,-0.0457763671875,-7.26318359375
6.249999900000001,2.03507137298584,1.8626888990402222,-9.399636268615723,-2.0294189453125,0.5645751953125,-5.43212890625
6.2699999,2.0159177780151367,1.9273324012756348,-9.53849983215332,-3.0364990234375,0.9613037109375,-4.08935546875
6.289999900000001,1.9967641830444336,2.011129379272461,-9.651026725769043,-2.8839111328125,2.197265625,-5.5694580078125
6.3099999,1.98958158493042,2.032677173614502,-9.734824180603027,-1.9989013671875,3.265380859375,-4.3487548828125
6.329999900000001,1.9943699836730957,2.0614075660705566,-9.737217903137207,-1.5106201171875,3.936767578125,-3.173828125
6.3499999,2.006340980529785,2.0877439975738525,-9.677363395690918,-0.6103515625,3.692626953125,-1.617431640625
6.369999900000001,2.027888774871826,2.097320795059204,-9.564835548400879,-0.335693359375,3.570556640625,0.946044921875
6.3899999,2.049436569213867,2.0590133666992188,-9.421183586120605,-0.6561279296875,3.387451171875,1.861572265625
6.409999900000001,2.0685901641845703,1.9943699836730957,-9.29189682006836,-0.8087158203125,1.7242431640625,-1.312255859375
6.4299999,2.075772762298584,1.944091796875,-9.205705642700195,-1.373291015625,-0.0457763671875,-4.21142578125
6.449999900000001,2.075772762298584,1.9177556037902832,-9.162610054016113,0.244140625,0.2899169921875,-1.953125
6.4699999,2.0685901641845703,1.9608511924743652,-9.196128845214844,0.762939453125,0.5035400390625,-0.3509521484375
6.489999900000001,2.0614075660705566,2.0015525817871094,-9.258378028869629,-0.3814697265625,-0.396728515625,0.4425048828125
6.5099999,2.0638017654418945,2.0039467811584473,-9.354146003723145,-1.068115234375,-0.2593994140625,0.2288818359375
6.529999900000001,2.070984363555908,1.9752163887023926,-9.44991397857666,-3.5400390625,-0.274658203125,-0.579833984375
6.5499999,2.0805611610412598,1.9057846069335938,-9.555258750915527,-7.5836181640625,-0.91552734375,-0.5645751953125
6.569999900000001,2.0853497982025146,1.8483237028121948,-9.62947940826416,-8.9111328125,0.396728515625,-0.5340576171875
6.5899999000000005,2.0853497982025146,1.8171991109848022,-9.670180320739746,-7.3699951171875,1.190185546875,-0.6256103515625
6.609999900000001,2.078166961669922,1.802833914756775,-9.658209800720215,-4.608154296875,1.5716552734375,-0.885009765625
6.6299999000000005,2.0614075660705566,1.8555063009262085,-9.605537414550781,-3.0975341796875,2.532958984375,-1.9683837890625
6.649999900000001,2.0422539710998535,1.9393033981323242,-9.53849983215332,-3.2501220703125,2.3345947265625,-1.3580322265625
6.6699999000000005,2.0183119773864746,2.0661959648132324,-9.44991397857666,-3.082275390625,2.9449462890625,-0.18310546875
6.6899999,2.0015525817871094,2.1978771686553955,-9.370905876159668,-1.617431640625,2.8076171875,0.8697509765625
6.709999900000001,1.9991583824157715,2.293645143508911,-9.30386734008789,-0.1068115234375,1.922607421875,0.8392333984375
6.7299999,2.011129379272461,2.3319525718688965,-9.27034854888916,0.518798828125,1.6021728515625,1.2664794921875
6.749999900000001,2.03507137298584,2.31758713722229,-9.294290542602539,-0.3662109375,1.7547607421875,1.52587890625
6.7699999,2.0638017654418945,2.248155355453491,-9.332598686218262,-0.1983642578125,3.35693359375,2.593994140625
6.789999900000001,2.0925323963165283,2.1499931812286377,-9.375694274902344,0.213623046875,3.936767578125,2.25830078125
6.8099999,2.1164743900299072,2.030282974243164,-9.387664794921875,-0.396728515625,2.8533935546875,1.1749267578125
6.829999900000001,2.1308395862579346,1.9273324012756348,-9.370905876159668,-1.251220703125,1.7242431640625,-0.5645751953125
6.8499999,2.1332337856292725,1.8794482946395874,-9.354146003723145,-2.166748046875,1.15966796875,-1.4190673828125
6.869999900000001,2.1284453868865967,1.8914192914962769,-9.361329078674316,-3.5552978515625,1.190185546875,-0.732421875
6.8899999,2.118868589401245,1.9536685943603516,-9.3828763961792,-5.584716796875,1.3885498046875,0.640869140625
6.909999900000001,2.1164743900299072,2.0231003761291504,-9.430760383605957,-5.9356689453125,1.007080078125,1.312255859375
6.9299999,2.1164743900299072,2.0805611610412598,-9.452308654785156,-4.180908203125,1.4190673828125,0.732421875
6.949999900000001,2.1140801906585693,2.123656988143921,-9.461885452270508,-1.251220703125,2.0904541015625,0.457763671875
6.9699999,2.10210919380188,2.1595699787139893,-9.425971984863281,-0.1678466796875,2.593994140625,0.8544921875
6.989999900000001,2.0877439975738525,2.2026655673980713,-9.375694274902344,-1.5106201171875,1.434326171875,0.4119873046875
7.0099999,2.0853497982025146,2.2194249629974365,-9.320627212524414,-1.4190673828125,1.2664794921875,0.8697509765625
7.029999900000001,2.123656988143921,2.164358377456665,-9.275136947631836,-1.5869140625,1.0528564453125,-0.9918212890625
7.0499999,2.1475989818573,2.123656988143921,-9.296685218811035,-2.288818359375,0.3204345703125,-2.1209716796875
7.069999900000001,2.1595699787139893,2.1092917919158936,-9.349357604980469,-3.1890869140625,0.3662109375,-0.9765625
7.0899999000000005,2.1499931812286377,2.1356279850006104,-9.402029991149902,-2.5177001953125,1.373291015625,0.274658203125
7.109999900000001,2.1356279850006104,2.166752576828003,-9.440337181091309,-0.5340576171875,2.5177001953125,1.1749267578125
7.1299999000000005,2.121262788772583,2.185906171798706,-9.445125579833984,-0.6866455078125,2.1820068359375,0.6256103515625
7.149999900000001,2.1140801906585693,2.2026655673980713,-9.423578262329102,-2.349853515625,1.28173828125,-0.7781982421875
7.1699999000000005,2.1164743900299072,2.207453966140747,-9.378087997436523,-1.861572265625,1.5869140625,-0.244140625
7.1899999,2.118868589401245,2.231395959854126,-9.332598686218262,-1.495361328125,1.2664794921875,1.007080078125
7.209999900000001,2.121262788772583,2.248155355453491,-9.296685218811035,-0.9918212890625,0.8544921875,1.5106201171875
7.2299999,2.123656988143921,2.2601263523101807,-9.260771751403809,-0.4730224609375,1.15966796875,1.2969970703125
7.249999900000001,2.1308395862579346,2.252943754196167,-9.265560150146484,-0.335693359375,0.274658203125,1.2664794921875
7.2699999,2.1380221843719482,2.229001760482788,-9.277531623840332,-0.30517578125,0.4730224609375,0.9307861328125
7.289999900000001,2.142810583114624,2.2170307636260986,-9.306262016296387,-0.6256103515625,0.3204345703125,0.1983642578125
7.3099999,2.1475989818573,2.1930887699127197,-9.339780807495117,0.3814697265625,0.42724609375,1.068115234375
7.329999900000001,2.142810583114624,2.1930887699127197,-9.361329078674316,0.732421875,0.946044921875,0.9765625
7.3499999,2.142810583114624,2.1787235736846924,-9.373299598693848,0.8697509765625,1.03759765625,1.190185546875
7.369999900000001,2.145204782485962,2.166752576828003,-9.38048267364502,-0.3509521484375,0.5645751953125,0.946044921875
7.3899999,2.1499931812286377,2.142810583114624,-9.385271072387695,-0.762939453125,0.2899169921875,-0.2899169921875
7.409999900000001,2.1523873805999756,2.1356279850006104,-9.387664794921875,-0.5645751953125,0.732421875,-1.2054443359375
7.4299999,2.1475989818573,2.145204782485962,-9.394847869873047,-0.762939453125,0.701904296875,-0.67138671875
7.449999900000001,2.1380221843719482,2.1787235736846924,-9.404424667358398,-0.3509521484375,1.1138916015625,0.5035400390625
7.4699999,2.1308395862579346,2.2026655673980713,-9.399636268615723,0.06103515625,1.434326171875,1.2664794921875
7.489999900000001,2.1284453868865967,2.2218191623687744,-9.406818389892578,0.152587890625,1.28173828125,0.457763671875
7.5099999,2.1308395862579346,2.2146365642547607,-9.394847869873047,0.152587890625,1.52587890625,0.4425048828125
7.529999900000001,2.1380221843719482,2.207453966140747,-9.375694274902344,0.48828125,1.89208984375,0.9613037109375
7.5499999,2.140416383743286,2.2242133617401123,-9.337387084960938,0.091552734375,1.4801025390625,0.8392333984375
7.569999900000001,2.140416383743286,2.2673089504241943,-9.277531623840332,0.6103515625,0.701904296875,1.556396484375
7.5899999000000005,2.1356279850006104,2.3056161403656006,-9.227252960205078,2.9449462890625,-0.1068115234375,3.326416015625
7.609999900000001,2.1308395862579346,2.3127987384796143,-9.198522567749023,3.1280517578125,-0.732421875,3.9520263671875
7.6299999000000005,2.1284453868865967,2.274491548538208,-9.220070838928223,2.838134765625,-0.48828125,2.197265625
7.649999900000001,2.1308395862579346,2.1715409755706787,-9.282320022583008,2.288818359375,-0.1373291015625,1.678466796875
7.6699999000000005,2.140416383743286,2.070984363555908,-9.394847869873047,0,-0.9002685546875,0.7781982421875
7.6899999,2.1499931812286377,1.9943699836730957,-9.50737476348877,-1.617431640625,0.4730224609375,0.1983642578125
7.709999900000001,2.164358377456665,1.941697597503662,-9.615114212036133,-1.46484375,2.1820068359375,0.579833984375
7.7299999,2.1739351749420166,1.9393033981323242,-9.672574996948242,-2.74658203125,2.3193359375,-0.1983642578125
7.749999900000001,2.1811177730560303,1.9536685943603516,-9.667786598205566,-3.6773681640625,2.899169921875,-1.2054443359375
7.7699999,2.1763293743133545,1.9967641830444336,-9.593565940856934,-3.2806396484375,3.35693359375,-1.2664794921875
7.789999900000001,2.166752576828003,2.0638017654418945,-9.481039047241211,-2.685546875,2.6702880859375,-1.312255859375
7.8099999,2.1475989818573,2.1523873805999756,-9.35654067993164,-2.01416015625,2.25830078125,-1.220703125
7.829999900000001,2.1356279850006104,2.255337953567505,-9.244012832641602,-1.129150390625,1.678466796875,-0.244140625
7.8499999,2.1332337856292725,2.3127987384796143,-9.174580574035645,-0.396728515625,1.3427734375,1.46484375
7.869999900000001,2.142810583114624,2.3367409706115723,-9.14345645904541,0.244140625,0.9307861328125,0.79345703125
7.8899999,2.1547815799713135,2.346317768096924,-9.141061782836914,1.9683837890625,0.9307861328125,-0.7781982421875
7.909999900000001,2.164358377456665,2.343923568725586,-9.160215377807617,3.9215087890625,0.396728515625,1.4190673828125
7.9299999,2.166752576828003,2.3247697353363037,-9.17936897277832,6.134033203125,0.48828125,4.8980712890625
7.949999900000001,2.166752576828003,2.2697031497955322,-9.210494041442871,6.2408447265625,0.3204345703125,4.150390625
7.9699999,2.169146776199341,2.164358377456665,-9.258378028869629,3.23486328125,-1.190185546875,0.30517578125
7.989999900000001,2.1739351749420166,2.0614075660705566,-9.327810287475586,1.190185546875,-1.15966796875,-1.220703125
8.0099999,2.1787235736846924,1.9776105880737305,-9.41400146484375,0.579833984375,-0.2593994140625,0.457763671875
8.0299999,2.1787235736846924,1.9560627937316895,-9.500192642211914,0.2288818359375,0.5950927734375,0.762939453125
8.049999900000001,2.1739351749420166,1.9560627937316895,-9.560047149658203,-0.1983642578125,1.1749267578125,-0.335693359375
8.069999900000001,2.164358377456665,1.9704279899597168,-9.586383819580078,-0.42724609375,1.6021728515625,-1.068115234375
8.0899999,2.1547815799713135,1.9919757843017578,-9.583989143371582,-0.7476806640625,1.6632080078125,-0.762939453125
8.1099999,2.1475989818573,2.049436569213867,-9.557653427124023,-1.2359619140625,2.1209716796875,-1.129150390625
8.129999900000001,2.1475989818573,2.10210919380188,-9.512163162231445,-1.03759765625,2.6397705078125,-0.3204345703125
8.149999900000001,2.1547815799713135,2.1571757793426514,-9.445125579833984,-0.1068115234375,3.0975341796875,0.8392333984375
8.1699999,2.1595699787139893,2.2002713680267334,-9.35654067993164,1.0528564453125,2.685546875,0.8087158203125
8.1899999,2.1595699787139893,2.2194249629974365,-9.248801231384277,2.7618408203125,2.13623046875,0.732421875
8.2099999,2.1547815799713135,2.250549554824829,-9.172186851501465,6.0882568359375,1.190185546875,0.823974609375
8.229999900000001,2.1523873805999756,2.2409727573394775,-9.126696586608887,9.857177734375,1.6632080078125,3.0059814453125
8.2499999,2.161964178085327,2.2218191623687744,-9.172186851501465,5.4168701171875,0.9002685546875,2.7618408203125
8.2699999,2.183511972427368,2.1380221843719482,-9.255983352661133,1.9989013671875,0.396728515625,1.861572265625
8.2899999,2.209848165512085,2.027888774871826,-9.378087997436523,0.3662109375,0.9307861328125,0.48828125
8.309999900000001,2.231395959854126,1.8962076902389526,-9.493009567260742,-0.732421875,0.885009765625,-0.0152587890625
8.3299999,2.2385785579681396,1.7980455160140991,-9.567230224609375,-1.800537109375,1.52587890625,-0.823974609375
8.3499999,2.2361843585968018,1.7477672100067139,-9.603142738342285,-2.99072265625,1.4801025390625,-2.3193359375
8.3699999,2.22660756111145,1.7573440074920654,-9.579200744628906,-2.7923583984375,1.922607421875,-3.0517578125
8.389999900000001,2.2146365642547607,1.8339585065841675,-9.521739959716797,-2.349853515625,1.6021728515625,-3.326416015625
8.4099999,2.2002713680267334,1.944091796875,-9.44752025604248,-2.0599365234375,1.4495849609375,-2.50244140625
8.4299999,2.190694570541382,2.032677173614502,-9.378087997436523,-1.9073486328125,1.40380859375,-1.129150390625
8.4499999,2.185906171798706,2.118868589401245,-9.327810287475586,-1.953125,1.556396484375,-1.861572265625
8.469999900000001,2.185906171798706,2.1523873805999756,-9.315838813781738,-1.6326904296875,1.0833740234375,-2.38037109375
8.4899999,2.188300371170044,2.169146776199341,-9.299078941345215,-1.678466796875,1.556396484375,-1.434326171875
8.5099999,2.188300371170044,2.1739351749420166,-9.308655738830566,-2.3193359375,1.03759765625,-0.823974609375
8.5299999,2.185906171798706,2.1715409755706787,-9.313444137573242,-2.0599365234375,0.579833984375,-0.8392333984375
8.549999900000001,2.183511972427368,2.1284453868865967,-9.327810287475586,-1.3427734375,0.7476806640625,-0.8697509765625
8.569999900000001,2.185906171798706,2.1140801906585693,-9.344569206237793,-1.52587890625,0.5950927734375,-1.434326171875
8.5899999,2.1930887699127197,2.1092917919158936,-9.351752281188965,-1.2054443359375,0.823974609375,-0.946044921875
8.6099999,2.2002713680267334,2.1140801906585693,-9.35893440246582,-1.129150390625,0.9613037109375,-0.1373291015625
8.629999900000001,2.2026655673980713,2.1308395862579346,-9.349357604980469,-0.9002685546875,0.823974609375,-0.2899169921875
8.649999900000001,2.2026655673980713,2.126051187515259,-9.332598686218262,-0.6103515625,0.5340576171875,0.1068115234375
8.6699999,2.1954829692840576,2.1140801906585693,-9.311050415039062,-1.0223388671875,0.1373291015625,-0.6866455078125
8.6899999,2.183511972427368,2.123656988143921,-9.311050415039062,-1.2664794921875,-0.3509521484375,-1.8768310546875
8.709999900000001,2.1763293743133545,2.126051187515259,-9.327810287475586,-0.823974609375,-0.2593994140625,-0.3662109375
8.729999900000001,2.1739351749420166,2.140416383743286,-9.366117477416992,-1.129150390625,0.5035400390625,0.579833984375
8.7499999,2.1763293743133545,2.1499931812286377,-9.411606788635254,-1.251220703125,0.8392333984375,0.152587890625
8.7699999,2.1787235736846924,2.1308395862579346,-9.435548782348633,-0.4730224609375,1.3580322265625,0
8.7899999,2.183511972427368,2.10210919380188,-9.442731857299805,-0.701904296875,0.9307861328125,-0.3204345703125
8.809999900000001,2.183511972427368,2.097320795059204,-9.423578262329102,-1.190185546875,0.3509521484375,-1.4495849609375
8.8299999,2.1811177730560303,2.097320795059204,-9.402029991149902,-1.6632080078125,0.8697509765625,-1.007080078125
8.8499999,2.1811177730560303,2.126051187515259,-9.385271072387695,-2.288818359375,0.5950927734375,-0.4730224609375
8.8699999,2.1811177730560303,2.1571757793426514,-9.368511199951172,-2.0904541015625,0.8087158203125,-0.3814697265625
8.889999900000001,2.1787235736846924,2.1811177730560303,-9.361329078674316,-1.0986328125,1.190185546875,-0.1678466796875
8.9099999,2.1739351749420166,2.1978771686553955,-9.346963882446289,-1.2054443359375,1.0833740234375,-0.06103515625
8.9299999,2.1715409755706787,2.1978771686553955,-9.330204010009766,-1.03759765625,0.885009765625,0.4119873046875
8.9499999,2.169146776199341,2.190694570541382,-9.320627212524414,-0.274658203125,0.5950927734375,0.30517578125
8.969999900000001,2.1715409755706787,2.183511972427368,-9.311050415039062,-0.579833984375,0.42724609375,-0.2899169921875
8.9899999,2.1739351749420166,2.1715409755706787,-9.315838813781738,-0.8544921875,0.5950927734375,-0.4425048828125
9.0099999,2.1763293743133545,2.1571757793426514,-9.332598686218262,-1.251220703125,0.3509521484375,-0.152587890625
9.0299999,2.1739351749420166,2.1523873805999756,-9.349357604980469,-0.8697509765625,0.6866455078125,-0.2899169921875
9.049999900000001,2.169146776199341,2.1475989818573,-9.370905876159668,-1.251220703125,0.7171630859375,-0.9307861328125
9.069999900000001,2.166752576828003,2.1571757793426514,-9.3828763961792,-1.861572265625,0.8697509765625,-0.885009765625
9.0899999,2.166752576828003,2.169146776199341,-9.387664794921875,-2.1820068359375,0.9307861328125,-0.42724609375
9.1099999,2.166752576828003,2.190694570541382,-9.385271072387695,-1.8768310546875,0.823974609375,-0.762939453125
9.129999900000001,2.1715409755706787,2.185906171798706,-9.373299598693848,-1.0833740234375,0.9613037109375,-0.54931640625
9.149999900000001,2.1763293743133545,2.188300371170044,-9.35893440246582,-0.3204345703125,1.068115234375,-1.0833740234375
9.1699999,2.1787235736846924,2.169146776199341,-9.342175483703613,-1.190185546875,0.7171630859375,-1.4190673828125
9.1899999,2.1787235736846924,2.169146776199341,-9.315838813781738,-2.3651123046875,0.5645751953125,-1.922607421875
9.209999900000001,2.1715409755706787,2.166752576828003,-9.299078941345215,-2.716064453125,-0.030517578125,-2.166748046875
9.229999900000001,2.161964178085327,2.1715409755706787,-9.289502143859863,-2.9296875,-0.518798828125,-2.25830078125
9.2499999,2.1523873805999756,2.185906171798706,-9.30386734008789,-2.7923583984375,-0.335693359375,-3.2196044921875
9.2699999,2.140416383743286,2.205059766769409,-9.327810287475586,-3.570556640625,0.213623046875,-3.7689208984375
9.2899999,2.1380221843719482,2.2361843585968018,-9.35654067993164,-5.035400390625,0.091552734375,-3.8604736328125
9.309999900000001,2.1356279850006104,2.250549554824829,-9.35893440246582,-3.3416748046875,-0.0152587890625,-3.509521484375
9.3299999,2.1332337856292725,2.279279947280884,-9.351752281188965,-3.41796875,-1.2359619140625,-4.7607421875
9.3499999,2.1284453868865967,2.300827741622925,-9.337387084960938,-3.204345703125,-1.1138916015625,-4.69970703125
9.3699999,2.121262788772583,2.343923568725586,-9.332598686218262,-1.9073486328125,-0.5340576171875,-2.685546875
9.389999900000001,2.1116859912872314,2.3726539611816406,-9.334992408752441,-0.3204345703125,0.3814697265625,-0.5340576171875
9.4099999,2.1045033931732178,2.406172752380371,-9.342175483703613,-0.54931640625,0.213623046875,-1.0833740234375
9.4299999,2.097320795059204,2.4229321479797363,-9.344569206237793,-0.457763671875,-0.030517578125,-1.03759765625
9.4499999,2.0925323963165283,2.410961151123047,-9.342175483703613,0.1068115234375,0.4730224609375,0.762939453125
9.469999900000001,2.0877439975738525,2.408566951751709,-9.342175483703613,-0.1373291015625,0.4730224609375,0.7476806640625
9.4899999,2.0877439975738525,2.3774423599243164,-9.344569206237793,-0.5950927734375,0.3204345703125,0.2899169921875
9.5099999,2.0853497982025146,2.346317768096924,-9.351752281188965,-0.244140625,0.701904296875,-0.457763671875
9.5299999,2.0853497982025146,2.3319525718688965,-9.361329078674316,-0.5950927734375,0.48828125,-0.762939453125
9.549999900000001,2.0829553604125977,2.3247697353363037,-9.373299598693848,-0.48828125,0.640869140625,0.2593994140625
9.569999900000001,2.0829553604125977,2.3319525718688965,-9.38048267364502,-0.1068115234375,0.9765625,0.48828125
9.5899999,2.0829553604125977,2.33913516998291,-9.378087997436523,-0.1983642578125,1.556396484375,0.06103515625
9.6099999,2.0805611610412598,2.3319525718688965,-9.366117477416992,-0.6256103515625,1.5716552734375,-0.4425048828125
9.629999900000001,2.078166961669922,2.319981336593628,-9.334992408752441,-1.373291015625,1.40380859375,-1.434326171875
9.649999900000001,2.073378562927246,2.3295583724975586,-9.301473617553711,-1.3427734375,0.9307861328125,-2.716064453125
9.6699999,2.073378562927246,2.3487119674682617,-9.279925346374512,-1.3275146484375,0.42724609375,-1.739501953125
9.6899999,2.0877439975738525,2.365471363067627,-9.277531623840332,-0.54931640625,0.396728515625,0.2288818359375
9.709999900000001,2.1045033931732178,2.365471363067627,-9.301473617553711,1.129150390625,0.762939453125,-0.091552734375
9.729999900000001,2.118868589401245,2.346317768096924,-9.332598686218262,0.48828125,0.9918212890625,-1.2969970703125
9.7499999,2.118868589401245,2.319981336593628,-9.354146003723145,-0.06103515625,0.9613037109375,-0.9307861328125
9.7699999,2.1068975925445557,2.315192937850952,-9.366117477416992,-0.4425048828125,0.701904296875,-0.0762939453125
9.7899999,2.0901381969451904,2.3247697353363037,-9.35654067993164,-0.9002685546875,0.6103515625,-0.30517578125
9.809999900000001,2.0805611610412598,2.341529369354248,-9.346963882446289,-1.5869140625,0.3509521484375,-1.0986328125
9.8299999,2.078166961669922,2.3726539611816406,-9.346963882446289,-0.9307861328125,0.5645751953125,-1.3275146484375
9.8499999,2.0805611610412598,2.387019157409668,-9.349357604980469,-0.152587890625,1.1749267578125,0.42724609375
9.8699999,2.0805611610412598,2.4013843536376953,-9.354146003723145,0.091552734375,1.678466796875,0.91552734375
9.889999900000001,2.078166961669922,2.4013843536376953,-9.354146003723145,-0.8697509765625,1.0833740234375,-0.396728515625
9.9099999,2.078166961669922,2.382230758666992,-9.339780807495117,-0.7171630859375,1.03759765625,-0.42724609375
9.9299999,2.078166961669922,2.3726539611816406,-9.32302188873291,-0.4425048828125,1.007080078125,-0.3204345703125
9.9499999,2.0829553604125977,2.367865562438965,-9.308655738830566,-0.4425048828125,0.4730224609375,-0.2593994140625
9.969999900000001,2.0853497982025146,2.365471363067627,-9.289502143859863,-0.335693359375,0.8544921875,0
9.9899999,2.0877439975738525,2.3511061668395996,-9.289502143859863,-0.3204345703125,0.518798828125,-0.274658203125
10.0099999,2.0829553604125977,2.3511061668395996,-9.30386734008789,0.1678466796875,0.6256103515625,-1.5411376953125
10.0299999,2.075772762298584,2.360682964324951,-9.327810287475586,0.213623046875,1.3275146484375,-1.9073486328125
10.049999900000001,2.0685901641845703,2.38462495803833,-9.35654067993164,0.396728515625,1.953125,-0.946044921875
10.069999900000001,2.075772762298584,2.3942017555236816,-9.378087997436523,0.6256103515625,2.3193359375,0.1373291015625
10.0899999,2.0925323963165283,2.3487119674682617,-9.373299598693848,0.54931640625,1.6021728515625,-0.7781982421875
10.1099999,2.1092917919158936,2.296039342880249,-9.349357604980469,-0.030517578125,1.6021728515625,-1.8157958984375
10.129999900000001,2.121262788772583,2.2625205516815186,-9.332598686218262,-0.8392333984375,0.8697509765625,-2.3345947265625
10.149999900000001,2.121262788772583,2.27209734916687,-9.318233489990234,-1.46484375,0.5035400390625,-1.8157958984375
10.1699999,2.1140801906585693,2.3127987384796143,-9.313444137573242,-1.3427734375,0.6561279296875,-1.0223388671875
10.1899999,2.099714994430542,2.3702597618103027,-9.315838813781738,-1.0986328125,0.9307861328125,-0.6866455078125
10.209999900000001,2.0877439975738525,2.425326347351074,-9.320627212524414,-0.8087158203125,0.9002685546875,-0.42724609375
10.229999900000001,2.078166961669922,2.449268341064453,-9.327810287475586,-0.946044921875,0.7781982421875,-0.030517578125
10.2499999,2.073378562927246,2.456450939178467,-9.327810287475586,-0.6103515625,1.03759765625,0.0152587890625
10.2699999,2.070984363555908,2.4372973442077637,-9.337387084960938,-0.4730224609375,0.9613037109375,-0.1220703125
10.2899999,2.075772762298584,2.406172752380371,-9.349357604980469,-1.0223388671875,0.9613037109375,-0.4119873046875
10.309999900000001,2.078166961669922,2.3989901542663574,-9.351752281188965,-1.3275146484375,1.220703125,-0.762939453125
10.3299999,2.0805611610412598,2.3918075561523438,-9.337387084960938,-1.0986328125,1.5106201171875,-0.2288818359375
10.3499999,2.0829553604125977,2.406172752380371,-9.318233489990234,-0.244140625,1.2054443359375,0.2899169921875
10.3699999,2.0853497982025146,2.4205379486083984,-9.289502143859863,0.1373291015625,0.579833984375,0.06103515625
10.389999900000001,2.0829553604125977,2.4229321479797363,-9.260771751403809,1.2664794921875,1.0223388671875,-0.244140625
10.4099999,2.0805611610412598,2.43011474609375,-9.253589630126953,1.8157958984375,1.007080078125,-1.1749267578125
10.4299999,2.075772762298584,2.427720546722412,-9.26795482635498,0.91552734375,0.18310546875,-0.762939453125
10.4499999,2.078166961669922,2.3965959548950195,-9.308655738830566,0.6256103515625,0.7781982421875,0.4425048828125
10.469999900000001,2.0925323963165283,2.360682964324951,-9.361329078674316,0.1220703125,1.5869140625,-0.5035400390625
10.4899999,2.1116859912872314,2.3080103397369385,-9.41400146484375,-0.5645751953125,1.77001953125,-1.15966796875
10.5099999,2.1284453868865967,2.2697031497955322,-9.437943458557129,-1.434326171875,1.8463134765625,-0.6866455078125
10.5299999,2.1308395862579346,2.276885747909546,-9.435548782348633,-1.7547607421875,1.6632080078125,-0.7781982421875
10.549999900000001,2.118868589401245,2.319981336593628,-9.402029991149902,-1.373291015625,1.4495849609375,-1.0223388671875
10.569999900000001,2.099714994430542,2.3798365592956543,-9.35654067993164,-0.4119873046875,1.3427734375,-0.3662109375
10.5899999,2.0829553604125977,2.4396915435791016,-9.313444137573242,-0.396728515625,1.1444091796875,0.2288818359375
10.6099999,2.078166961669922,2.47560453414917,-9.277531623840332,-0.762939453125,1.28173828125,0.579833984375
10.629999900000001,2.0805611610412598,2.470816135406494,-9.258378028869629,-0.9002685546875,1.068115234375,0.823974609375
10.649999900000001,2.0829553604125977,2.456450939178467,-9.253589630126953,-0.30517578125,0.7781982421875,0.4730224609375
10.6699999,2.0877439975738525,2.4205379486083984,-9.260771751403809,-0.152587890625,0.732421875,0.274658203125
10.6899999,2.0925323963165283,2.3942017555236816,-9.282320022583008,-0.213623046875,1.0833740234375,-0.274658203125
10.709999900000001,2.097320795059204,2.3726539611816406,-9.308655738830566,-0.1678466796875,1.1749267578125,-0.5035400390625
10.729999900000001,2.1045033931732178,2.3558945655822754,-9.320627212524414,-0.3204345703125,1.52587890625,-0.762939453125
10.7499999,2.1045033931732178,2.367865562438965,-9.315838813781738,0.030517578125,1.40380859375,-1.46484375
10.7699999,2.099714994430542,2.387019157409668,-9.289502143859863,0.7781982421875,0.885009765625,-0.8544921875
10.7899999,2.0925323963165283,2.425326347351074,-9.260771751403809,0.30517578125,0.244140625,-0.1220703125
10.809999900000001,2.0901381969451904,2.4420857429504395,-9.251194953918457,0.5340576171875,-0.2899169921875,0.2593994140625
10.8299999,2.094926595687866,2.4396915435791016,-9.260771751403809,1.007080078125,0.1983642578125,-0.1068115234375
10.8499999,2.099714994430542,2.4205379486083984,-9.294290542602539,1.190185546875,0.6256103515625,-0.457763671875
10.8699999,2.1045033931732178,2.3918075561523438,-9.334992408752441,0.5645751953125,0.3204345703125,-0.06103515625
10.889999900000001,2.1045033931732178,2.3774423599243164,-9.361329078674316,0.274658203125,0.4119873046875,0.5645751953125
10.9099999,2.10210919380188,2.3726539611816406,-9.38048267364502,-0.5950927734375,0.7171630859375,0.30517578125
10.9299999,2.097320795059204,2.367865562438965,-9.385271072387695,-0.91552734375,0.823974609375,0.2899169921875
10.9499999,2.0925323963165283,2.3702597618103027,-9.387664794921875,-0.5340576171875,0.7781982421875,0.0152587890625
10.969999900000001,2.0877439975738525,2.367865562438965,-9.38048267364502,-0.18310546875,1.007080078125,0.1068115234375
10.9899999,2.0805611610412598,2.3726539611816406,-9.361329078674316,-0.091552734375,1.251220703125,0.06103515625
11.0099999,2.078166961669922,2.3774423599243164,-9.344569206237793,-0.67138671875,0.9765625,-0.2593994140625
11.0299999,2.0805611610412598,2.38462495803833,-9.32302188873291,-0.396728515625,0.8392333984375,-0.06103515625
11.049999900000001,2.0877439975738525,2.3774423599243164,-9.308655738830566,-0.1220703125,0.9002685546875,0.3814697265625
11.069999900000001,2.097320795059204,2.3798365592956543,-9.296685218811035,-0.1373291015625,0.7476806640625,-0.18310546875
11.0899999,2.10210919380188,2.3726539611816406,-9.306262016296387,-0.518798828125,0.274658203125,-0.8087158203125
11.1099999,2.097320795059204,2.382230758666992,-9.315838813781738,-0.1678466796875,0.823974609375,-0.5340576171875
11.129999900000001,2.0853497982025146,2.410961151123047,-9.330204010009766,-0.42724609375,1.2054443359375,-0.1068115234375
11.149999900000001,2.075772762298584,2.4396915435791016,-9.342175483703613,-0.7476806640625,1.0528564453125,0.640869140625
11.1699999,2.070984363555908,2.4612393379211426,-9.334992408752441,-0.4425048828125,1.1138916015625,1.0986328125
11.1899999,2.070984363555908,2.4660277366638184,-9.318233489990234,-0.0457763671875,0.9307861328125,0.7476806640625
11.209999900000001,2.078166961669922,2.451662540435791,-9.306262016296387,0.335693359375,0.5645751953125,0.6866455078125
11.229999900000001,2.0853497982025146,2.4133553504943848,-9.294290542602539,0.3204345703125,0.885009765625,1.1444091796875
11.2499999,2.094926595687866,2.3726539611816406,-9.318233489990234,-0.1678466796875,0.640869140625,0.3204345703125
11.2699999,2.1068975925445557,2.3511061668395996,-9.334992408752441,-0.54931640625,1.15966796875,-0.579833984375
11.2899999,2.118868589401245,2.3319525718688965,-9.368511199951172,-0.732421875,1.4190673828125,0.152587890625
11.309999900000001,2.123656988143921,2.3367409706115723,-9.373299598693848,-0.7171630859375,1.617431640625,0.7781982421875
11.3299999,2.123656988143921,2.3487119674682617,-9.363722801208496,-0.762939453125,1.40380859375,-0.091552734375
11.3499999,2.1140801906585693,2.3582887649536133,-9.339780807495117,-0.8697509765625,1.068115234375,-0.91552734375
11.3699999,2.1045033931732178,2.3774423599243164,-9.308655738830566,-0.457763671875,1.0833740234375,-0.6256103515625
11.389999900000001,2.097320795059204,2.406172752380371,-9.294290542602539,0,0.9918212890625,0.0152587890625
11.4099999,2.0925323963165283,2.43011474609375,-9.294290542602539,0,1.190185546875,0.8392333984375
11.4299999,2.097320795059204,2.4396915435791016,-9.30386734008789,0.4119873046875,1.708984375,1.0223388671875
11.4499999,2.1045033931732178,2.4372973442077637,-9.315838813781738,0.9613037109375,1.617431640625,0.5950927734375
11.469999900000001,2.1092917919158936,2.4157495498657227,-9.318233489990234,0.9613037109375,1.312255859375,0.9765625
11.4899999,2.1140801906585693,2.403778553009033,-9.313444137573242,0.2593994140625,1.28173828125,0.91552734375
11.5099999,2.1140801906585693,2.3942017555236816,-9.30386734008789,-0.3662109375,0.79345703125,1.1138916015625
11.5299999,2.1140801906585693,2.3798365592956543,-9.289502143859863,-0.1678466796875,0.732421875,0.9307861328125
11.549999900000001,2.1092917919158936,2.3774423599243164,-9.289502143859863,-0.213623046875,0.4425048828125,-0.1373291015625
11.569999900000001,2.1068975925445557,2.3750481605529785,-9.296685218811035,-0.79345703125,0.42724609375,-0.54931640625
11.5899999,2.1045033931732178,2.3942017555236816,-9.337387084960938,-0.213623046875,1.312255859375,1.5869140625
11.6099999,2.1092917919158936,2.3965959548950195,-9.351752281188965,-0.54931640625,1.1749267578125,0.8697509765625
11.629999900000001,2.1164743900299072,2.382230758666992,-9.351752281188965,-0.2593994140625,1.2054443359375,0.1373291015625
11.649999900000001,2.118868589401245,2.365471363067627,-9.339780807495117,-0.54931640625,1.0528564453125,-0.4425048828125
11.6699999,2.118868589401245,2.346317768096924,-9.327810287475586,-0.8544921875,0.9765625,-0.2593994140625
11.6899999,2.1164743900299072,2.343923568725586,-9.311050415039062,-0.4730224609375,1.15966796875,-0.6103515625
11.709999900000001,2.1116859912872314,2.360682964324951,-9.30386734008789,0.1068115234375,1.1138916015625,-1.1444091796875
11.729999900000001,2.1140801906585693,2.382230758666992,-9.299078941345215,-0.30517578125,0.8544921875,-0.06103515625
11.7499999,2.1140801906585693,2.408566951751709,-9.289502143859863,-0.335693359375,1.15966796875,0.518798828125
11.7699999,2.1140801906585693,2.4157495498657227,-9.287108421325684,-0.274658203125,0.91552734375,-0.0762939453125
11.7899999,2.1116859912872314,2.408566951751709,-9.289502143859863,-0.5035400390625,0.4119873046875,-0.79345703125
11.809999900000001,2.1116859912872314,2.3965959548950195,-9.299078941345215,-0.42724609375,0.8697509765625,-0.5950927734375
11.8299999,2.1116859912872314,2.389413356781006,-9.320627212524414,-0.5035400390625,1.3275146484375,-0.213623046875
11.8499999,2.1140801906585693,2.3918075561523438,-9.339780807495117,-0.9613037109375,1.2969970703125,-0.0152587890625
11.8699999,2.118868589401245,2.3942017555236816,-9.346963882446289,-0.79345703125,1.3427734375,-0.091552734375
11.889999900000001,2.118868589401245,2.3965959548950195,-9.337387084960938,-0.640869140625,1.251220703125,-0.152587890625
11.9099999,2.1164743900299072,2.3989901542663574,-9.32302188873291,-0.5950927734375,0.946044921875,-0.30517578125
11.9299999,2.1164743900299072,2.408566951751709,-9.30386734008789,-0.640869140625,0.91552734375,-0.579833984375
11.9499999,2.1164743900299072,2.4133553504943848,-9.296685218811035,-0.8392333984375,0.701904296875,-0.091552734375
11.969999900000001,2.1140801906585693,2.4229321479797363,-9.296685218811035,-0.9307861328125,0.9918212890625,-0.1220703125
11.9899999,2.1164743900299072,2.4181437492370605,-9.30386734008789,-0.7781982421875,1.03759765625,0.091552734375
12.0099999,2.1164743900299072,2.4133553504943848,-9.313444137573242,-1.0223388671875,0.946044921875,-0.1220703125
12.0299999,2.118868589401245,2.410961151123047,-9.327810287475586,-1.1138916015625,1.068115234375,-0.1983642578125
12.049999900000001,2.121262788772583,2.4205379486083984,-9.332598686218262,-1.007080078125,1.129150390625,0.6561279296875
12.069999900000001,2.1284453868865967,2.4157495498657227,-9.337387084960938,-0.213623046875,1.2359619140625,1.0833740234375
12.0899999,2.1308395862579346,2.4205379486083984,-9.32302188873291,-0.244140625,1.3275146484375,0.213623046875
12.1099999,2.1308395862579346,2.4133553504943848,-9.301473617553711,-0.67138671875,1.0223388671875,-0.4425048828125
12.129999900000001,2.1284453868865967,2.4205379486083984,-9.279925346374512,-0.335693359375,0.579833984375,-0.3662109375
12.149999900000001,2.126051187515259,2.434903144836426,-9.263166427612305,0.3204345703125,0.6561279296875,0.4119873046875
12.1699999,2.126051187515259,2.43011474609375,-9.258378028869629,0.5340576171875,0.8392333984375,0.9765625
12.1899999,2.126051187515259,2.425326347351074,-9.260771751403809,-0.091552734375,0.48828125,-0.213623046875
12.209999900000001,2.123656988143921,2.403778553009033,-9.275136947631836,-0.579833984375,0.0457763671875,-0.8544921875
12.229999900000001,2.118868589401245,2.3989901542663574,-9.294290542602539,-0.579833984375,0.244140625,-0.3662109375
12.2499999,2.1164743900299072,2.403778553009033,-9.318233489990234,-0.091552734375,0.8544921875,0.3204345703125
12.2699999,2.1164743900299072,2.4133553504943848,-9.342175483703613,0.030517578125,0.9307861328125,0.091552734375
12.289999900000002,2.118868589401245,2.4181437492370605,-9.346963882446289,-0.335693359375,1.15966796875,-0.518798828125
12.309999900000001,2.118868589401245,2.410961151123047,-9.346963882446289,-0.335693359375,0.7781982421875,-0.06103515625
12.3299999,2.118868589401245,2.4013843536376953,-9.334992408752441,-0.244140625,0.7781982421875,-0.2593994140625
12.3499999,2.1140801906585693,2.4157495498657227,-9.332598686218262,-0.3509521484375,0.9307861328125,-1.0833740234375
12.3699999,2.1140801906585693,2.425326347351074,-9.327810287475586,-0.2899169921875,1.312255859375,0.091552734375
12.389999900000001,2.1116859912872314,2.4420857429504395,-9.318233489990234,0.335693359375,1.5411376953125,0.885009765625
12.4099999,2.1116859912872314,2.4396915435791016,-9.30386734008789,-0.091552734375,0.9613037109375,0.1220703125
12.4299999,2.1140801906585693,2.4420857429504395,-9.284713745117188,-0.6103515625,0.579833984375,-0.9613037109375
12.4499999,2.118868589401245,2.427720546722412,-9.272743225097656,-0.091552734375,0.42724609375,-0.091552734375
12.469999900000001,2.126051187515259,2.4205379486083984,-9.27034854888916,0.244140625,0.579833984375,0.6561279296875
12.4899999,2.1284453868865967,2.4133553504943848,-9.282320022583008,0.1983642578125,0.5950927734375,-0.1068115234375
12.5099999,2.126051187515259,2.4013843536376953,-9.299078941345215,-0.091552734375,0.762939453125,-1.0223388671875
12.5299999,2.1164743900299072,2.403778553009033,-9.320627212524414,-0.244140625,0.640869140625,-0.8544921875
12.549999900000001,2.1068975925445557,2.4133553504943848,-9.342175483703613,-0.3204345703125,0.9613037109375,-0.1220703125
12.569999900000001,2.10210919380188,2.427720546722412,-9.351752281188965,-0.3509521484375,1.3580322265625,0.0457763671875
12.5899999,2.1045033931732178,2.432508945465088,-9.349357604980469,-0.518798828125,1.1444091796875,-0.54931640625
12.6099999,2.1116859912872314,2.410961151123047,-9.342175483703613,-0.732421875,0.946044921875,-0.457763671875
12.629999900000001,2.118868589401245,2.3965959548950195,-9.334992408752441,-1.15966796875,0.8392333984375,-0.640869140625
12.649999900000001,2.126051187515259,2.389413356781006,-9.332598686218262,-0.9918212890625,1.129150390625,-1.0986328125
12.6699999,2.1332337856292725,2.3989901542663574,-9.332598686218262,-0.8697509765625,1.15966796875,-0.8392333984375
12.6899999,2.1356279850006104,2.427720546722412,-9.320627212524414,-0.6256103515625,1.3580322265625,-0.457763671875
12.709999900000001,2.1332337856292725,2.449268341064453,-9.306262016296387,-0.2593994140625,1.2359619140625,-0.2593994140625
12.729999900000001,2.123656988143921,2.4636335372924805,-9.275136947631836,-0.091552734375,1.251220703125,-0.4425048828125
12.7499999,2.1116859912872314,2.4851813316345215,-9.239224433898926,0.0152587890625,0.7781982421875,-0.79345703125
12.7699999,2.097320795059204,2.5019407272338867,-9.2033109664917,0.42724609375,0.3662109375,0.1220703125
12.789999900000002,2.094926595687866,2.5043349266052246,-9.181763648986816,1.0528564453125,0.0457763671875,1.2359619140625
12.809999900000001,2.0925323963165283,2.4851813316345215,-9.193734169006348,0.8697509765625,-0.5035400390625,0.7781982421875
12.8299999,2.097320795059204,2.454056739807129,-9.241618156433105,0.701904296875,-0.244140625,-0.67138671875
12.8499999,2.1045033931732178,2.406172752380371,-9.30386734008789,0.91552734375,0.79345703125,-0.3662109375
12.8699999,2.1116859912872314,2.3774423599243164,-9.361329078674316,1.007080078125,1.251220703125,-0.091552734375
12.889999900000001,2.1164743900299072,2.3558945655822754,-9.387664794921875,0.5340576171875,1.0986328125,-0.5340576171875
12.9099999,2.1164743900299072,2.341529369354248,-9.385271072387695,0.1983642578125,0.396728515625,-1.0833740234375
12.9299999,2.1068975925445557,2.346317768096924,-9.368511199951172,0.1983642578125,0.335693359375,-1.2054443359375
12.9499999,2.094926595687866,2.3702597618103027,-9.354146003723145,0.091552734375,0.6866455078125,-0.8697509765625
12.969999900000001,2.0877439975738525,2.3989901542663574,-9.337387084960938,0.91552734375,0.9918212890625,-0.335693359375
12.9899999,2.0877439975738525,2.4372973442077637,-9.315838813781738,0.2593994140625,0.8087158203125,-0.335693359375
13.0099999,2.0925323963165283,2.4372973442077637,-9.301473617553711,-0.30517578125,0.2288818359375,-0.1678466796875
13.0299999,2.094926595687866,2.4444799423217773,-9.294290542602539,0.0762939453125,0.3662109375,-0.7476806640625
13.049999900000001,2.0901381969451904,2.4420857429504395,-9.318233489990234,-0.518798828125,0.274658203125,-0.9002685546875
13.069999900000001,2.0853497982025146,2.4396915435791016,-9.349357604980469,-0.640869140625,0.6256103515625,0.42724609375
13.0899999,2.0853497982025146,2.432508945465088,-9.385271072387695,-0.335693359375,1.2969970703125,0.8697509765625
13.1099999,2.1045033931732178,2.403778553009033,-9.366117477416992,-0.6256103515625,1.312255859375,0.091552734375
13.129999900000001,2.1116859912872314,2.38462495803833,-9.320627212524414,-0.5950927734375,0.8392333984375,-0.06103515625
13.149999900000001,2.1116859912872314,2.3798365592956543,-9.277531623840332,-0.6103515625,0.1678466796875,-0.8697509765625
13.1699999,2.10210919380188,2.3918075561523438,-9.251194953918457,-0.701904296875,0.42724609375,-0.6561279296875
13.1899999,2.097320795059204,2.410961151123047,-9.246406555175781,-0.457763671875,0.579833984375,0.1678466796875
13.209999900000001,2.0877439975738525,2.434903144836426,-9.248801231384277,-0.1068115234375,0.4425048828125,0.030517578125
13.229999900000001,2.0805611610412598,2.449268341064453,-9.263166427612305,0,-0.0457763671875,-0.5035400390625
13.2499999,2.073378562927246,2.456450939178467,-9.275136947631836,0.4730224609375,0.2899169921875,-0.2899169921875
13.2699999,2.0685901641845703,2.456450939178467,-9.284713745117188,0.6103515625,0.7781982421875,0.4119873046875
13.289999900000002,2.0638017654418945,2.456450939178467,-9.294290542602539,0.4425048828125,0.213623046875,0.1373291015625
13.309999900000001,2.0638017654418945,2.449268341064453,-9.306262016296387,0.1983642578125,-0.0457763671875,0.1678466796875
13.3299999,2.0685901641845703,2.427720546722412,-9.32541561126709,0.152587890625,0.1983642578125,0.5950927734375
13.3499999,2.0685901641845703,2.4205379486083984,-9.351752281188965,0.213623046875,0.48828125,0
13.3699999,2.073378562927246,2.3918075561523438,-9.38048267364502,-0.42724609375,0.3509521484375,0.1373291015625
13.389999900000001,2.078166961669922,2.3582887649536133,-9.397241592407227,-1.8463134765625,0.3814697265625,0.335693359375
13.4099999,2.0829553604125977,2.3343467712402344,-9.402029991149902,-2.4871826171875,0.457763671875,-1.0833740234375
13.4299999,2.0853497982025146,2.3127987384796143,-9.385271072387695,-4.08935546875,0.42724609375,-1.922607421875
13.4499999,2.0877439975738525,2.3247697353363037,-9.35893440246582,-3.4027099609375,-0.0152587890625,-1.7547607421875
13.469999900000001,2.0829553604125977,2.3774423599243164,-9.318233489990234,-2.0751953125,0.4425048828125,-1.708984375
13.4899999,2.075772762298584,2.432508945465088,-9.29189682006836,-1.89208984375,-0.030517578125,-0.3662109375
13.5099999,2.0638017654418945,2.492363929748535,-9.27034854888916,-2.0904541015625,0.0457763671875,-0.2593994140625
13.5299999,2.049436569213867,2.52109432220459,-9.263166427612305,-2.288818359375,0.1068115234375,-0.518798828125
13.549999900000001,2.0374655723571777,2.5498247146606445,-9.27034854888916,-1.129150390625,-0.030517578125,-1.2359619140625
13.569999900000001,2.032677173614502,2.557007312774658,-9.27034854888916,0.0457763671875,0.5035400390625,0.1983642578125
13.5899999,2.0398597717285156,2.535459518432617,-9.275136947631836,0.0152587890625,0.457763671875,1.4190673828125
13.6099999,2.049436569213867,2.513911724090576,-9.27034854888916,-0.30517578125,0.0152587890625,-0.335693359375
13.629999900000001,2.056619167327881,2.477998733520508,-9.260771751403809,0.2899169921875,0.1220703125,-1.190185546875
13.649999900000001,2.054224967956543,2.470816135406494,-9.253589630126953,0.5645751953125,-0.274658203125,-0.2288818359375
13.6699999,2.0446481704711914,2.47560453414917,-9.258378028869629,0.579833984375,-0.67138671875,1.007080078125
13.6899999,2.0374655723571777,2.4803929328918457,-9.275136947631836,0.396728515625,-0.2593994140625,0.823974609375
13.709999900000001,2.03507137298584,2.4636335372924805,-9.306262016296387,0.1068115234375,-0.30517578125,-0.2593994140625
13.729999900000001,2.032677173614502,2.43011474609375,-9.337387084960938,-0.3204345703125,-0.1678466796875,-0.762939453125
13.7499999,2.027888774871826,2.410961151123047,-9.368511199951172,-0.4119873046875,0.0152587890625,-0.9918212890625
13.7699999,2.0231003761291504,2.410961151123047,-9.373299598693848,0.0762939453125,0.3814697265625,-0.2593994140625
13.789999900000002,2.011129379272461,2.432508945465088,-9.366117477416992,-0.2899169921875,0.274658203125,0
13.809999900000001,2.006340980529785,2.449268341064453,-9.344569206237793,-0.5340576171875,-0.1068115234375,-0.396728515625
13.8299999,2.006340980529785,2.4612393379211426,-9.327810287475586,-0.0762939453125,-0.244140625,-0.9918212890625
13.8499999,2.008735179901123,2.4684219360351562,-9.32302188873291,-0.6256103515625,-0.030517578125,-0.91552734375
13.8699999,2.011129379272461,2.470816135406494,-9.337387084960938,-0.8544921875,0.30517578125,-0.1220703125
13.889999900000001,2.0039467811584473,2.473210334777832,-9.351752281188965,-0.3509521484375,0.701904296875,0.030517578125
13.9099999,1.98958158493042,2.4827871322631836,-9.361329078674316,-0.3204345703125,0.8087158203125,-0.67138671875
13.9299999,1.9800047874450684,2.4875755310058594,-9.349357604980469,-0.335693359375,0.823974609375,-0.42724609375
13.9499999,1.9752163887023926,2.499546527862549,-9.337387084960938,-0.54931640625,0.457763671875,-0.030517578125
13.969999900000001,1.9847931861877441,2.5043349266052246,-9.32541561126709,-0.8392333984375,0.3662109375,0.2899169921875
13.9899999,2.0015525817871094,2.5019407272338867,-9.334992408752441,-0.6866455078125,0.579833984375,0.152587890625
14.0099999,2.013523578643799,2.4803929328918457,-9.351752281188965,-0.885009765625,1.007080078125,-0.396728515625
14.0299999,2.0183119773864746,2.4588451385498047,-9.3828763961792,-0.9002685546875,1.251220703125,-0.6256103515625
14.049999900000001,2.013523578643799,2.4468741416931152,-9.390059471130371,-1.3885498046875,1.4801025390625,-0.4425048828125
14.069999900000001,2.006340980529785,2.4468741416931152,-9.38048267364502,-1.0223388671875,1.5716552734375,-0.30517578125
14.0899999,1.9967641830444336,2.4636335372924805,-9.346963882446289,-0.9613037109375,1.1749267578125,-0.457763671875
14.1099999,1.98958158493042,2.4851813316345215,-9.301473617553711,-0.640869140625,0.9002685546875,-0.518798828125
14.129999900000001,1.9847931861877441,2.5067291259765625,-9.27034854888916,-0.2899169921875,0.6256103515625,-0.18310546875
14.149999900000001,1.9847931861877441,2.5234885215759277,-9.263166427612305,-0.274658203125,0.5340576171875,-0.030517578125
14.1699999,1.987187385559082,2.537853717803955,-9.277531623840332,-0.3662109375,0.9613037109375,0
14.1899999,1.9919757843017578,2.540247917175293,-9.306262016296387,-0.6103515625,1.2054443359375,0.5035400390625
14.209999900000001,1.9991583824157715,2.52109432220459,-9.32541561126709,-0.3509521484375,1.2969970703125,0.5950927734375
14.229999900000001,2.0015525817871094,2.5019407272338867,-9.32302188873291,0.0152587890625,1.3885498046875,-0.4425048828125
14.2499999,2.0015525817871094,2.4827871322631836,-9.30386734008789,-0.18310546875,0.91552734375,-0.7476806640625
14.2699999,2.0015525817871094,2.477998733520508,-9.27034854888916,-0.0457763671875,0.4425048828125,-0.0457763671875
14.289999900000002,1.9991583824157715,2.494758129119873,-9.23682975769043,0.1068115234375,0.1678466796875,0.1373291015625
14.309999900000001,1.9967641830444336,2.513911724090576,-9.217676162719727,0.396728515625,-0.1220703125,-0.1220703125
14.3299999,1.9943699836730957,2.52109432220459,-9.224859237670898,0.4425048828125,-0.3509521484375,-0.030517578125
14.3499999,1.9943699836730957,2.518700122833252,-9.253589630126953,0.30517578125,-0.274658203125,-0.1068115234375
14.3699999,1.9919757843017578,2.5067291259765625,-9.296685218811035,-0.2593994140625,-0.0762939453125,-0.3204345703125
14.389999900000001,1.98958158493042,2.4803929328918457,-9.332598686218262,-0.1678466796875,0.18310546875,0.2288818359375
14.4099999,1.987187385559082,2.4660277366638184,-9.32302188873291,-0.8544921875,0.335693359375,-0.2593994140625
14.4299999,1.9847931861877441,2.4660277366638184,-9.294290542602539,-1.0833740234375,-0.946044921875,-1.251220703125
14.4499999,1.9847931861877441,2.477998733520508,-9.23443603515625,-1.03759765625,-1.7547607421875,-0.9918212890625
14.469999900000001,1.9823989868164062,2.5019407272338867,-9.198522567749023,-0.30517578125,-2.0751953125,-0.79345703125
14.4899999,1.9752163887023926,2.516305923461914,-9.191340446472168,-1.03759765625,-2.38037109375,-0.7781982421875
14.5099999,1.9608511924743652,2.5043349266052246,-9.220070838928223,-2.1514892578125,-2.86865234375,-0.9002685546875
14.5299999,1.946485996246338,2.473210334777832,-9.272743225097656,-1.129150390625,-2.44140625,-1.129150390625
14.549999900000001,1.9345149993896484,2.4468741416931152,-9.320627212524414,-0.091552734375,-1.77001953125,-1.434326171875
14.569999900000001,1.9249382019042969,2.410961151123047,-9.35893440246582,-0.4730224609375,-1.953125,-1.617431640625
14.5899999,1.9177556037902832,2.3965959548950195,-9.361329078674316,-1.312255859375,-2.1514892578125,-2.5787353515625
14.6099999,1.900996208190918,2.3942017555236816,-9.351752281188965,-2.777099609375,-2.74658203125,-3.6163330078125
14.629999900000001,1.8531121015548706,2.4851813316345215,-9.339780807495117,0.8697509765625,-2.13623046875,-2.685546875
14.649999900000001,1.8315643072128296,2.564189910888672,-9.368511199951172,-0.701904296875,-2.2430419921875,-2.0751953125
14.6699999,1.821987509727478,2.6408045291900635,-9.433155059814453,-2.38037109375,-2.2735595703125,-1.7547607421875
14.6899999,1.8195933103561401,2.6791117191314697,-9.488221168518066,-1.922607421875,-0.7171630859375,-0.701904296875
14.709999900000001,1.8148049116134644,2.676717519760132,-9.524134635925293,-0.396728515625,0.762939453125,-0.213623046875
14.729999900000001,1.8124107122421265,2.6455929279327393,-9.526528358459473,-0.2899169921875,0.4119873046875,-0.885009765625
14.7499999,1.8076223134994507,2.5929205417633057,-9.514557838439941,-1.0833740234375,0.30517578125,-1.312255859375
14.7699999,1.7980455160140991,2.537853717803955,-9.502586364746094,-1.15966796875,1.251220703125,-1.2359619140625
14.789999900000002,1.7956513166427612,2.5330653190612793,-9.548076629638672,-1.0528564453125,1.3885498046875,-2.62451171875
14.809999900000001,1.7860745191574097,2.535459518432617,-9.667786598205566,-3.6773681640625,0.9613037109375,-2.777099609375
14.8299999,1.7597382068634033,2.6647465229034424,-10.072406768798828,-9.0789794921875,-1.5869140625,-4.302978515625
14.8499999,1.7190368175506592,3.0310592651367188,-10.979808807373047,-7.7362060546875,1.3427734375,-3.4942626953125
14.8699999,1.6519991159439087,3.44765043258667,-12.263101577758789,-2.7923583984375,28.2440185546875,9.5977783203125
14.889999900000001,1.5490485429763794,3.8786067962646484,-13.891158103942871,-9.063720703125,55.3436279296875,18.3868408203125
14.9099999,1.4437036514282227,4.153939723968506,-15.433024406433105,-34.60693359375,68.206787109375,16.4642333984375
14.9299999,1.3479355573654175,4.331110954284668,-16.711528778076172,-57.7850341796875,77.9266357421875,13.3514404296875
14.9499999,1.292868971824646,4.570530891418457,-17.86313819885254,-50.5523681640625,99.3194580078125,21.1029052734375
14.969999900000001,1.292868971824646,4.967968463897705,-18.454505920410156,-25.6195068359375,153.6407470703125,39.36767578125
14.9899999,1.3479355573654175,5.195417881011963,-18.294095993041992,-12.5274658203125,206.11572265625,61.737060546875
15.0099999,1.4532804489135742,5.284003257751465,-17.120935440063477,-20.8892822265625,213.623046875,63.96484375
15.0299999,1.6065093278884888,4.7620673179626465,-14.721946716308594,-24.810791015625,212.8448486328125,68.6492919921875
15.049999900000001,1.9033904075622559,4.039018154144287,-11.60708999633789,-26.6265869140625,207.5042724609375,68.3441162109375
15.069999900000001,2.365471363067627,3.114856481552124,-8.303091049194336,-25.0701904296875,192.291259765625,67.87109375
15.0899999,2.9305028915405273,2.2002713680267334,-5.073313236236572,-23.834228515625,181.2286376953125,68.878173828125
15.1099999,3.536235809326172,1.290474772453308,-2.1595699787139893,-15.80810546875,165.46630859375,63.5833740234375
15.129999900000001,4.046200752258301,0.4141969084739685,0.35673606395721436,-6.65283203125,134.4146728515625,48.492431640625
15.149999900000001,4.371812343597412,-0.3902548849582672,2.5905263423919678,2.9296875,104.06494140625,27.7252197265625
15.1699999,4.5394062995910645,-1.0558429956436157,4.623203277587891,18.402099609375,75.897216796875,10.284423828125
15.1899999,4.527435302734375,-1.3407529592514038,6.399701118469238,14.4805908203125,25.08544921875,-7.4920654296875
15.209999900000001,4.355052947998047,-1.3215993642807007,7.85537576675415,5.4168701171875,-36.43798828125,-18.7225341796875
15.229999900000001,4.043806552886963,-1.1492167711257935,8.767566680908203,10.0250244140625,-85.296630859375,-19.1650390625
15.2499999,3.6559460163116455,-0.8403648138046265,9.026140213012695,28.8543701171875,-123.8861083984375,-30.1513671875
15.2699999,3.287238836288452,-0.7541735172271729,8.429984092712402,57.952880859375,-166.50390625,-35.736083984375
15.289999900000002,2.9735984802246094,-0.9600749015808105,7.393294811248779,69.2901611328125,-199.615478515625,-40.71044921875
15.309999900000001,2.63362193107605,-1.3982137441635132,5.681440830230713,49.957275390625,-242.401123046875,-57.403564453125
15.3299999,2.1164743900299072,-1.721431016921997,3.2752678394317627,39.5660400390625,-283.7371826171875,-86.1968994140625
15.3499999,1.3503297567367554,-1.5729905366897583,0.16998831927776337,85.4034423828125,-278.1982421875,-97.137451171875
15.3699999,0.1843535304069519,-1.2449848651885986,-3.3303346633911133,62.744140625,-272.3846435546875,-79.7882080078125
15.389999900000001,-1.434126853942871,0.43095630407333374,-7.5201873779296875,-59.6160888671875,-327.5146484375,-106.0028076171875
15.4099999,-2.940079689025879,2.367865562438965,-13.132196426391602,-49.774169921875,-347.6104736328125,-96.8017578125
15.4299999,-4.034229755401611,4.177882194519043,-18.325220108032227,82.611083984375,-172.4395751953125,-40.8477783203125
15.4499999,-4.467580318450928,5.791574001312256,-23.168689727783203,99.7314453125,-56.9610595703125,-28.50341796875
15.469999900000001,-4.027047157287598,6.593631267547607,-26.11834716796875,-11.3677978515625,-72.723388671875,-45.1812744140625
15.4899999,-3.155557870864868,6.675034523010254,-26.513389587402344,-43.5028076171875,-54.74853515625,-22.76611328125
15.5099999,-2.1954829692840576,6.845022678375244,-25.268404006958008,13.1988525390625,11.7340087890625,-0.54931640625
15.5299999,-1.278503656387329,6.550535678863525,-23.288400650024414,37.29248046875,56.5643310546875,26.5960693359375
15.549999900000001,-0.5554547905921936,6.100425720214844,-21.02587890625,4.058837890625,70.6939697265625,32.0281982421875
15.569999900000001,-0.12210428714752197,5.276820659637451,-18.974048614501953,-26.275634765625,80.810546875,31.585693359375
15.5899999,-0.011971008032560349,4.587290287017822,-17.638084411621094,-36.4837646484375,90.3167724609375,34.912109375
15.6099999,-0.22744916379451752,4.194641590118408,-17.101781845092773,-38.0859375,114.349365234375,41.595458984375
15.629999900000001,-0.6847416758537292,4.352658748626709,-17.113754272460938,-41.1834716796875,150.7568359375,54.901123046875
15.649999900000001,-1.2066776752471924,4.632780075073242,-17.334020614624023,-46.32568359375,178.64990234375,76.11083984375
15.6699999,-1.6112977266311646,4.8937482833862305,-17.171215057373047,-49.3316650390625,198.1353759765625,90.39306640625
15.6899999,-1.7836803197860718,4.774038314819336,-16.350004196166992,-52.0172119140625,216.0186767578125,93.68896484375
15.709999900000001,-1.6208745241165161,4.256890773773193,-14.72673511505127,-52.6275634765625,227.72216796875,96.954345703125
15.729999900000001,-1.1492167711257935,3.270479440689087,-12.471396446228027,-49.8504638671875,226.470947265625,102.3101806640625
15.7499999,-0.4381389021873474,2.2194249629974365,-9.713275909423828,-41.748046875,222.8240966796875,94.8028564453125
15.7699999,0.4357447028160095,1.0295066833496094,-6.687005519866943,-21.8353271484375,220.5352783203125,88.836669921875
15.789999900000002,1.3646949529647827,-0.15801730751991272,-3.5434184074401855,-9.2315673828125,204.58984375,88.134765625
15.809999900000001,2.3056161403656006,-1.237802267074585,-0.5386953949928284,-14.2974853515625,166.0919189453125,71.1822509765625
15.8299999,3.224989652633667,-2.346317768096924,2.346317768096924,-19.10400390625,130.43212890625,49.346923828125
15.8499999,4.07014274597168,-3.2824504375457764,5.0254292488098145,-8.6517333984375,102.691650390625,24.6429443359375
15.869999900000002,4.711789131164551,-3.9240965843200684,7.50582218170166,1.9378662109375,58.9599609375,0.640869140625
15.889999900000001,5.032611846923828,-4.084507942199707,9.560047149658203,-3.23486328125,-7.8582763671875,-20.8282470703125
15.9099999,4.970362663269043,-3.9647979736328125,10.955866813659668,-3.2501220703125,-72.021484375,-31.646728515625
15.9299999,4.532223701477051,-3.514688014984131,11.195286750793457,10.711669921875,-119.5220947265625,-50.140380859375
15.9499999,3.8139634132385254,-3.0310592651367188,10.273519515991211,33.0047607421875,-153.3660888671875,-69.610595703125
15.969999900000001,2.911349296569824,-2.367865562438965,8.461109161376953,48.5992431640625,-177.947998046875,-83.953857421875
15.9899999,1.9345149993896484,-1.6184803247451782,6.086060523986816,76.2481689453125,-207.977294921875,-87.646484375
16.0099999,0.9457096457481384,-0.8595184087753296,3.5960910320281982,94.940185546875,-235.107421875,-84.9761962890625
16.0299999,-0.08619125932455063,-0.002394201699644327,1.1492167711257935,66.6961669921875,-269.500732421875,-90.4388427734375
16.0499999,-1.091755986213684,0.8738836050033569,-1.7860745191574097,34.5916748046875,-319.1680908203125,-92.1630859375
16.0699999,-1.9704279899597168,1.436521053314209,-5.032611846923828,92.010498046875,-309.9365234375,-74.4476318359375
16.089999900000002,-2.9305028915405273,1.9297266006469727,-8.406042098999023,104.9652099609375,-261.3983154296875,-69.183349609375
16.109999900000002,-3.780444383621216,2.535459518432617,-12.67250919342041,1.922607421875,-307.18994140625,-87.95166015625
16.1299999,-4.462791919708252,3.1723172664642334,-17.61174774169922,-28.3355712890625,-300.3082275390625,-68.145751953125
16.1499999,-4.874594688415527,4.786009311676025,-28.536489486694336,47.9736328125,-39.2303466796875,-46.4630126953125
16.1699999,-4.486733913421631,5.614402770996094,-32.654518127441406,-13.916015625,13.3209228515625,-34.332275390625
16.1899999,-3.9647979736328125,6.581660270690918,-34.122161865234375,-37.5518798828125,73.883056640625,6.6986083984375
16.2099999,-3.4979286193847656,7.5632829666137695,-33.43023681640625,-32.745361328125,126.434326171875,33.4930419921875
16.2299999,-3.177105665206909,7.9631147384643555,-30.8085880279541,-34.36279296875,175.3387451171875,54.0008544921875
16.249999900000002,-3.00711727142334,7.728483200073242,-27.310659408569336,-59.326171875,197.2198486328125,70.25146484375
16.269999900000002,-2.985569477081299,6.780379295349121,-23.63795280456543,-74.249267578125,208.49609375,80.1239013671875
16.2899999,-3.07415509223938,5.5114521980285645,-20.151996612548828,-63.2781982421875,242.7978515625,81.54296875
16.3099999,-3.184288263320923,4.213795185089111,-17.17839813232422,-65.338134765625,267.0440673828125,81.6650390625
16.3299999,-3.2561142444610596,2.9496564865112305,-14.34366226196289,-59.8602294921875,281.3873291015625,99.1973876953125
16.3499999,-3.1483752727508545,1.745373010635376,-11.379640579223633,-41.68701171875,284.8358154296875,106.3995361328125
16.3699999,-2.784456491470337,0.5386953949928284,-8.17141056060791,-22.857666015625,274.8565673828125,94.90966796875
16.3899999,-2.1954829692840576,-0.6631938815116882,-4.651933670043945,-21.9573974609375,253.662109375,78.2470703125
16.4099999,-1.4460978507995605,-1.659181833267212,-1.094150185585022,-34.3017578125,223.8006591796875,69.15283203125
16.429999900000002,-0.5674257874488831,-2.63362193107605,2.8610711097717285,-32.1502685546875,203.5064697265625,67.9931640625
16.4499999,0.40940847992897034,-3.3016040325164795,6.9910688400268555,-10.68115234375,155.5328369140625,42.29736328125
16.4699999,1.41257905960083,-3.957615375518799,11.125855445861816,13.3514404296875,64.5751953125,11.260986328125
16.4899999,2.3127987384796143,-4.24970817565918,14.702792167663574,21.4996337890625,-13.153076171875,-9.490966796875
16.5099999,2.9257144927978516,-4.048594951629639,16.838420867919922,17.2882080078125,-93.1396484375,-26.031494140625
16.5299999,3.157952070236206,-3.4763808250427246,17.12811851501465,21.1334228515625,-159.8968505859375,-35.5072021484375
16.5499999,2.9975404739379883,-2.604891538619995,15.641319274902344,40.52734375,-205.9326171875,-46.844482421875
16.5699999,2.5498247146606445,-1.7908629179000854,12.78264331817627,77.81982421875,-241.02783203125,-55.694580078125
16.589999900000002,1.8698714971542358,-1.2641384601593018,9.17936897277832,107.940673828125,-272.0947265625,-59.8602294921875
16.609999900000002,0.9026140570640564,-0.5770025849342346,5.463568210601807,107.6507568359375,-303.4515380859375,-71.71630859375
16.6299999,-0.49320554733276367,0.4165911078453064,1.6615760326385498,82.2601318359375,-352.294921875,-62.1490478515625
16.6499999,-2.2026655673980713,1.37906014919281,-2.7772738933563232,80.9173583984375,-399.932861328125,-15.80810546875
16.6699999,-4.067748546600342,1.0821791887283325,-8.355764389038086,82.1685791015625,-387.298583984375,23.0255126953125
16.6899999,-5.858611583709717,1.2952631711959839,-14.85362720489502,25.6195068359375,-318.42041015625,-57.4951171875
16.7099999,-7.058106422424316,0.6871358752250671,-22.36663246154785,-21.575927734375,-257.6904296875,-78.155517578125
16.7299999,-7.558494567871094,0.9552865028381348,-28.79745864868164,19.134521484375,-142.7154541015625,-32.073974609375
16.749999900000002,-7.383718013763428,2.427720546722412,-32.81013870239258,35.0799560546875,2.197265625,-30.5023193359375
16.769999900000002,-6.552929878234863,4.19224739074707,-34.09103775024414,-39.7186279296875,20.1263427734375,-27.6031494140625
16.7899999,-5.324704647064209,5.564124584197998,-32.57550811767578,-80.535888671875,26.092529296875,22.8729248046875
16.8099999,-3.97916316986084,6.404489517211914,-29.508535385131836,-27.2979736328125,86.1663818359375,42.755126953125
16.8299999,-2.698265314102173,6.1770405769348145,-26.00581932067871,8.3465576171875,147.2625732421875,36.285400390625
16.8499999,-1.7094600200653076,5.0876784324646,-22.72336769104004,-27.7557373046875,163.26904296875,37.2772216796875
16.8699999,-1.2090718746185303,3.801992416381836,-20.132843017578125,-74.3255615234375,158.9508056640625,38.26904296875
16.8899999,-1.1540051698684692,2.8850131034851074,-18.21748161315918,-83.9996337890625,179.5501708984375,46.1883544921875
16.9099999,-1.4053963422775269,2.3247697353363037,-17.01319694519043,-53.28369140625,220.52001953125,63.4307861328125
16.929999900000002,-1.7741034030914307,2.118868589401245,-15.928624153137207,-38.0706787109375,250.4425048828125,67.3370361328125
16.9499999,-1.9943699836730957,1.802833914756775,-14.65011978149414,-50.628662109375,252.0294189453125,63.3392333984375
16.9699999,-1.9943699836730957,1.41257905960083,-12.90714168548584,-58.990478515625,246.9482421875,57.9071044921875
16.9899999,-1.7286136150360107,1.0462661981582642,-10.709263801574707,-45.5322265625,260.3759765625,56.2744140625
17.0099999,-1.2425906658172607,0.6440402865409851,-8.056488990783691,-18.768310546875,269.4244384765625,62.0880126953125
17.0299999,-0.5722141861915588,0.3423708379268646,-5.17626428604126,-8.9874267578125,250.1983642578125,56.396484375
17.0499999,0.22505496442317963,0.06703764945268631,-2.032677173614502,-21.6522216796875,215.240478515625,45.9136962890625
17.0699999,1.1468225717544556,-0.35913026332855225,0.9074024558067322,-33.0352783203125,180.6182861328125,42.694091796875
17.089999900000002,2.118868589401245,-0.7493851184844971,3.603273630142212,-28.0914306640625,147.6593017578125,34.5916748046875
17.109999900000002,3.0597896575927734,-1.0821791887283325,5.872976779937744,-10.986328125,107.97119140625,20.3857421875
17.1299999,3.8594532012939453,-1.359906554222107,7.845798969268799,3.4637451171875,68.5577392578125,13.1072998046875
17.1499999,4.422090530395508,-1.4844050407409668,9.390059471130371,0.91552734375,15.533447265625,3.11279296875
17.1699999,4.675876140594482,-1.4628572463989258,10.287884712219238,-2.01416015625,-46.9207763671875,-7.720947265625
17.1899999,4.6255974769592285,-1.2641384601593018,10.38604736328125,19.927978515625,-86.9140625,-17.2119140625
17.2099999,4.321534156799316,-1.0007762908935547,9.785101890563965,53.192138671875,-112.0758056640625,-17.88330078125
17.2299999,3.823540210723877,-0.6919242739677429,8.588001251220703,67.9931640625,-147.03369140625,-19.22607421875
17.249999900000002,3.1723172664642334,-0.40222588181495667,7.072471618652344,66.802978515625,-193.695068359375,-30.1055908203125
17.269999900000002,2.389413356781006,-0.30885201692581177,5.348646640777588,71.2432861328125,-231.781005859375,-34.8052978515625
17.2899999,1.4844050407409668,-0.21308395266532898,3.2632968425750732,74.188232421875,-263.3514404296875,-38.970947265625
17.3099999,0.4836287498474121,0.1628057211637497,0.8906430602073669,62.68310546875,-291.44287109375,-42.0989990234375
17.3299999,-0.49320554733276367,0.13168109953403473,-2.10210919380188,55.267333984375,-324.40185546875,-23.7884521484375
17.3499999,-1.5275006294250488,0.21308395266532898,-5.288791656494141,78.3843994140625,-316.7572021484375,-35.308837890625
17.3699999,-2.5067291259765625,0.22744916379451752,-9.299078941345215,46.69189453125,-328.1707763671875,-57.8765869140625
17.3899999,-3.294421434402466,0.5386953949928284,-13.93664836883545,-4.9591064453125,-329.3609619140625,-47.5311279296875
17.409999900000003,-3.648763418197632,1.0103530883789062,-18.588581085205078,44.7540283203125,-232.269287109375,-21.514892578125
17.429999900000002,-3.5482068061828613,0.9385270476341248,-22.41212272644043,115.081787109375,-129.1046142578125,-3.7078857421875
17.4499999,-3.136404275894165,1.0438719987869263,-24.868572235107422,3.4332275390625,-127.197265625,-45.0897216796875
17.4699999,-2.6431987285614014,0.751779317855835,-26.585216522216797,-114.5172119140625,-158.69140625,-55.60302734375
17.4899999,-2.4851813316345215,1.3503297567367554,-27.597963333129883,-41.3818359375,-53.7872314453125,-30.8990478515625
17.5099999,-2.5498247146606445,2.43011474609375,-27.964275360107422,35.3240966796875,83.8775634765625,-5.7220458984375
17.5299999,-2.741360902786255,3.6966474056243896,-28.141447067260742,1.861572265625,93.3074951171875,9.613037109375
17.5499999,-3.0406360626220703,4.4292731285095215,-26.97786521911621,-53.8482666015625,110.992431640625,22.3541259765625
17.5699999,-3.4117374420166016,4.869806289672852,-25.629928588867188,-76.141357421875,145.5841064453125,30.5633544921875
17.589999900000002,-3.8379054069519043,4.924872875213623,-24.36339569091797,-74.9053955078125,194.8699951171875,47.66845703125
17.609999900000002,-4.352658748626709,4.7836151123046875,-22.926876068115234,-49.86572265625,257.50732421875,63.262939453125
17.6299999,-4.72376012802124,4.520252704620361,-21.104888916015625,-56.7169189453125,286.4990234375,69.5953369140625
17.6499999,-4.771644115447998,3.7445313930511475,-18.600553512573242,-68.2220458984375,290.5120849609375,83.6334228515625
17.6699999,-3.804386615753174,1.41257905960083,-11.501745223999023,-42.1295166015625,304.99267578125,80.4901123046875
17.6899999,-2.8658595085144043,0.0071826050989329815,-7.390900611877441,-32.04345703125,286.2548828125,75.1495361328125
17.7099999,-1.7525556087493896,-1.1348515748977661,-3.3710360527038574,-30.059814453125,254.058837890625,62.80517578125
17.7299999,-0.5626373887062073,-1.9776105880737305,0.4572925269603729,-45.562744140625,219.5587158203125,51.177978515625
17.749999900000002,0.6320692300796509,-2.367865562438965,3.663128614425659,-48.6602783203125,175.6591796875,39.1082763671875
17.769999900000002,1.7717092037200928,-2.5043349266052246,6.356605529785156,-18.0816650390625,141.11328125,33.9202880859375
17.7899999,2.7748796939849854,-2.367865562438965,8.674192428588867,5.615234375,110.626220703125,22.2625732421875
17.8099999,3.5721490383148193,-2.1164743900299072,10.503362655639648,3.204345703125,48.2940673828125,4.4403076171875
17.8299999,4.072536945343018,-1.7860745191574097,11.839327812194824,-0.579833984375,-28.6102294921875,-4.8828125
17.8499999,4.244919776916504,-1.455674648284912,12.342109680175781,7.4920654296875,-81.268310546875,-9.4451904296875
17.8699999,4.110844135284424,-1.2282254695892334,11.906365394592285,24.078369140625,-121.7498779296875,-16.66259765625
17.8899999,3.7421371936798096,-1.1348515748977661,10.589553833007812,41.3970947265625,-159.24072265625,-31.9366455078125
17.909999900000003,3.19865345954895,-1.1755530834197998,8.655038833618164,56.365966796875,-194.88525390625,-47.7447509765625
17.929999900000002,2.497152328491211,-1.1971008777618408,6.461950302124023,60.028076171875,-226.5777587890625,-58.2427978515625
17.9499999,1.6424223184585571,-0.9241618514060974,4.141968727111816,57.6171875,-259.002685546875,-65.948486328125
17.9699999,0.6991068720817566,-0.706289529800415,1.7118542194366455,62.652587890625,-294.7540283203125,-62.469482421875
17.9899999,-0.40222588181495667,-0.2561795711517334,-1.0007762908935547,46.3714599609375,-326.8280029296875,-66.5435791015625
18.0099999,-1.6328455209732056,0.4165911078453064,-3.773261785507202,32.8369140625,-336.639404296875,-77.1484375
18.0299999,-3.023876667022705,1.3263877630233765,-7.5201873779296875,34.149169921875,-355.2398681640625,-59.906005859375
18.0499999,-4.261679172515869,1.8770540952682495,-12.22000503540039,77.545166015625,-330.810546875,-25.3143310546875
18.0699999,-5.262455463409424,2.4181437492370605,-17.1999454498291,104.766845703125,-224.2279052734375,-32.3028564453125
18.089999900000002,-5.7341132164001465,2.43011474609375,-22.48394775390625,1.0986328125,-185.60791015625,-39.36767578125
18.109999900000002,-5.724536418914795,2.4396915435791016,-27.38727378845215,-93.0023193359375,-182.2357177734375,-26.580810546875
18.1299999,-5.4252610206604,3.0166940689086914,-31.11743927001953,-25.4364013671875,-69.9310302734375,-21.759033203125
18.1499999,-4.9368438720703125,3.866635799407959,-32.92985153198242,43.1671142578125,99.8992919921875,-0.54931640625
18.1699999,-4.326322555541992,4.757278919219971,-32.88196563720703,13.73291015625,126.9989013671875,22.857666015625
18.1899999,-3.6727054119110107,5.178658485412598,-30.418333053588867,-33.2794189453125,128.23486328125,37.0330810546875
18.2099999,-3.0597896575927734,5.161899089813232,-26.78632926940918,-50.4913330078125,148.1475830078125,37.78076171875
18.2299999,-2.580949544906616,4.467580318450928,-23.096864700317383,-55.8319091796875,176.7730712890625,50.96435546875
18.249999900000002,-2.341529369354248,3.7708675861358643,-20.04904556274414,-59.7991943359375,207.1533203125,53.4515380859375
18.269999900000002,-2.3319525718688965,2.9735984802246094,-17.520767211914062,-56.4422607421875,235.1531982421875,57.159423828125
18.2899999,-2.3582887649536133,2.319981336593628,-15.42823600769043,-63.8885498046875,246.9024658203125,67.19970703125
18.3099999,-2.360682964324951,1.6735470294952393,-13.431471824645996,-52.18505859375,251.89208984375,72.69287109375
18.3299999,-2.1930887699127197,1.094150185585022,-11.307814598083496,-36.56005859375,265.8233642578125,68.115234375
18.3499999,-1.8076223134994507,0.5051765441894531,-9.026140213012695,-43.5943603515625,259.552001953125,63.9190673828125
18.3699999,-1.2234370708465576,0.0071826050989329815,-6.572083473205566,-48.248291015625,239.2730712890625,60.8673095703125
18.3899999,-0.4644751250743866,-0.33997663855552673,-4.041412353515625,-36.6973876953125,219.8333740234375,57.6934814453125
18.409999900000003,0.44532153010368347,-0.7015010714530945,-1.5969325304031372,-17.4102783203125,207.0770263671875,51.1322021484375
18.429999900000002,1.434126853942871,-0.871489405632019,0.7948749661445618,-4.638671875,187.347412109375,35.736083984375
18.4499999,2.473210334777832,-1.1204863786697388,3.1268274784088135,-4.2572021484375,152.0843505859375,25.726318359375
18.4699999,3.5051112174987793,-1.3024457693099976,5.564124584197998,-10.3912353515625,105.3009033203125,17.9443359375
18.4899999,4.414907932281494,-1.5538369417190552,7.915230751037598,-10.7269287109375,48.52294921875,1.89208984375
18.5099999,5.061342239379883,-1.625662922859192,9.871294021606445,-2.960205078125,-17.0440673828125,-23.7884521484375
18.5299999,5.30076265335083,-1.4389152526855469,11.058817863464355,17.3187255859375,-67.3675537109375,-34.11865234375
18.5499999,5.082890033721924,-0.9840168952941895,11.274295806884766,38.4063720703125,-110.0006103515625,-28.656005859375
18.5699999,4.4508209228515625,-0.36152446269989014,10.527304649353027,44.9066162109375,-153.3660888671875,-28.1524658203125
18.589999900000002,3.5194764137268066,0.14365209639072418,8.968679428100586,44.8455810546875,-199.27978515625,-38.7115478515625
18.609999900000002,2.4181437492370605,0.4381389021873474,6.871358871459961,48.4466552734375,-235.8245849609375,-47.607421875
18.6299999,1.290474772453308,0.6392518281936646,4.242525577545166,69.3206787109375,-263.4429931640625,-48.3551025390625
18.6499999,0.26096799969673157,0.8044517636299133,1.3958195447921753,122.4365234375,-266.571044921875,-35.9344482421875
18.6699999,-0.828393816947937,0.43335050344467163,-1.158793568611145,103.118896484375,-269.622802734375,-20.3399658203125
18.6899999,-2.099714994430542,0.38546648621559143,-3.9025487899780273,-19.6685791015625,-352.0355224609375,-57.7392578125
18.7099999,-3.428496837615967,0.3926490843296051,-8.276755332946777,-13.824462890625,-415.069580078125,-74.76806640625
18.7299999,-4.548983097076416,0.8140285611152649,-12.81855583190918,90.7135009765625,-271.8505859375,-42.083740234375
18.749999900000002,-5.200206279754639,1.3120225667953491,-18.239028930664062,98.1292724609375,-156.158447265625,-11.3525390625
18.769999900000002,-5.240907669067383,1.8315643072128296,-22.78801155090332,-34.7900390625,-188.568115234375,-19.83642578125
18.7899999,-4.853046894073486,2.1763293743133545,-26.25960350036621,-124.2828369140625,-188.6138916015625,-38.4521484375
18.8099999,-4.311957359313965,2.9879636764526367,-28.56521987915039,-24.8870849609375,-70.8465576171875,-32.6995849609375
18.8299999,-3.6391866207122803,3.797203779220581,-29.199684143066406,74.371337890625,90.9576416015625,4.608154296875
18.8499999,-2.8107926845550537,4.616020679473877,-28.24439811706543,48.797607421875,100.5859375,19.22607421875
18.8699999,-1.8315643072128296,4.752490520477295,-25.63232421875,-24.2919921875,59.7991943359375,13.0157470703125
18.8899999,-0.8236053586006165,4.158728122711182,-22.438457489013672,-40.9698486328125,82.3822021484375,16.4031982421875
18.909999900000003,0.004788403399288654,3.35667085647583,-20.05143928527832,-18.9971923828125,131.4239501953125,17.0440673828125
18.929999900000002,0.4644751250743866,2.5091233253479004,-18.392257690429688,-4.4708251953125,171.1883544921875,19.317626953125
18.9499999,0.48602294921875,1.98958158493042,-17.173608779907227,-36.80419921875,179.046630859375,17.2271728515625
18.9699999,0.05027823522686958,1.9847931861877441,-16.359580993652344,-63.8885498046875,162.445068359375,17.4560546875
18.9899999,-0.6177040338516235,2.5306711196899414,-15.717934608459473,-58.1512451171875,183.6090087890625,30.8990478515625
19.0099999,-1.2856862545013428,3.023876667022705,-15.176844596862793,-15.350341796875,234.19189453125,61.6912841796875
19.0299999,-1.7190368175506592,3.308786630630493,-14.221558570861816,13.73291015625,268.402099609375,65.521240234375
19.0499999,-1.7573440074920654,2.9735984802246094,-12.418724060058594,-8.0413818359375,255.767822265625,50.872802734375
19.0699999,-1.3766659498214722,2.190694570541382,-9.859322547912598,-40.7867431640625,222.35107421875,44.5098876953125
19.089999900000002,-0.7110779285430908,1.2617442607879639,-6.9024834632873535,-36.5447998046875,208.67919921875,47.4853515625
19.109999900000002,0.10534487664699554,0.5027823448181152,-4.110844135284424,-15.594482421875,204.5135498046875,44.7235107421875
19.1299999,0.9361328482627869,-0.05746084079146385,-1.50355863571167,-5.5999755859375,191.7266845703125,37.4298095703125
19.1499999,1.7334020137786865,-0.48602294921875,0.8667010068893433,-11.962890625,157.4554443359375,34.7137451171875
19.1699999,2.4588451385498047,-0.7541735172271729,3.093308687210083,-30.914306640625,105.04150390625,26.3671875
19.1899999,3.598485231399536,-1.115697979927063,6.933608055114746,-3.326416015625,25.0244140625,3.2958984375
19.2099999,3.914519786834717,-1.1659762859344482,8.38688850402832,18.1884765625,-18.2037353515625,-6.3018798828125
19.2299999,4.000710964202881,-1.0223240852355957,9.370905876159668,19.5465087890625,-71.8994140625,-12.20703125
19.249999900000002,3.869029998779297,-0.8834604024887085,9.658209800720215,16.78466796875,-130.828857421875,-17.2576904296875
19.269999900000002,3.5434184074401855,-0.7565677165985107,9.07641887664795,18.6767578125,-175.994873046875,-28.1982421875
19.2899999,3.069366693496704,-0.7565677165985107,7.63989782333374,28.7628173828125,-208.8470458984375,-42.5567626953125
19.3099999,2.499546527862549,-0.8882488012313843,5.485116004943848,42.236328125,-233.5205078125,-54.4586181640625
19.3299999,1.8124107122421265,-0.8259995579719543,2.8778305053710938,36.43798828125,-265.1519775390625,-66.71142578125
19.3499999,0.9888052940368652,-0.5626373887062073,-0.05985504388809204,29.8004150390625,-294.5404052734375,-67.596435546875
19.3699999,0.028730420395731926,-0.10055647045373917,-3.332728862762451,23.4832763671875,-308.135986328125,-62.957763671875
19.3899999,-1.1180921792984009,0.43095630407333374,-6.943184852600098,8.941650390625,-307.55615234375,-72.8302001953125
19.409999900000003,-2.3127987384796143,1.3215993642807007,-11.185709953308105,-21.42333984375,-308.319091796875,-87.5091552734375
19.429999900000002,-3.3016040325164795,2.434903144836426,-15.751453399658203,21.8658447265625,-248.7335205078125,-75.8056640625
19.4499999,-3.907337188720703,3.4763808250427246,-20.072986602783203,71.6705322265625,-158.69140625,-34.5001220703125
19.4699999,-4.015076160430908,4.189853191375732,-24.025814056396484,8.575439453125,-129.6844482421875,-14.3890380859375
19.4899999,-3.7445313930511475,4.955997467041016,-27.042509078979492,-70.2362060546875,-100.006103515625,-43.4722900390625
19.5099999,-3.2824504375457764,5.51624059677124,-28.823793411254883,-39.398193359375,-10.528564453125,-29.632568359375
19.5299999,-2.7676970958709717,6.246472358703613,-28.988994598388672,16.021728515625,86.0443115234375,20.477294921875
19.5499999,-2.207453966140747,6.845022678375244,-27.710491180419922,15.4571533203125,108.856201171875,41.3970947265625
19.5699999,-1.6136919260025024,6.694188117980957,-25.012226104736328,-11.322021484375,116.0430908203125,39.0777587890625
19.589999900000002,-1.094150185585022,5.846640586853027,-21.856666564941406,-12.5274658203125,138.5040283203125,40.34423828125
19.609999900000002,-0.7493851184844971,4.819528102874756,-18.868703842163086,-9.033203125,164.0472412109375,45.8526611328125
19.6299999,-0.5985504388809204,3.864241600036621,-16.321273803710938,-19.0582275390625,178.558349609375,56.8695068359375
19.6499999,-0.5722141861915588,3.1483752727508545,-14.267047882080078,-20.6146240234375,182.5408935546875,63.4307861328125
19.6699999,-0.5123591423034668,2.561795711517334,-12.354081153869629,-9.063720703125,195.587158203125,63.5223388671875
19.6899999,-0.3016694188117981,1.9321208000183105,-10.496180534362793,-2.9296875,200.1495361328125,65.032958984375
19.7099999,0.05746084079146385,1.3742717504501343,-8.571242332458496,-5.43212890625,184.173583984375,59.0362548828125
19.7299999,0.5506663918495178,0.8164227604866028,-6.426037311553955,-11.9781494140625,167.5262451171875,52.398681640625
19.749999900000002,1.1635819673538208,0.26815059781074524,-4.390965938568115,-17.7001953125,145.751953125,46.8597412109375
19.769999900000002,1.8363527059555054,-0.12928688526153564,-2.63362193107605,-15.56396484375,119.6746826171875,35.46142578125
19.7899999,2.5258827209472656,-0.5219359993934631,-1.41257905960083,0.91552734375,107.1014404296875,27.4505615234375
19.8099999,3.134010076522827,-0.7709329724311829,-0.6991068720817566,26.123046875,107.635498046875,19.3023681640625
19.8299999,3.5697548389434814,-0.8379706144332886,-0.24660277366638184,31.31103515625,99.30419921875,7.0037841796875
19.8499999,3.77565598487854,-0.7350199222564697,0.14365209639072418,-6.256103515625,64.9566650390625,2.1820068359375
19.8699999,3.737348794937134,-0.4357447028160095,0.8667010068893433,-26.519775390625,23.681640625,0.1373291015625
19.8899999,3.576937437057495,-0.24899697303771973,1.721431016921997,2.7923583984375,-10.1776123046875,2.0294189453125
19.909999900000003,3.3494882583618164,-0.18914192914962769,2.7269957065582275,23.3612060546875,-47.4090576171875,-10.498046875
19.929999900000002,3.1459810733795166,-0.24181437492370605,3.4308910369873047,23.895263671875,-87.09716796875,-29.815673828125
19.9499999,2.978386878967285,-0.5482721924781799,3.9264907836914062,32.53173828125,-118.7744140625,-27.9541015625
19.9699999,2.786850690841675,-0.9983820915222168,4.067748546600342,47.149658203125,-151.5960693359375,-30.0140380859375
19.9899999,2.382230758666992,-1.1324573755264282,4.132391929626465,25.32958984375,-206.939697265625,-56.57958984375
20.0099999,1.6855180263519287,-0.8523358106613159,3.4955344200134277,-8.392333984375,-286.5447998046875,-75.531005859375
20.0299999,0.49799394607543945,-0.42856210470199585,1.7142484188079834,0.518798828125,-339.7979736328125,-56.427001953125
20.0499999,-1.1994950771331787,0.6560112833976746,-2.011129379272461,-28.8543701171875,-356.170654296875,-65.216064453125
20.0699999,-2.9496564865112305,2.1356279850006104,-8.614337921142578,-58.0291748046875,-359.4818115234375,-80.841064453125
20.089999900000002,-4.369418144226074,3.687070608139038,-16.012420654296875,-7.7972412109375,-215.423583984375,-49.7283935546875
20.109999900000002,-5.015852451324463,5.310339450836182,-22.941240310668945,51.57470703125,-76.8585205078125,-11.810302734375
20.1299999,-4.680664539337158,6.62236213684082,-27.176584243774414,41.412353515625,-28.8238525390625,-4.119873046875
20.1499999,-3.60566782951355,7.0772600173950195,-28.098350524902344,3.72314453125,-20.2178955078125,4.669189453125
20.1699999,-2.2242133617401123,6.98628044128418,-26.161441802978516,17.8375244140625,18.9666748046875,18.4478759765625
20.1899999,-0.9145850539207458,6.603208065032959,-23.008277893066406,25.848388671875,44.586181640625,31.158447265625
20.2099999,0.033518824726343155,5.92325496673584,-19.42894744873047,18.9971923828125,56.94580078125,49.4842529296875
20.2299999,0.5051765441894531,5.34625244140625,-16.172832489013672,17.181396484375,68.7103271484375,56.2744140625
20.249999900000002,0.5339069962501526,4.955997467041016,-13.42668342590332,19.866943359375,71.9757080078125,62.9730224609375
