# Time (seconds),Accel_X,Accel_Y,Accel_Z,Gyro_X,Gyro_Y,Gyro_Z
0.0099999,-9.615114212036133,1.9991583824157715,2.10210919380188,4.241943359375,-13.5040283203125,89.9658203125
0.029999900000000003,-9.397241592407227,2.6216509342193604,1.8411411046981812,13.8092041015625,-24.383544921875,61.1572265625
0.0499999,-9.102754592895508,3.098097085952759,1.6352397203445435,12.7410888671875,-30.9906005859375,46.7376708984375
0.0699999,-8.939949035644531,3.3518824577331543,1.3742717504501343,-1.3580322265625,-29.083251953125,48.187255859375
0.08999990000000001,-8.78432559967041,3.3877954483032227,1.0678139925003052,-9.27734375,-40.4815673828125,38.14697265625
0.10999990000000001,-8.65982723236084,3.251325845718384,0.7086837291717529,-0.274658203125,-58.7005615234375,3.4637451171875
0.1299999,-8.520963668823242,3.069366693496704,0.3974374830722809,-6.5155029296875,-56.793212890625,-23.6053466796875
0.14999990000000002,-8.516175270080566,2.875436305999756,0.10295066982507706,-20.263671875,-33.02001953125,5.18798828125
0.1699999,-8.700529098510742,2.676717519760132,-0.3495534360408783,-18.1732177734375,-19.866943359375,52.06298828125
0.1899999,-9.066842079162598,2.456450939178467,-0.8044517636299133,-30.9906005859375,-7.354736328125,49.7283935546875
0.20999990000000002,-9.390059471130371,2.1308395862579346,-1.2401964664459229,-60.9130859375,7.99560546875,13.73291015625
0.2299999,-9.624691009521484,1.7286136150360107,-1.5849615335464478,-71.2127685546875,19.0582275390625,-7.293701171875
0.2499999,-9.682151794433594,1.3263877630233765,-1.821987509727478,-58.349609375,31.158447265625,2.9144287109375
0.2699999,-9.694122314453125,0.9457096457481384,-2.0661959648132324,-43.8995361328125,44.830322265625,10.6658935546875
0.28999990000000003,-9.770736694335938,0.6751648783683777,-2.410961151123047,-42.388916015625,65.155029296875,-0.2288818359375
0.3099999,-9.919178009033203,0.608127236366272,-2.8347349166870117,-45.0592041015625,78.277587890625,-4.82177734375
0.3299999,-10.122684478759766,0.7134721279144287,-3.31118106842041,-44.37255859375,77.117919921875,1.3275146484375
0.34999990000000003,-10.378864288330078,0.8930372595787048,-3.7421371936798096,-45.6085205078125,81.4361572265625,9.2620849609375
0.3699999,-10.642226219177246,1.1659762859344482,-4.1156325340271,-48.5076904296875,92.132568359375,11.90185546875
0.3899999,-10.821791648864746,1.455674648284912,-4.388571739196777,-57.9071044921875,96.0235595703125,21.1334228515625
0.40999990000000003,-10.977415084838867,1.6831238269805908,-4.513070106506348,-69.5648193359375,86.090087890625,37.5213623046875
0.4299999,-11.207258224487305,1.6112977266311646,-4.575319290161133,-71.10595703125,59.08203125,30.059814453125
0.4499999,-11.267112731933594,1.2521674633026123,-4.529829502105713,-71.4874267578125,42.9534912109375,15.167236328125
0.4699999,-11.075576782226562,0.6584054827690125,-4.367023944854736,-87.1124267578125,50.72021484375,32.470703125
0.4899999,-10.462661743164062,0.11252748221158981,-4.247313976287842,-99.12109375,51.300048828125,39.4134521484375
0.5099999,-9.466673851013184,-0.15083470940589905,-4.067748546600342,-113.8153076171875,58.8531494140625,31.3262939453125
0.5299999,-8.504204750061035,-0.22026655077934265,-3.928884983062744,-111.663818359375,65.3076171875,23.7579345703125
0.5499999,-7.709329605102539,-0.14365209639072418,-3.9025487899780273,-93.3837890625,49.49951171875,-4.1351318359375
0.5699999,-7.304709434509277,-0.021547814831137657,-3.9863457679748535,-92.041015625,36.7279052734375,-17.6849365234375
0.5899998999999999,-7.261613845825195,0.05267243832349777,-4.144362926483154,-103.9886474609375,41.9769287109375,-18.3258056640625
0.6099998999999999,-7.553706169128418,-0.002394201699644327,-4.4077253341674805,-106.170654296875,32.3028564453125,-50.1556396484375
0.6299999,-8.164227485656738,-0.20111294090747833,-4.632780075073242,-101.9134521484375,6.8359375,-87.127685546875
0.6499999,-8.810662269592285,-0.6440402865409851,-4.865017890930176,-108.7188720703125,-15.2130126953125,-76.812744140625
0.6699999,-9.32541561126709,-1.259350061416626,-4.881777286529541,-115.081787109375,-10.80322265625,-46.1273193359375
0.6899999,-9.607931137084961,-1.843535304069519,-4.709394931793213,-89.53857421875,-10.9405517578125,-70.4193115234375
0.7099999,-9.713275909423828,-2.5234885215759277,-4.400542736053467,-58.7310791015625,-58.9599609375,-123.4588623046875
0.7299998999999999,-9.651026725769043,-3.2609026432037354,-3.8977603912353516,-66.9708251953125,-95.3521728515625,-104.4769287109375
0.7499998999999999,-9.442731857299805,-3.9384617805480957,-3.251325845718384,-77.880859375,-66.5283203125,-47.9278564453125
0.7699999,-9.033323287963867,-4.335899353027344,-2.4133553504943848,-72.723388671875,-15.5181884765625,-3.4332275390625
0.7899999,-8.53532886505127,-4.271255970001221,-1.5155296325683594,-50.78125,-7.9498291015625,10.80322265625
0.8099999,-8.2312650680542,-3.7636849880218506,-0.9313444495201111,-45.6695556640625,-12.8936767578125,28.350830078125
0.8299999,-8.197746276855469,-3.1028854846954346,-0.45250412821769714,-59.5855712890625,-2.5634765625,54.8858642578125
0.8499998999999999,-8.389283180236816,-2.5522189140319824,-0.3519476354122162,-28.411865234375,-19.927978515625,9.9639892578125
0.8699998999999999,-8.678980827331543,-2.2433669567108154,-0.2585737705230713,13.8397216796875,-45.074462890625,-58.2275390625
0.8899999,-8.978256225585938,-2.1332337856292725,-0.12689268589019775,4.69970703125,-34.3017578125,-53.863525390625
0.9099999,-9.20091724395752,-2.190694570541382,-0.038307227194309235,-25.054931640625,-8.7738037109375,-12.8021240234375
0.9299999,-9.26795482635498,-2.4229321479797363,0.038307227194309235,-30.09033203125,4.852294921875,15.5181884765625
0.9499999,-9.289502143859863,-2.626439332962036,0.047884032130241394,15.5181884765625,-8.9263916015625,-28.900146484375
0.9699998999999999,-9.186552047729492,-2.717418909072876,0.038307227194309235,35.4766845703125,-22.5372314453125,-75.9735107421875
0.9899998999999999,-9.17697525024414,-2.6001031398773193,-0.07900865375995636,0.9918212890625,4.2877197265625,-66.802978515625
1.0099999,-9.32302188873291,-2.3702597618103027,-0.272938996553421,-39.36767578125,29.7393798828125,-42.48046875
1.0299999,-9.512163162231445,-2.2601263523101807,-0.4118026793003082,-53.253173828125,17.1661376953125,-27.6336669921875
1.0499999,-9.765948295593262,-2.403778553009033,-0.4812345504760742,-45.196533203125,-1.434326171875,-31.036376953125
1.0699999,-9.99100399017334,-2.7293899059295654,-0.47405192255973816,-45.745849609375,-3.814697265625,-39.7796630859375
1.0899999,-10.165780067443848,-3.1531636714935303,-0.33758243918418884,-66.58935546875,-3.875732421875,-28.2135009765625
1.1099999,-10.261548042297363,-3.5913026332855225,-0.021547814831137657,-62.68310546875,-0.7171630859375,-0.8544921875
1.1299999,-10.283096313476562,-3.9695863723754883,0.2753331959247589,-21.209716796875,5.462646484375,19.561767578125
1.1499999,-10.216058731079102,-4.302380561828613,0.6320692300796509,-6.866455078125,0.4119873046875,30.82275390625
1.1699998999999999,-9.914389610290527,-4.663905143737793,0.8188169598579407,-12.0086669921875,0.9613037109375,51.5899658203125
1.1899998999999999,-9.497797966003418,-5.0900726318359375,0.9385270476341248,-12.1917724609375,4.5928955078125,65.2313232421875
1.2099999,-9.193734169006348,-5.540182590484619,1.070208191871643,16.2353515625,32.3638916015625,69.03076171875
1.2299999,-8.944737434387207,-5.918466567993164,1.05105459690094,95.123291015625,45.9442138671875,85.5560302734375
1.2499999,-8.83939266204834,-6.0836663246154785,1.070208191871643,140.9454345703125,26.30615234375,87.1429443359375
1.2699999,-8.736441612243652,-5.932831764221191,0.8978256583213806,175.7354736328125,9.09423828125,54.962158203125
1.2899999,-8.578424453735352,-5.5329999923706055,0.7398083209991455,215.0421142578125,23.49853515625,22.6287841796875
1.3099999,-8.698134422302246,-4.8602294921875,0.5482721924781799,242.7520751953125,59.1278076171875,7.2784423828125
1.3299999,-9.210494041442871,-3.88818359375,0.35673606395721436,255.4779052734375,73.6846923828125,13.427734375
1.3499999,-10.187328338623047,-2.650381326675415,0.304063618183136,232.72705078125,60.394287109375,13.2598876953125
1.3699999,-11.307814598083496,-1.4077905416488647,0.43095630407333374,213.2415771484375,38.7420654296875,1.4801025390625
1.3899999,-12.20803451538086,-0.3016694188117981,0.871489405632019,219.329833984375,34.97314453125,-15.9454345703125
1.4099999,-12.935872077941895,0.6416460275650024,1.1899182796478271,232.6507568359375,46.783447265625,-24.7650146484375
1.4299998999999999,-13.4506254196167,1.5394717454910278,1.2617442607879639,207.733154296875,33.660888671875,-19.134521484375
1.4499999,-13.713987350463867,2.52109432220459,1.0845733880996704,161.834716796875,-7.7972412109375,-29.2816162109375
1.4699999,-13.694833755493164,3.359065055847168,0.8619126081466675,146.91162109375,-48.1719970703125,-84.7015380859375
1.4899999,-13.524845123291016,3.869029998779297,0.5506663918495178,176.26953125,-87.738037109375,-141.5863037109375
1.5099999,-13.347674369812012,3.9049429893493652,0.10773907601833344,160.9649658203125,-94.3603515625,-113.9678955078125
1.5299999,-13.206416130065918,3.6391866207122803,-0.4836287498474121,84.7015380859375,-63.446044921875,-22.5067138671875
1.5499999,-13.079524040222168,3.2800562381744385,-1.2186486721038818,35.5224609375,-61.9964599609375,1.617431640625
1.5699999,-12.904747009277344,2.935291290283203,-1.9943699836730957,37.078857421875,-91.552734375,-43.121337890625
1.5899999,-12.689269065856934,2.5977089405059814,-2.7892448902130127,26.9927978515625,-102.7069091796875,-46.7376708984375
1.6099999,-12.442666053771973,2.1978771686553955,-3.643975019454956,-17.39501953125,-73.42529296875,13.6566162109375
1.6299999,-12.188880920410156,1.7501614093780518,-4.551377296447754,-51.45263671875,-43.548583984375,51.727294921875
1.6499999,-11.75792407989502,1.213860273361206,-5.202600479125977,-55.694580078125,-30.4412841796875,45.8221435546875
1.6699999,-10.99656867980957,0.6320692300796509,-5.406107425689697,-51.055908203125,-36.31591796875,43.6248779296875
1.6899998999999999,-10.08437728881836,0.08619125932455063,-5.228936672210693,-53.8482666015625,-29.052734375,61.2945556640625
1.7099999,-9.17697525024414,-0.3878606855869293,-4.824316501617432,-65.7501220703125,2.1209716796875,83.4503173828125
1.7299999,-8.434772491455078,-0.7110779285430908,-4.299986362457275,-65.91796875,9.5672607421875,72.69287109375
1.7499999,-8.02536392211914,-0.9600749015808105,-3.737348794937134,-56.7169189453125,-0.823974609375,37.8570556640625
1.7699999,-8.001421928405762,-1.2258312702178955,-3.222595453262329,-49.3316650390625,-15.19775390625,1.4495849609375
1.7899999,-8.274360656738281,-1.558625340461731,-2.734178304672241,-47.54638671875,-11.444091796875,-13.885498046875
1.8099999,-8.724471092224121,-1.8770540952682495,-2.4444799423217773,-41.6412353515625,-1.800537109375,1.15966796875
1.8299999,-9.210494041442871,-2.1380221843719482,-2.365471363067627,-39.825439453125,8.6822509765625,27.8167724609375
1.8499999,-9.710882186889648,-2.212242364883423,-2.497152328491211,-42.7398681640625,15.7928466796875,33.4930419921875
1.8699999,-10.105925559997559,-2.0159177780151367,-2.782062292098999,-46.875,16.021728515625,31.036376953125
1.8899999,-10.350133895874023,-1.5298948287963867,-3.155557870864868,-52.001953125,22.308349609375,64.910888671875
1.9099999,-10.409989356994629,-0.7757213711738586,-3.5242648124694824,-61.7218017578125,36.346435546875,99.456787109375
1.9299998999999999,-10.457873344421387,0,-3.9217023849487305,-76.3397216796875,30.3192138671875,80.99365234375
1.9499999,-10.414777755737305,0.545877993106842,-4.235342979431152,-92.315673828125,-6.2255859375,44.8760986328125
1.9699999,-10.170568466186523,0.6033388376235962,-4.383783340454102,-104.6905517578125,-28.228759765625,43.8079833984375
1.9899999,-9.758766174316406,0.3447650372982025,-4.355052947998047,-111.053466796875,-2.8533935546875,45.166015625
2.0099999,-9.193734169006348,-0.19871874153614044,-4.141968727111816,-124.2218017578125,23.9105224609375,55.7098388671875
2.0299999,-8.7268648147583,-0.8331822156906128,-3.9600095748901367,-125.2899169921875,18.6920166015625,67.962646484375
2.0499999,-8.489839553833008,-1.3455413579940796,-3.8355112075805664,-115.3564453125,6.9580078125,59.87548828125
2.0699999,-8.355764389038086,-1.7836803197860718,-3.847482204437256,-126.46484375,23.92578125,58.807373046875
2.0899999,-8.259995460510254,-1.9033904075622559,-3.9695863723754883,-138.5040283203125,52.7801513671875,44.7998046875
2.1099999,-8.22887134552002,-1.9488801956176758,-4.225766181945801,-138.1072998046875,45.3033447265625,20.08056640625
2.1299999,-8.271966934204102,-1.944091796875,-4.431667327880859,-125.06103515625,1.983642578125,-3.7384033203125
2.1499999,-8.418013572692871,-2.008735179901123,-4.592078685760498,-105.0872802734375,-21.54541015625,-30.853271484375
2.1699999,-8.53293514251709,-2.1811177730560303,-4.501099109649658,-102.72216796875,-19.9432373046875,-45.654296875
2.1899999,-8.59997272491455,-2.341529369354248,-4.141968727111816,-107.086181640625,-11.8255615234375,-50.2471923828125
2.2099999,-8.556877136230469,-2.473210334777832,-3.4572272300720215,-99.884033203125,-15.31982421875,-49.8199462890625
2.2299999,-8.650250434875488,-2.4803929328918457,-2.4899697303771973,-81.1767578125,-20.08056640625,-56.549072265625
2.2499999,-8.887276649475098,-2.3774423599243164,-1.4460978507995605,-73.42529296875,-19.989013671875,-61.6912841796875
2.2699999,-9.275136947631836,-2.188300371170044,-0.4908113479614258,-87.158203125,-10.07080078125,-49.6673583984375
2.2899999,-9.785101890563965,-2.008735179901123,0.15083470940589905,-100.616455078125,16.021728515625,-17.4102783203125
2.3099999,-10.304644584655762,-1.941697597503662,0.33039984107017517,-95.4132080078125,30.4107666015625,-0.3204345703125
2.3299999,-10.639832496643066,-1.9369091987609863,0.0071826050989329815,-79.559326171875,28.167724609375,7.9193115234375
2.3499999,-10.587160110473633,-1.9728221893310547,-0.6200982332229614,-86.639404296875,34.2559814453125,16.937255859375
2.3699999,-10.194510459899902,-2.0422539710998535,-1.4532804489135742,-101.2420654296875,44.769287109375,17.15087890625
2.3899999,-9.531316757202148,-2.2673089504241943,-2.03507137298584,-93.597412109375,26.824951171875,-10.955810546875
2.4099999,-8.875306129455566,-2.6001031398773193,-2.300827741622925,-69.2138671875,-5.279541015625,-46.905517578125
2.4299999,-8.49941635131836,-2.980781078338623,-2.0829553604125977,-62.92724609375,-0.42724609375,-44.4183349609375
2.4499999,-8.47547435760498,-3.224989652633667,-1.7262194156646729,-69.1070556640625,16.693115234375,-21.759033203125
2.4699999,-8.71489429473877,-3.354276657104492,-1.2880805730819702,-86.9293212890625,34.515380859375,4.5623779296875
2.4899999,-9.016563415527344,-3.620033025741577,-0.8906430602073669,-91.217041015625,39.85595703125,8.2550048828125
2.5099999,-9.246406555175781,-3.9432501792907715,-0.6655880808830261,-42.572021484375,16.7694091796875,-27.191162109375
2.5299999,-9.397241592407227,-4.333505153656006,-0.45489832758903503,-11.688232421875,11.1846923828125,-53.8787841796875
2.5499999,-9.495404243469238,-4.884171485900879,-0.17717093229293823,-54.7637939453125,33.294677734375,-62.896728515625
2.5699999,-9.564835548400879,-5.578489780426025,0.028730420395731926,-69.76318359375,25.7415771484375,-70.3277587890625
2.5899999,-9.701305389404297,-6.382941722869873,0.3495534360408783,-26.3671875,16.05224609375,-57.3272705078125
2.6099999,-9.615114212036133,-7.007828235626221,0.5482721924781799,36.68212890625,-3.631591796875,-24.7039794921875
2.6299999,-9.461885452270508,-6.900089263916016,0.3926490843296051,82.6416015625,-11.4593505859375,-0.1220703125
2.6499999,-9.196128845214844,-5.937620162963867,-0.13407529890537262,70.2667236328125,6.591796875,20.3857421875
2.6699999,-8.892065048217773,-4.517858505249023,-0.8571242094039917,37.3992919921875,21.636962890625,43.243408203125
2.6899999,-8.621520042419434,-3.380612850189209,-1.5083470344543457,48.187255859375,34.8052978515625,46.81396484375
2.7099999,-8.607154846191406,-2.853888511657715,-2.006340980529785,103.6834716796875,49.560546875,39.764404296875
2.7299999,-8.75080680847168,-2.8802247047424316,-2.3367409706115723,144.2718505859375,49.7283935546875,59.2498779296875
2.7499999,-9.028534889221191,-3.1028854846954346,-2.4803929328918457,145.050048828125,52.734375,99.761962890625
2.7699999,-9.23682975769043,-3.220201253890991,-2.4803929328918457,157.073974609375,55.5572509765625,111.968994140625
2.7899999,-9.349357604980469,-3.1244332790374756,-2.248155355453491,207.672119140625,59.0362548828125,65.643310546875
2.8099999,-9.44752025604248,-2.765302896499634,-1.8986018896102905,258.23974609375,59.051513671875,-1.5716552734375
2.8299999,-9.837775230407715,-2.1308395862579346,-1.5538369417190552,257.9498291015625,60.333251953125,-51.239013671875
2.8499999,-10.625467300415039,-1.316810965538025,-1.2521674633026123,209.381103515625,53.9703369140625,-60.791015625
2.8699999,-11.645397186279297,-0.524330198764801,-0.9193734526634216,174.0264892578125,42.327880859375,-28.6407470703125
2.8899999,-12.54561710357666,0.08379705995321274,-0.507570743560791,195.3887939453125,21.17919921875,-27.496337890625
2.9099999,-13.129801750183105,0.5003881454467773,-0.047884032130241394,208.465576171875,7.5836181640625,-62.255859375
2.9299999,-13.283031463623047,0.8092401623725891,0.3687070608139038,170.684814453125,-1.2969970703125,-69.9920654296875
2.9499999,-13.136984825134277,0.993593692779541,0.6560112833976746,119.6136474609375,-13.702392578125,-43.5791015625
2.9699999,-12.75870132446289,0.9050082564353943,0.9217676520347595,102.0965576171875,-22.94921875,-24.505615234375
2.9899999,-12.167332649230957,0.43095630407333374,1.094150185585022,113.4185791015625,-37.628173828125,-36.0870361328125
3.0099999,-11.537657737731934,-0.2753331959247589,1.1037269830703735,114.532470703125,-49.2095947265625,-50.1708984375
3.0299999,-10.917559623718262,-0.9792284965515137,0.9002198576927185,75.68359375,-56.8084716796875,-18.6920166015625
3.0499999,-10.342951774597168,-1.53707754611969,0.6105214357376099,26.30615234375,-70.526123046875,38.8946533203125
3.0699999,-9.90241813659668,-1.7764976024627686,0.05267243832349777,22.918701171875,-99.91455078125,51.3916015625
3.0899999,-9.409213066101074,-1.9488801956176758,-0.3758896589279175,7.5225830078125,-64.178466796875,58.16650390625
3.1099999,-9.148244857788086,-2.10210919380188,-0.8259995579719543,-4.2724609375,2.593994140625,60.60791015625
3.1299999,-9.160215377807617,-2.051830768585205,-1.2880805730819702,29.632568359375,9.063720703125,23.5443115234375
3.1499999,-9.758766174316406,-1.766920804977417,-1.8124107122421265,46.112060546875,-1.0833740234375,-23.8800048828125
3.1699999,-10.797849655151367,-1.194706678390503,-2.319981336593628,26.214599609375,-3.3111572265625,-30.120849609375
3.1899999,-11.88002872467041,-0.5123591423034668,-2.8826189041137695,10.4217529296875,-1.4190673828125,4.0435791015625
3.2099999,-12.777854919433594,0.11971008777618408,-3.3494882583618164,21.4996337890625,-1.2359619140625,8.8348388671875
3.2299999,-13.21359920501709,0.6392518281936646,-3.6774938106536865,14.434814453125,1.03759765625,4.8370361328125
3.2499999,-13.187262535095215,1.0749965906143188,-3.912125587463379,-7.598876953125,-4.302978515625,12.8021240234375
3.2699999,-12.883199691772461,1.4173674583435059,-4.005499362945557,-26.611328125,1.7547607421875,30.21240234375
3.2899999,-12.306197166442871,1.6639702320098877,-4.0078935623168945,-24.2462158203125,1.0833740234375,29.8614501953125
3.3099999,-11.60948371887207,1.6950948238372803,-3.9169139862060547,-23.2086181640625,2.99072265625,17.059326171875
3.3299999000000002,-10.891223907470703,1.5107412338256836,-3.8091750144958496,-39.36767578125,12.359619140625,30.609130859375
3.3499999,-10.283096313476562,1.137245774269104,-3.6966474056243896,-52.55126953125,11.6729736328125,41.839599609375
3.3699999,-9.825803756713867,0.6248866319656372,-3.5266590118408203,-47.9583740234375,-0.396728515625,39.642333984375
3.3899999,-9.533711433410645,0.026336219161748886,-3.421314239501953,-34.8968505859375,-11.5966796875,45.6695556640625
3.4099999,-9.373299598693848,-0.3878606855869293,-3.428496837615967,-31.7535400390625,-5.5389404296875,50.72021484375
3.4299999,-9.253589630126953,-0.5841852426528931,-3.5051112174987793,-52.0172119140625,3.021240234375,55.2520751953125
3.4499999,-9.136273384094238,-0.5482721924781799,-3.6798880100250244,-62.9730224609375,-6.3018798828125,58.3038330078125
3.4699999,-8.99740982055664,-0.44771572947502136,-3.801992416381836,-59.326171875,-8.148193359375,47.9888916015625
3.4899999,-8.9064302444458,-0.31124621629714966,-3.995922565460205,-52.3223876953125,2.25830078125,27.1148681640625
3.5099999,-8.89685344696045,-0.15083470940589905,-4.331110954284668,-55.419921875,9.6588134765625,29.998779296875
3.5299999,-9.042900085449219,0,-4.766855716705322,-85.5865478515625,9.46044921875,56.0760498046875
3.5499999,-9.066842079162598,0.10055647045373917,-5.305551052093506,-100.3265380859375,-22.8271484375,64.300537109375
3.5699999,-8.841787338256836,0.033518824726343155,-5.70777702331543,-99.9908447265625,-35.858154296875,41.2139892578125
3.5899999,-8.224082946777344,-0.14604631066322327,-5.870582580566406,-106.201171875,-16.9219970703125,31.43310546875
3.6099999,-7.4100542068481445,-0.45489832758903503,-5.78678560256958,-126.1444091796875,10.6048583984375,45.10498046875
3.6299999,-6.7277069091796875,-0.9002198576927185,-5.5545477867126465,-141.0675048828125,16.4031982421875,34.393310546875
3.6499999,-6.3518171310424805,-1.4269442558288574,-5.228936672210693,-126.46484375,3.8909912109375,1.220703125
3.6699999,-6.294356346130371,-1.9919757843017578,-4.927267074584961,-102.1575927734375,2.1209716796875,-7.9803466796875
3.6899999,-6.495469093322754,-2.33913516998291,-4.683058738708496,-90.63720703125,12.8173828125,-10.0250244140625
3.7099999,-6.847416877746582,-2.454056739807129,-4.517858505249023,-97.5799560546875,21.1944580078125,-30.0750732421875
3.7299999,-7.2352776527404785,-2.427720546722412,-4.422090530395508,-98.297119140625,0.54931640625,-57.2509765625
3.7499999,-7.589619159698486,-2.408566951751709,-4.165910720825195,-95.916748046875,-16.815185546875,-66.10107421875
3.7699999,-7.864952564239502,-2.4205379486083984,-3.861847400665283,-82.2296142578125,0.5950927734375,-41.2139892578125
3.7899999,-8.068459510803223,-2.432508945465088,-3.4165258407592773,-72.357177734375,11.9171142578125,-49.62158203125
3.8099999,-8.315062522888184,-2.3702597618103027,-3.0142998695373535,-83.1146240234375,-1.953125,-80.841064453125
3.8299999000000002,-8.597578048706055,-2.274491548538208,-2.6623523235321045,-99.18212890625,-5.9051513671875,-50.048828125
3.8499999,-8.851364135742188,-2.2840683460235596,-2.3750481605529785,-97.9156494140625,2.5787353515625,-9.1094970703125
3.8699999,-9.05487060546875,-2.3942017555236816,-2.205059766769409,-75.50048828125,-6.77490234375,-48.8433837890625
3.8899999,-9.093177795410156,-2.6001031398773193,-2.161964178085327,-72.998046875,-17.486572265625,-80.2764892578125
3.9099999,-9.062053680419922,-2.9017724990844727,-2.1739351749420166,-97.503662109375,-2.777099609375,-47.7447509765625
3.9299999,-8.992621421813965,-3.3734302520751953,-2.3918075561523438,-101.043701171875,8.8348388671875,-21.91162109375
3.9499999,-8.877699851989746,-3.845088005065918,-2.604891538619995,-63.934326171875,-3.0059814453125,-42.510986328125
3.9699999,-8.810662269592285,-4.168305397033691,-3.050212860107422,-36.1175537109375,-17.1966552734375,-65.6585693359375
3.9899999,-8.755595207214355,-4.314351558685303,-3.5194764137268066,-65.8111572265625,-5.0811767578125,-32.257080078125
4.0099999,-8.60236644744873,-4.414907932281494,-3.8283286094665527,-101.0894775390625,5.462646484375,-4.7607421875
4.029999900000001,-8.492233276367188,-4.637568473815918,-3.751713991165161,-71.563720703125,-10.772705078125,-57.403564453125
4.0499999,-8.489839553833008,-5.03021764755249,-3.442862033843994,-19.287109375,-19.5465087890625,-98.968505859375
4.069999900000001,-8.633491516113281,-5.489904403686523,-3.0190882682800293,-24.7650146484375,-10.528564453125,-58.41064453125
4.0899999000000005,-8.87051773071289,-5.846640586853027,-2.760514497756958,-67.7947998046875,7.14111328125,7.1868896484375
4.1099999,-9.059659004211426,-6.124367713928223,-2.5546131134033203,-83.282470703125,22.03369140625,28.1982421875
4.1299999000000005,-9.038111686706543,-6.40927791595459,-2.2385785579681396,-55.8929443359375,23.4375,7.7056884765625
4.1499999,-8.956708908081055,-6.672640323638916,-1.7046716213226318,-24.261474609375,30.548095703125,-10.528564453125
4.1699999000000005,-8.911218643188477,-7.144298076629639,-1.0295066833496094,-37.53662109375,34.3170166015625,-4.5623779296875
4.1899999,-9.093177795410156,-7.649474620819092,-0.47405192255973816,-53.9093017578125,25.5279541015625,6.622314453125
4.209999900000001,-9.516951560974121,-8.192957878112793,-0.06703764945268631,-28.38134765625,21.759033203125,19.1192626953125
4.2299999,-10.005369186401367,-8.396465301513672,-0.07900865375995636,40.6036376953125,-9.7503662109375,28.106689453125
4.249999900000001,-10.60391902923584,-7.802703380584717,-0.6033388376235962,100.0213623046875,-25.726318359375,27.2674560546875
4.2699999,-11.133037567138672,-6.356605529785156,-1.4460978507995605,88.409423828125,-12.9852294921875,36.7279052734375
4.289999900000001,-11.439496040344238,-4.4292731285095215,-2.298433542251587,41.961669921875,-3.0517578125,65.3839111328125
4.3099999,-11.568782806396484,-2.6886885166168213,-2.920926094055176,26.7333984375,-2.197265625,81.0089111328125
4.329999900000001,-11.377246856689453,-1.6711528301239014,-3.023876667022705,40.374755859375,-21.6827392578125,62.0880126953125
4.3499999,-11.006145477294922,-1.4508862495422363,-2.8586769104003906,67.7337646484375,-40.252685546875,36.6058349609375
4.369999900000001,-10.51054573059082,-1.802833914756775,-2.4851813316345215,69.671630859375,-24.4293212890625,48.828125
4.3899999,-9.888052940368652,-2.4181437492370605,-1.9177556037902832,66.7724609375,2.6702880859375,93.4600830078125
4.409999900000001,-9.126696586608887,-3.0310592651367188,-1.4077905416488647,120.0408935546875,9.1552734375,89.9658203125
4.4299999,-8.372523307800293,-3.4332852363586426,-0.8930372595787048,174.6063232421875,13.8092041015625,25.9552001953125
4.449999900000001,-7.73087739944458,-3.485957622528076,-0.6416460275650024,182.12890625,35.125732421875,1.3580322265625
4.4699999,-7.572859764099121,-3.1028854846954346,-0.6057330369949341,166.3818359375,59.600830078125,16.9830322265625
4.489999900000001,-7.943961143493652,-2.4444799423217773,-0.689530074596405,181.5032958984375,64.39208984375,21.026611328125
4.5099999,-8.789113998413086,-1.6304513216018677,-0.7086837291717529,218.109130859375,63.385009765625,-15.2130126953125
4.529999900000001,-9.871294021606445,-0.8020575642585754,-0.6607996821403503,219.90966796875,63.78173828125,-32.8369140625
4.5499999,-10.879252433776855,-0.12210428714752197,-0.40701428055763245,174.407958984375,49.102783203125,-15.5029296875
4.569999900000001,-11.57357120513916,0.3974374830722809,-0.023942016065120697,143.2647705078125,27.4200439453125,3.0059814453125
4.5899999000000005,-11.875240325927734,0.6847416758537292,0.4692635238170624,156.2347412109375,18.585205078125,-19.2108154296875
4.609999900000001,-11.8441162109375,0.7206547260284424,0.933738648891449,180.7098388671875,22.6898193359375,-63.90380859375
4.6299999000000005,-11.683704376220703,0.6368576288223267,1.2880805730819702,165.008544921875,31.7535400390625,-79.345703125
4.6499999,-11.585541725158691,0.5003881454467773,1.4269442558288574,124.908447265625,28.6407470703125,-42.8009033203125
4.6699999000000005,-11.585541725158691,0.3256114423274994,1.4317326545715332,101.4862060546875,3.509521484375,5.43212890625
4.6899999,-11.590330123901367,0.22266076505184174,1.3263877630233765,99.761962890625,-16.7388916015625,10.55908203125
4.709999900000001,-11.554417610168457,0.19393034279346466,1.1300631761550903,95.2911376953125,-18.7530517578125,-10.498046875
4.7299999,-11.504138946533203,0.2968810200691223,0.7757213711738586,83.06884765625,-10.0860595703125,-24.5361328125
4.749999900000001,-11.580753326416016,0.5841852426528931,0.22266076505184174,75.86669921875,-1.03759765625,-15.3045654296875
4.7699999,-11.66694450378418,0.8906430602073669,-0.42616790533065796,57.31201171875,-12.6190185546875,2.3193359375
4.789999900000001,-11.712434768676758,1.1444283723831177,-1.115697979927063,34.6832275390625,-25.8026123046875,7.3089599609375
4.8099999,-11.585541725158691,1.2234370708465576,-1.680729627609253,18.2037353515625,-15.411376953125,-5.6304931640625
4.829999900000001,-11.465831756591797,1.01753568649292,-2.2625205516815186,16.815185546875,0.6866455078125,-12.0697021484375
4.8499999,-11.346121788024902,0.6224924325942993,-2.75812029838562,19.1192626953125,-11.9171142578125,-7.6446533203125
4.869999900000001,-11.353304862976074,0.1364694982767105,-3.318363666534424,19.34814453125,-26.275634765625,-6.6986083984375
4.8899999,-11.36048698425293,-0.33039984107017517,-3.797203779220581,5.096435546875,-24.8870849609375,-8.270263671875
4.909999900000001,-11.21444034576416,-0.6943184733390808,-4.067748546600342,-21.4996337890625,-19.4549560546875,15.6402587890625
4.9299999,-10.915165901184082,-0.9864110946655273,-4.165910720825195,-29.5867919921875,-15.8233642578125,54.50439453125
4.949999900000001,-10.462661743164062,-1.0534487962722778,-4.108449935913086,-7.354736328125,-27.1148681640625,54.2449951171875
4.9699999,-9.909601211547852,-0.8954314589500427,-4.067748546600342,-2.5482177734375,-20.2178955078125,47.5006103515625
4.989999900000001,-9.258378028869629,-0.5339069962501526,-4.05817174911499,-20.111083984375,-1.6937255859375,64.14794921875
5.0099999,-8.638279914855957,-0.05267243832349777,-4.173093795776367,-22.9949951171875,7.2174072265625,55.9539794921875
5.029999900000001,-8.176198959350586,0.33997663855552673,-4.347870349884033,-11.53564453125,17.5018310546875,26.458740234375
5.0499999,-8.022970199584961,0.5602431893348694,-4.63517427444458,-1.617431640625,28.2440185546875,8.36181640625
5.069999900000001,-8.279149055480957,0.5626373887062073,-4.95120906829834,-5.6304931640625,25.1007080078125,0.823974609375
5.0899999000000005,-8.9064302444458,0.3471592366695404,-5.2911858558654785,-19.927978515625,14.3585205078125,7.415771484375
5.109999900000001,-9.545681953430176,-0.05746084079146385,-5.499481201171875,-34.2864990234375,-7.0343017578125,37.078857421875
5.1299999000000005,-9.916783332824707,-0.5770025849342346,-5.439626216888428,-42.7703857421875,-12.6190185546875,77.81982421875
5.1499999,-9.720458984375,-1.0319008827209473,-5.147533416748047,-44.00634765625,-10.3759765625,93.3837890625
5.1699999000000005,-9.097966194152832,-1.3072341680526733,-4.699818134307861,-52.6123046875,-2.655029296875,84.442138671875
5.1899999,-8.291120529174805,-1.338358759880066,-4.333505153656006,-61.370849609375,7.9193115234375,80.87158203125
5.209999900000001,-7.65186882019043,-1.1492167711257935,-4.120420932769775,-68.6187744140625,17.303466796875,80.3070068359375
5.2299999,-7.316680431365967,-0.8523358106613159,-4.134786128997803,-73.0743408203125,10.6353759765625,66.3299560546875
5.249999900000001,-7.194576263427734,-0.5482721924781799,-4.347870349884033,-86.6241455078125,0.3814697265625,45.440673828125
5.2699999,-7.240066051483154,-0.33279404044151306,-4.587290287017822,-114.410400390625,4.791259765625,20.56884765625
5.289999900000001,-7.3885064125061035,-0.38307225704193115,-4.788403511047363,-127.7923583984375,5.6304931640625,-9.6893310546875
5.3099999,-7.702147006988525,-0.7733271718025208,-4.908113479614258,-116.3330078125,-16.143798828125,-45.440673828125
5.329999900000001,-8.08043098449707,-1.3311761617660522,-4.869806289672852,-104.7210693359375,-44.4488525390625,-74.5849609375
5.3499999,-8.44195556640625,-1.946485996246338,-4.886565685272217,-112.0452880859375,-39.12353515625,-50.628662109375
5.369999900000001,-8.628703117370605,-2.3582887649536133,-4.876988887786865,-128.11279296875,-12.0697021484375,-7.4005126953125
5.3899999,-8.69095230102539,-2.5282769203186035,-4.845864295959473,-134.21630859375,9.5062255859375,5.2642822265625
5.409999900000001,-8.698134422302246,-2.5282769203186035,-4.745307922363281,-117.73681640625,-3.6773681640625,-8.087158203125
5.4299999,-8.746018409729004,-2.3918075561523438,-4.649539470672607,-100.982666015625,-21.1639404296875,-11.322021484375
5.449999900000001,-8.827422142028809,-2.255337953567505,-4.517858505249023,-114.74609375,1.40380859375,16.326904296875
5.4699999,-8.825027465820312,-2.188300371170044,-4.288015365600586,-111.7095947265625,9.979248046875,15.5181884765625
5.489999900000001,-8.832210540771484,-2.0374655723571777,-4.039018154144287,-66.58935546875,-19.744873046875,-66.2078857421875
5.5099999,-8.813055992126465,-2.027888774871826,-3.751713991165161,-70.770263671875,-27.6947021484375,-89.2333984375
5.529999900000001,-8.83939266204834,-2.126051187515259,-3.6320040225982666,-108.917236328125,-6.1492919921875,-17.4407958984375
5.5499999,-8.822632789611816,-2.2361843585968018,-3.689464807510376,-109.039306640625,15.8843994140625,34.1949462890625
5.569999900000001,-8.736441612243652,-2.3774423599243164,-3.797203779220581,-85.479736328125,21.7437744140625,35.6292724609375
5.5899999000000005,-8.71489429473877,-2.4875755310058594,-4.0294413566589355,-70.2972412109375,4.8828125,2.5787353515625
5.609999900000001,-8.640673637390137,-2.5689783096313477,-4.170699596405029,-79.1168212890625,-15.2740478515625,-22.125244140625
5.6299999000000005,-8.564059257507324,-2.715024709701538,-4.3622355461120605,-83.5418701171875,-13.1072998046875,-7.171630859375
5.6499999,-8.40843677520752,-3.0119056701660156,-4.285621166229248,-69.82421875,7.537841796875,6.011962890625
5.6699999000000005,-8.274360656738281,-3.2609026432037354,-4.01268196105957,-44.5556640625,3.41796875,-30.1971435546875
5.6899999,-8.310274124145508,-3.272873640060425,-3.450044631958008,-30.8685302734375,-12.237548828125,-76.446533203125
5.709999900000001,-8.47547435760498,-3.1962592601776123,-2.3942017555236816,-54.50439453125,-3.1890869140625,-59.1583251953125
5.7299999,-8.983044624328613,-2.983175277709961,-0.7350199222564697,-64.1326904296875,21.0418701171875,-38.5894775390625
5.749999900000001,-9.691728591918945,-2.937685489654541,1.4748282432556152,-40.3900146484375,21.4691162109375,-58.502197265625
5.7699999,-10.931924819946289,-3.136404275894165,3.8953661918640137,-33.02001953125,32.2418212890625,-61.431884765625
5.789999900000001,-12.722787857055664,-3.821146011352539,5.853823184967041,-56.854248046875,45.6695556640625,-26.275634765625
5.8099999,-14.717158317565918,-4.972756862640381,6.998251438140869,-64.14794921875,21.6522216796875,-3.9520263671875
5.829999900000001,-16.35718536376953,-6.528987884521484,7.280767440795898,-29.11376953125,-25.7415771484375,-18.4326171875
5.8499999,-17.058687210083008,-8.066065788269043,7.067683219909668,8.8958740234375,-53.5430908203125,-36.1480712890625
5.869999900000001,-16.560693740844727,-9.155426979064941,6.588842868804932,22.5677490234375,-55.7861328125,-18.890380859375
5.8899999,-15.219940185546875,-9.428366661071777,5.959167957305908,31.0821533203125,-40.6494140625,13.092041015625
5.909999900000001,-13.524845123291016,-8.813055992126465,5.233725070953369,43.8385009765625,-24.3377685546875,36.376953125
5.9299999,-11.975796699523926,-7.491456985473633,4.431667327880859,56.6253662109375,-16.9677734375,41.3360595703125
5.949999900000001,-10.773907661437988,-5.717353820800781,3.6750996112823486,67.901611328125,-16.571044921875,35.003662109375
5.9699999,-9.914389610290527,-3.8283286094665527,3.021482467651367,76.171875,-14.312744140625,22.796630859375
5.989999900000001,-9.349357604980469,-2.164358377456665,2.4420857429504395,73.6236572265625,3.0059814453125,15.533447265625
6.0099999,-8.96389102935791,-1.048660397529602,1.9129672050476074,60.1348876953125,33.0657958984375,34.423828125
6.029999900000001,-8.875306129455566,-0.48602294921875,1.2234370708465576,81.1920166015625,29.3731689453125,8.056640625
6.0499999,-8.990227699279785,-0.4908113479614258,0.2801215946674347,109.8480224609375,0.0457763671875,-56.3201904296875
6.069999900000001,-9.41400146484375,-1.0558429956436157,-0.933738648891449,90.1336669921875,15.5181884765625,-50.048828125
6.0899999000000005,-9.856928825378418,-2.03507137298584,-2.1763293743133545,66.3909912109375,35.5987548828125,-4.364013671875
6.109999900000001,-10.378864288330078,-3.1914708614349365,-3.466804027557373,99.456787109375,16.998291015625,-32.2418212890625
6.1299999000000005,-10.742782592773438,-4.436455726623535,-4.580107688903809,107.269287109375,-4.425048828125,-63.6444091796875
6.149999900000001,-10.898406028747559,-5.640739440917969,-5.439626216888428,72.7996826171875,-1.4495849609375,-27.099609375
6.1699999000000005,-10.747570991516113,-6.528987884521484,-6.071695327758789,83.3740234375,-3.7384033203125,6.4697265625
6.1899999,-10.1753568649292,-6.957550048828125,-6.445190906524658,122.3907470703125,-34.698486328125,-17.0745849609375
6.209999900000001,-9.210494041442871,-6.732495307922363,-6.543353080749512,115.631103515625,-42.694091796875,-25.238037109375
6.2299999,-8.044517517089844,-5.916072368621826,-6.524199485778809,79.8797607421875,-32.3486328125,11.688232421875
6.249999900000001,-6.952761650085449,-4.778826713562012,-6.378153324127197,71.8841552734375,-35.7208251953125,19.3328857421875
6.2699999,-6.256049156188965,-3.7038300037384033,-6.155492782592773,92.5140380859375,-46.9970703125,-21.8353271484375
6.289999900000001,-6.1315507888793945,-2.8443117141723633,-5.959167957305908,110.3057861328125,-52.886962890625,-53.863525390625
6.3099999,-6.44279670715332,-2.207453966140747,-5.7556610107421875,96.588134765625,-44.3572998046875,-23.1475830078125
6.329999900000001,-7.007828235626221,-1.6639702320098877,-5.609614372253418,72.723388671875,-48.248291015625,-7.080078125
6.3499999,-7.474697589874268,-1.2306196689605713,-5.3582234382629395,54.99267578125,-49.49951171875,-19.9432373046875
6.369999900000001,-7.723694801330566,-0.9959878921508789,-4.975151062011719,53.741455078125,-47.2869873046875,-26.9927978515625
6.3899999,-7.711723804473877,-0.8547300100326538,-4.434061527252197,65.6280517578125,-49.4842529296875,-27.587890625
6.409999900000001,-7.627926826477051,-0.912190854549408,-3.818751811981201,63.3544921875,-45.7611083984375,-27.099609375
6.4299999,-7.580042362213135,-1.036689281463623,-3.2345664501190186,54.4281005859375,-38.818359375,-28.6102294921875
6.449999900000001,-7.618350028991699,-1.1875240802764893,-2.738966703414917,51.361083984375,-29.541015625,-17.39501953125
6.4699999,-7.790732383728027,-1.41257905960083,-2.2888567447662354,46.0357666015625,-18.463134765625,-0.0152587890625
6.489999900000001,-7.970297336578369,-1.5753847360610962,-1.821987509727478,50.23193359375,-17.08984375,7.9803466796875
6.5099999,-7.996633529663086,-1.6879122257232666,-1.3503297567367554,62.6068115234375,-17.0135498046875,9.7198486328125
6.529999900000001,-7.939172744750977,-1.6735470294952393,-0.9217676520347595,71.4569091796875,5.2642822265625,3.5858154296875
6.5499999,-7.812280178070068,-1.37906014919281,-0.5985504388809204,77.7435302734375,30.2581787109375,3.0670166015625
6.569999900000001,-7.790732383728027,-0.950498104095459,-0.35434186458587646,71.6552734375,35.70556640625,7.476806640625
6.5899999000000005,-7.905653953552246,-0.42377370595932007,-0.22266076505184174,75.1190185546875,20.5230712890625,-6.0882568359375
6.609999900000001,-8.185775756835938,0.028730420395731926,-0.1628057211637497,86.42578125,18.1732177734375,-34.1796875
6.6299999000000005,-8.576030731201172,0.33758243918418884,-0.12689268589019775,87.860107421875,36.1785888671875,-49.2401123046875
6.649999900000001,-9.14585018157959,0.5147533416748047,-0.26575639843940735,78.7506103515625,56.7169189453125,-34.60693359375
6.6699999000000005,-9.799467086791992,0.6200982332229614,-0.4836287498474121,76.751708984375,41.3818359375,-25.9246826171875
6.6899999,-10.515334129333496,0.6799532771110535,-0.7805097699165344,64.88037109375,23.25439453125,-29.96826171875
6.709999900000001,-11.137825965881348,0.8451532125473022,-1.0223240852355957,44.158935546875,32.1807861328125,-18.8140869140625
6.7299999,-11.535264015197754,1.036689281463623,-1.1563993692398071,15.380859375,52.215576171875,12.6953125
6.749999900000001,-11.753135681152344,1.2258312702178955,-1.1635819673538208,-1.8310546875,56.610107421875,27.9693603515625
6.7699999,-11.832144737243652,1.3718775510787964,-1.072602391242981,-5.157470703125,50.628662109375,29.6173095703125
6.789999900000001,-11.738770484924316,1.5849615335464478,-0.9289502501487732,-6.378173828125,43.1365966796875,27.9998779296875
6.8099999,-11.532869338989258,1.9081788063049316,-0.7350199222564697,-26.123046875,52.642822265625,39.0472412109375
6.829999900000001,-11.17852783203125,2.3726539611816406,-0.5315127968788147,-52.978515625,66.192626953125,60.8062744140625
6.8499999,-10.776301383972168,2.8419175148010254,-0.31124621629714966,-63.3087158203125,64.8345947265625,54.7637939453125
6.869999900000001,-10.371682167053223,3.162740468978882,-0.07422025501728058,-61.2640380859375,45.1202392578125,6.6070556640625
6.8899999,-10.077195167541504,3.268085241317749,0.07900865375995636,-68.6798095703125,27.801513671875,-24.871826171875
6.909999900000001,-9.923966407775879,3.179499864578247,0.2537853717803955,-91.5069580078125,37.4755859375,-11.932373046875
6.9299999,-9.8784761428833,2.896984100341797,0.4572925269603729,-115.020751953125,49.37744140625,-0.1983642578125
6.949999900000001,-10.019734382629395,2.434903144836426,0.5889736413955688,-116.3177490234375,55.145263671875,18.5089111328125
6.9699999,-10.24239444732666,1.8579005002975464,0.790086567401886,-116.4703369140625,54.3060302734375,36.651611328125
6.989999900000001,-10.558429718017578,1.2856862545013428,0.9289502501487732,-119.049072265625,42.3431396484375,32.6995849609375
7.0099999,-10.927136421203613,0.7493851184844971,1.0821791887283325,-133.758544921875,35.919189453125,22.2625732421875
7.029999900000001,-11.252747535705566,0.19632454216480255,1.235408067703247,-152.9388427734375,31.707763671875,17.4407958984375
7.0499999,-11.659762382507324,-0.49799394607543945,1.2952631711959839,-155.3955078125,25.7720947265625,-0.518798828125
7.069999900000001,-12.179304122924805,-1.3958195447921753,1.1851298809051514,-152.069091796875,6.6986083984375,-29.23583984375
7.0899999000000005,-12.698845863342285,-2.432508945465088,0.933738648891449,-160.8734130859375,-18.463134765625,-37.7960205078125
7.109999900000001,-13.03403377532959,-3.380612850189209,0.646434485912323,-165.5426025390625,-37.2467041015625,-24.8260498046875
7.1299999000000005,-12.878411293029785,-4.122815132141113,0.5961562395095825,-164.5355224609375,-47.7142333984375,-9.735107421875
7.149999900000001,-12.18648624420166,-4.496310710906982,0.8810662031173706,-151.947021484375,-45.8221435546875,-7.537841796875
7.1699999000000005,-11.224017143249512,-4.474762916564941,1.3503297567367554,-132.5531005859375,-33.8592529296875,-16.7999267578125
7.1899999,-10.520122528076172,-4.201824188232422,1.7884687185287476,-123.199462890625,-28.99169921875,-25.6805419921875
7.209999900000001,-10.165780067443848,-3.780444383621216,2.1739351749420166,-119.6441650390625,-49.98779296875,-24.47509765625
7.2299999,-10.165780067443848,-3.3279404640197754,2.451662540435791,-92.3004150390625,-68.267822265625,-6.683349609375
7.249999900000001,-10.295066833496094,-2.9688100814819336,2.674323320388794,-61.4776611328125,-53.7872314453125,3.6773681640625
7.2699999,-10.551246643066406,-2.671929121017456,2.801215887069702,-40.3289794921875,-34.9578857421875,-7.2021484375
7.289999900000001,-10.81460952758789,-2.5091233253479004,2.7772738933563232,-28.3355712890625,-45.074462890625,-11.3525390625
7.3099999,-11.08754825592041,-2.518700122833252,2.6623523235321045,-13.5040283203125,-48.6907958984375,4.5318603515625
7.329999900000001,-11.329362869262695,-2.612074136734009,2.346317768096924,13.24462890625,-31.158447265625,26.8096923828125
7.3499999,-11.338939666748047,-2.8443117141723633,1.9991583824157715,26.42822265625,-15.56396484375,54.779052734375
7.369999900000001,-11.228805541992188,-3.0358476638793945,1.534683346748352,38.238525390625,-14.09912109375,55.7403564453125
7.3899999,-11.080365180969238,-3.1435868740081787,1.0271124839782715,56.82373046875,-24.658203125,39.48974609375
7.409999900000001,-10.864887237548828,-3.181894063949585,0.6368576288223267,64.3310546875,-21.942138671875,42.5872802734375
7.4299999,-10.66137981414795,-3.1292216777801514,0.3495534360408783,69.000244140625,-0.9918212890625,48.614501953125
7.449999900000001,-10.445901870727539,-3.0765492916107178,0.19153612852096558,79.6966552734375,4.6539306640625,35.8734130859375
7.4699999,-10.292673110961914,-2.851494312286377,0.0071826050989329815,103.1646728515625,-17.852783203125,-2.777099609375
7.489999900000001,-10.14902114868164,-2.3535003662109375,-0.2825157940387726,104.9041748046875,-20.7672119140625,-11.71875
7.5099999,-10.065223693847656,-1.580173134803772,-0.7469909191131592,61.7218017578125,27.069091796875,41.290283203125
7.529999900000001,-10.201693534851074,-0.6943184733390808,-1.3958195447921753,12.6953125,64.8345947265625,75.4852294921875
7.5499999,-10.467450141906738,-0.14365209639072418,-1.9560627937316895,-0.5035400390625,25.6500244140625,45.83740234375
7.569999900000001,-10.795455932617188,0.002394201699644327,-2.279279947280884,33.294677734375,-26.6876220703125,-22.5067138671875
7.5899999000000005,-11.044452667236328,-0.2753331959247589,-2.406172752380371,55.23681640625,-37.0330810546875,-55.2520751953125
7.609999900000001,-11.034875869750977,-0.7445967197418213,-2.2577321529388428,21.7437744140625,0.5340576171875,-23.5595703125
7.6299999000000005,-10.951078414916992,-1.2737152576446533,-2.1332337856292725,-2.74658203125,23.3001708984375,-12.4969482421875
7.649999900000001,-10.977415084838867,-1.9488801956176758,-2.0685901641845703,13.8702392578125,-6.53076171875,-36.8194580078125
7.6699999000000005,-11.008539199829102,-2.5929205417633057,-2.078166961669922,28.6102294921875,-48.919677734375,-39.0625
7.6899999,-10.948684692382812,-3.248931646347046,-2.166752576828003,6.6986083984375,-40.9393310546875,1.190185546875
7.709999900000001,-10.618284225463867,-3.7636849880218506,-2.296039342880249,-4.180908203125,-17.15087890625,25.1007080078125
7.7299999,-10.182539939880371,-4.067748546600342,-2.559401512145996,21.5301513671875,-18.310546875,-11.04736328125
7.749999900000001,-9.696516990661621,-4.177882194519043,-2.8562827110290527,35.614013671875,-40.71044921875,-32.806396484375
7.7699999,-9.30386734008789,-4.022258758544922,-3.24414324760437,26.3824462890625,-46.356201171875,-5.0506591796875
7.789999900000001,-9.030928611755371,-3.6152446269989014,-3.579331636428833,20.08056640625,-24.3988037109375,26.7486572265625
7.8099999,-8.83699893951416,-3.0334534645080566,-3.825934410095215,29.0985107421875,-14.984130859375,5.615234375
7.829999900000001,-8.78432559967041,-2.542642116546631,-3.9600095748901367,29.8004150390625,-27.1453857421875,-30.609130859375
7.8499999,-8.808267593383789,-2.121262788772583,-3.8786067962646484,22.76611328125,-42.8314208984375,-48.919677734375
7.869999900000001,-8.908824920654297,-1.8483237028121948,-3.6727054119110107,20.81298828125,-41.351318359375,-56.15234375
7.8899999,-8.990227699279785,-1.7094600200653076,-3.318363666534424,13.519287109375,-28.9154052734375,-58.3648681640625
7.909999900000001,-8.978256225585938,-1.7190368175506592,-2.8155810832977295,3.9520263671875,-22.2320556640625,-53.4210205078125
7.9299999,-8.937555313110352,-1.968033790588379,-2.2385785579681396,13.3514404296875,-18.8446044921875,-44.0826416015625
7.949999900000001,-8.844181060791016,-2.3511061668395996,-1.656787633895874,45.8526611328125,-16.937255859375,-46.7681884765625
7.9699999,-8.746018409729004,-2.698265314102173,-1.1468225717544556,72.7691650390625,-6.7138671875,-58.4716796875
7.989999900000001,-8.647856712341309,-2.8227639198303223,-0.8068459630012512,78.6285400390625,3.448486328125,-58.28857421875
8.0099999,-8.719682693481445,-2.7030537128448486,-0.7374141216278076,76.141357421875,3.8299560546875,-60.6689453125
8.0299999,-8.889671325683594,-2.408566951751709,-0.8858546018600464,79.8187255859375,-7.568359375,-68.267822265625
8.049999900000001,-9.090784072875977,-2.008735179901123,-1.1228805780410767,82.8857421875,-13.8397216796875,-62.3321533203125
8.069999900000001,-9.282320022583008,-1.5825673341751099,-1.3694833517074585,79.9102783203125,-11.9476318359375,-55.145263671875
8.0899999,-9.440337181091309,-1.0989385843276978,-1.5945383310317993,81.35986328125,-18.341064453125,-62.6220703125
8.1099999,-9.567230224609375,-0.6033388376235962,-1.8507179021835327,85.3271484375,-29.510498046875,-72.69287109375
8.129999900000001,-9.636661529541016,-0.2059013396501541,-2.0231003761291504,82.21435546875,-31.43310546875,-73.4100341796875
8.149999900000001,-9.586383819580078,0.19153612852096558,-2.166752576828003,86.700439453125,-19.8516845703125,-64.3463134765625
8.1699999,-9.394847869873047,0.5937620401382446,-2.276885747909546,90.4541015625,-9.185791015625,-48.64501953125
8.1899999,-9.169792175292969,1.0055646896362305,-2.3726539611816406,71.014404296875,6.103515625,-24.078369140625
8.2099999,-8.96389102935791,1.357512354850769,-2.4396915435791016,47.36328125,13.7786865234375,1.2664794921875
8.229999900000001,-8.746018409729004,1.5969325304031372,-2.3319525718688965,36.0565185546875,19.927978515625,20.2484130859375
8.2499999,-8.470685958862305,1.601720929145813,-2.0254945755004883,34.24072265625,30.3955078125,32.28759765625
8.2699999,-8.106766700744629,1.4293384552001953,-1.5083470344543457,29.388427734375,42.877197265625,29.266357421875
8.2899999,-7.915230751037598,1.139639973640442,-0.9074024558067322,21.97265625,56.243896484375,14.0838623046875
8.309999900000001,-7.927201747894287,0.8547300100326538,-0.3064578175544739,20.782470703125,52.0782470703125,7.5836181640625
8.3299999,-8.2312650680542,0.5626373887062073,0.18914192914962769,23.9410400390625,41.259765625,9.7198486328125
8.3499999,-8.710105895996094,0.33997663855552673,0.5746083855628967,24.0325927734375,42.4041748046875,-0.4425048828125
8.3699999,-9.157821655273438,0.21547815203666687,0.8331822156906128,24.3988037109375,38.5589599609375,-20.1873779296875
8.389999900000001,-9.543288230895996,0.2082955539226532,0.9552865028381348,28.38134765625,34.881591796875,-30.9295654296875
8.4099999,-9.890447616577148,0.3663128614425659,1.036689281463623,26.336669921875,38.75732421875,-23.49853515625
8.4299999,-10.182539939880371,0.6272808313369751,1.0749965906143188,16.66259765625,41.7633056640625,-2.1209716796875
8.4499999,-10.412383079528809,0.8834604024887085,1.1683704853057861,8.7738037109375,38.6962890625,12.420654296875
8.469999900000001,-10.54406452178955,1.0606313943862915,1.2856862545013428,9.8876953125,26.79443359375,6.89697265625
8.4899999,-10.599130630493164,1.2234370708465576,1.4389152526855469,12.2222900390625,32.806396484375,2.38037109375
8.5099999,-10.56800651550293,1.4532804489135742,1.5514427423477173,-5.8135986328125,49.86572265625,21.9879150390625
8.5299999,-10.536881446838379,1.7501614093780518,1.5179238319396973,-30.21240234375,64.3310546875,45.8526611328125
8.549999900000001,-10.512939453125,2.011129379272461,1.3670891523361206,-37.2161865234375,56.7169189453125,30.8837890625
8.569999900000001,-10.472238540649414,2.2385785579681396,1.048660397529602,-12.0849609375,24.71923828125,-35.0341796875
8.5899999,-10.512939453125,2.3989901542663574,0.5817909836769104,-16.4642333984375,32.71484375,-55.7708740234375
8.6099999,-10.60391902923584,2.473210334777832,0.0694318488240242,-71.5179443359375,58.929443359375,-17.730712890625
8.629999900000001,-10.757147789001465,2.3127987384796143,-0.4213795065879822,-115.90576171875,59.3719482421875,15.869140625
8.649999900000001,-10.824186325073242,1.7741034030914307,-0.6584054827690125,-110.41259765625,35.1409912109375,4.21142578125
8.6699999,-10.805032730102539,0.8331822156906128,-0.6272808313369751,-80.6732177734375,20.20263671875,-28.4881591796875
8.6899999,-10.771512985229492,-0.2992752194404602,-0.4141969084739685,-80.4443359375,29.571533203125,-28.3050537109375
8.709999900000001,-10.8720703125,-1.3958195447921753,-0.19393034279346466,-104.18701171875,37.0025634765625,7.0953369140625
8.729999900000001,-11.226411819458008,-2.319981336593628,-0.10055647045373917,-116.0888671875,29.60205078125,35.58349609375
8.7499999,-11.695674896240234,-3.071760892868042,-0.043095629662275314,-117.3553466796875,9.33837890625,39.6881103515625
8.7699999,-12.057199478149414,-3.6583402156829834,0.090979665517807,-114.8529052734375,-9.21630859375,31.6314697265625
8.7899999,-12.148179054260254,-4.0749311447143555,0.3974374830722809,-112.2894287109375,-27.2064208984375,24.6734619140625
8.809999900000001,-11.927912712097168,-4.280832767486572,0.9768342971801758,-113.2049560546875,-43.39599609375,19.10400390625
8.8299999,-11.54244613647461,-4.271255970001221,1.7573440074920654,-114.6392822265625,-51.9256591796875,12.3138427734375
8.8499999,-11.23598861694336,-4.129997730255127,2.410961151123047,-104.91943359375,-55.7098388671875,8.2855224609375
8.8699999,-11.228805541992188,-3.88818359375,2.8371291160583496,-97.015380859375,-57.159423828125,-7.476806640625
8.889999900000001,-11.480196952819824,-3.7181951999664307,2.9903578758239746,-93.1243896484375,-71.2890625,-25.390625
8.9099999,-11.853693008422852,-3.6535518169403076,2.8826189041137695,-67.2149658203125,-103.4393310546875,-24.5208740234375
8.9299999,-12.12902545928955,-3.603273630142212,2.956839084625244,-40.1153564453125,-109.1156005859375,-1.2664794921875
8.9499999,-12.138602256774902,-3.557783842086792,3.3039982318878174,-22.857666015625,-101.470947265625,48.5382080078125
8.969999900000001,-11.784260749816895,-3.4189200401306152,3.825934410095215,1.5869140625,-88.3636474609375,117.9351806640625
8.9899999,-11.310209274291992,-3.045424461364746,4.2090067863464355,27.3284912109375,-60.4095458984375,141.265869140625
9.0099999,-11.070788383483887,-2.5522189140319824,4.146757125854492,22.674560546875,-38.4674072265625,108.306884765625
9.0299999,-11.094730377197266,-2.073378562927246,3.6176388263702393,-8.4381103515625,-22.9339599609375,75.13427734375
9.049999900000001,-11.350910186767578,-1.7932571172714233,2.738966703414917,-3.2501220703125,-16.3421630859375,79.4830322265625
9.069999900000001,-11.726799964904785,-1.5753847360610962,1.7190368175506592,42.205810546875,-28.594970703125,46.2799072265625
9.0899999,-12.021286964416504,-1.4748282432556152,0.5195417404174805,56.0150146484375,-28.1219482421875,30.6396484375
9.1099999,-12.1194486618042,-1.3479355573654175,-0.6560112833976746,15.960693359375,21.0113525390625,75.469970703125
9.129999900000001,-12.121843338012695,-1.2449848651885986,-1.8171991109848022,-15.869140625,55.8319091796875,108.0780029296875
9.149999900000001,-12.1194486618042,-1.139639973640442,-2.7557260990142822,4.9591064453125,24.4293212890625,53.680419921875
9.1699999,-11.93748950958252,-1.1061211824417114,-3.315969467163086,26.7486572265625,-27.64892578125,2.7923583984375
9.1899999,-11.640608787536621,-1.0007762908935547,-3.4189200401306152,21.514892578125,-36.6973876953125,-1.373291015625
9.209999900000001,-11.276689529418945,-0.8403648138046265,-3.1100680828094482,11.7950439453125,-27.679443359375,-23.4527587890625
9.229999900000001,-10.939107894897461,-0.8379706144332886,-2.535459518432617,5.5389404296875,-17.8375244140625,-33.050537109375
9.2499999,-10.78587818145752,-0.9648633003234863,-1.845929503440857,3.0670166015625,-8.514404296875,-18.4478759765625
9.2699999,-10.922348022460938,-1.1779472827911377,-1.3048399686813354,3.2501220703125,-21.942138671875,-12.481689453125
9.2899999,-11.21204662322998,-1.4676456451416016,-0.993593692779541,0.2288818359375,-27.069091796875,-2.166748046875
9.309999900000001,-11.396400451660156,-1.6735470294952393,-0.8236053586006165,8.148193359375,-19.95849609375,4.5318603515625
9.3299999,-11.33654499053955,-1.86508309841156,-0.7110779285430908,26.9317626953125,-22.7813720703125,-8.6212158203125
9.3499999,-11.061211585998535,-2.0805611610412598,-0.6799532771110535,39.5050048828125,-36.1480712890625,-25.3448486328125
9.3699999,-10.587160110473633,-2.2146365642547607,-0.727837324142456,48.4619140625,-51.45263671875,-36.102294921875
9.389999900000001,-10.041281700134277,-2.3295583724975586,-0.8140285611152649,47.882080078125,-38.543701171875,-35.308837890625
9.4099999,-9.502586364746094,-2.434903144836426,-0.9433154463768005,47.7142333984375,-23.529052734375,-37.53662109375
9.4299999,-9.038111686706543,-2.5761611461639404,-1.015141487121582,54.595947265625,-25.7415771484375,-43.5638427734375
9.4499999,-8.75080680847168,-2.7078421115875244,-1.0654197931289673,69.5037841796875,-37.109375,-50.6744384765625
9.469999900000001,-8.592789649963379,-2.8155810832977295,-1.0462661981582642,80.3070068359375,-48.7213134765625,-57.6019287109375
9.4899999,-8.470685958862305,-2.7676970958709717,-0.9385270476341248,80.230712890625,-49.041748046875,-66.6046142578125
9.5099999,-8.327033042907715,-2.583343744277954,-0.7757213711738586,79.1015625,-44.281005859375,-73.05908203125
9.5299999,-8.180987358093262,-2.3989901542663574,-0.6440402865409851,76.4617919921875,-40.771484375,-71.59423828125
9.549999900000001,-8.075642585754395,-2.279279947280884,-0.5937620401382446,76.9805908203125,-36.6973876953125,-69.9462890625
9.569999900000001,-7.95832633972168,-2.209848165512085,-0.6512228846549988,82.427978515625,-37.109375,-68.5882568359375
9.5899999,-7.848193168640137,-2.121262788772583,-0.7637503147125244,82.3516845703125,-30.76171875,-71.624755859375
9.6099999,-7.706935405731201,-1.9584569931030273,-0.8355764150619507,77.0416259765625,-21.42333984375,-65.704345703125
9.629999900000001,-7.556100368499756,-1.7094600200653076,-0.8882488012313843,78.5369873046875,-22.5982666015625,-58.074951171875
9.649999900000001,-7.438784599304199,-1.5442601442337036,-0.9193734526634216,77.3162841796875,-24.3377685546875,-59.9365234375
9.6699999,-7.347805023193359,-1.4508862495422363,-1.01753568649292,72.81494140625,-18.61572265625,-65.155029296875
9.6899999,-7.182605266571045,-1.3551181554794312,-1.2210428714752197,70.98388671875,-3.5552978515625,-50.10986328125
9.709999900000001,-6.9455790519714355,-1.1228805780410767,-1.5322890281677246,63.690185546875,22.7508544921875,-19.989013671875
9.729999900000001,-6.761225700378418,-0.629675030708313,-2.032677173614502,55.450439453125,43.3197021484375,-1.0986328125
9.7499999,-6.617573261260986,0.06464344263076782,-2.5929205417633057,49.346923828125,50.537109375,5.0201416015625
9.7699999,-6.62236213684082,0.790086567401886,-3.1507694721221924,47.0123291015625,43.1060791015625,-19.134521484375
9.7899999,-6.732495307922363,1.4484920501708984,-3.5697548389434814,46.539306640625,37.1551513671875,-40.252685546875
9.809999900000001,-6.914454460144043,2.070984363555908,-3.711012601852417,36.5753173828125,67.840576171875,-7.232666015625
9.8299999,-7.283161640167236,2.4899697303771973,-3.5960910320281982,14.5111083984375,104.00390625,23.98681640625
9.8499999,-7.781155586242676,2.63362193107605,-3.315969467163086,9.2926025390625,92.2393798828125,20.8587646484375
9.8699999,-8.379706382751465,2.4468741416931152,-2.8227639198303223,24.9481201171875,74.0814208984375,16.3116455078125
9.889999900000001,-8.966285705566406,2.03507137298584,-2.322375535964966,42.78564453125,78.857421875,28.74755859375
9.9099999,-9.39245319366455,1.821987509727478,-1.9847931861877441,56.2286376953125,100.6317138671875,55.419921875
9.9299999,-9.6989107131958,1.965639591217041,-1.7597382068634033,41.8548583984375,121.1700439453125,75.3021240234375
9.9499999,-10.091560363769531,2.38462495803833,-1.6855180263519287,24.2156982421875,121.88720703125,78.948974609375
9.969999900000001,-10.465055465698242,2.918531894683838,-1.5131354331970215,35.5987548828125,100.494384765625,77.8961181640625
9.9899999,-10.867281913757324,3.378218650817871,-1.1994950771331787,61.46240234375,88.5162353515625,71.5789794921875
10.0099999,-11.154585838317871,3.88818359375,-0.7038952708244324,59.6771240234375,104.156494140625,69.15283203125
10.0299999,-11.42752456665039,4.522646903991699,-0.15083470940589905,33.905029296875,121.2158203125,67.1539306640625
10.049999900000001,-11.769895553588867,5.080495834350586,0.2992752194404602,20.4010009765625,107.36083984375,44.952392578125
10.069999900000001,-12.253523826599121,5.489904403686523,0.5051765441894531,25.726318359375,81.72607421875,22.7508544921875
10.0899999,-12.856863021850586,5.621585369110107,0.4429273009300232,20.904541015625,84.8846435546875,17.63916015625
10.1099999,-13.381193161010742,5.477933406829834,-0.090979665517807,16.082763671875,59.6923828125,2.655029296875
10.129999900000001,-13.524845123291016,5.39174222946167,-0.9289502501487732,23.62060546875,23.223876953125,-20.8892822265625
10.149999900000001,-13.187262535095215,5.489904403686523,-2.185906171798706,10.772705078125,20.843505859375,1.129150390625
10.1699999,-12.33253288269043,5.683835029602051,-3.4356794357299805,-13.458251953125,35.186767578125,31.7230224609375
10.1899999,-11.17852783203125,6.117185115814209,-4.750096321105957,10.6964111328125,-0.1983642578125,-2.3193359375
10.209999900000001,-9.988609313964844,6.260837554931641,-5.571307182312012,17.5323486328125,-42.0074462890625,-59.0362548828125
10.229999900000001,-9.174580574035645,5.889736175537109,-5.779603004455566,-24.505615234375,-32.6080322265625,-80.474853515625
10.2499999,-9.069235801696777,4.709394931793213,-5.281609058380127,-80.6732177734375,27.83203125,-62.835693359375
10.2699999,-9.859322547912598,2.736572504043579,-4.309563159942627,-108.4747314453125,72.4639892578125,-26.641845703125
10.2899999,-11.463438034057617,0.28730419278144836,-3.1292216777801514,-95.4132080078125,68.1610107421875,7.2784423828125
10.309999900000001,-13.675680160522461,-2.2816741466522217,-2.0374655723571777,-68.695068359375,34.72900390625,13.1072998046875
10.3299999,-15.91425895690918,-4.541800498962402,-1.1252747774124146,-40.863037109375,-8.4686279296875,-4.2877197265625
10.3499999,-17.63568878173828,-6.0621185302734375,-0.36152446269989014,-13.885498046875,-44.403076171875,3.448486328125
10.3699999,-18.626888275146484,-6.722918510437012,0.12689268589019775,4.7760009765625,-65.91796875,21.6064453125
10.389999900000001,-18.799272537231445,-6.421248912811279,0.40462008118629456,20.32470703125,-90.0115966796875,6.8511962890625
10.4099999,-18.392257690429688,-5.281609058380127,0.3998316824436188,48.095703125,-122.49755859375,-49.957275390625
10.4299999,-17.80328369140625,-3.847482204437256,0.15322890877723694,65.0177001953125,-147.64404296875,-71.9146728515625
10.4499999,-17.101781845092773,-2.22660756111145,-0.3423708379268646,75.74462890625,-167.5262451171875,-17.1966552734375
10.469999900000001,-16.45774269104004,-0.6775590777397156,-1.0438719987869263,88.3331298828125,-183.6090087890625,12.603759765625
10.4899999,-15.658079147338867,0.8954314589500427,-1.6615760326385498,69.915771484375,-179.87060546875,4.119873046875
10.5099999,-14.597447395324707,2.5306711196899414,-2.1164743900299072,52.886962890625,-171.234130859375,0.79345703125
10.5299999,-13.39555835723877,4.170699596405029,-2.3319525718688965,31.1126708984375,-152.069091796875,1.28173828125
10.549999900000001,-12.212822914123535,5.652710437774658,-2.4636335372924805,-8.7432861328125,-125.42724609375,12.908935546875
10.569999900000001,-11.0300874710083,6.744466304779053,-2.5019407272338867,-61.065673828125,-116.912841796875,15.5181884765625
10.5899999,-9.964667320251465,7.252037048339844,-2.3918075561523438,-73.516845703125,-126.0833740234375,-12.115478515625
10.6099999,-8.916007041931152,7.201758861541748,-2.03507137298584,-46.93603515625,-133.48388671875,-56.0150146484375
10.629999900000001,-7.908048152923584,6.67982292175293,-1.3215993642807007,-47.760009765625,-124.7100830078125,-80.1544189453125
10.649999900000001,-7.06528902053833,5.8657941818237305,-0.5099649429321289,-75.13427734375,-106.353759765625,-63.53759765625
10.6699999,-6.471527099609375,4.953603267669678,0.27054479718208313,-88.43994140625,-99.395751953125,-41.2750244140625
10.6899999,-6.141127586364746,3.993528366088867,0.8930372595787048,-88.3026123046875,-97.320556640625,-45.34912109375
10.709999900000001,-5.92325496673584,3.090914487838745,1.3072341680526733,-84.28955078125,-94.29931640625,-57.3883056640625
10.729999900000001,-5.774814605712891,2.229001760482788,1.4963760375976562,-83.06884765625,-75.836181640625,-52.1240234375
10.7499999,-5.571307182312012,1.455674648284912,1.50355863571167,-80.718994140625,-60.546875,-56.915283203125
10.7699999,-5.274426460266113,0.7948749661445618,1.4101848602294922,-64.849853515625,-51.7425537109375,-72.5250244140625
10.7899999,-4.824316501617432,0.1843535304069519,1.259350061416626,-39.9169921875,-54.290771484375,-84.41162109375
10.809999900000001,-4.331110954284668,-0.3878606855869293,1.094150185585022,-19.1650390625,-56.1065673828125,-95.6268310546875
10.8299999,-3.8594532012939453,-0.790086567401886,0.9169792532920837,-16.7388916015625,-47.4700927734375,-82.763671875
10.8499999,-3.426102638244629,-1.0199298858642578,0.667982280254364,-40.771484375,-40.0848388671875,-39.0625
10.8699999,-3.136404275894165,-1.2330138683319092,0.47884035110473633,-92.4224853515625,-24.078369140625,6.6986083984375
10.889999900000001,-3.0837318897247314,-1.525106430053711,0.43335050344467163,-139.3585205078125,-4.0283203125,31.829833984375
10.9099999,-3.1962592601776123,-2.054224967956543,0.5219359993934631,-149.566650390625,-1.1444091796875,67.1844482421875
10.9299999,-3.531447410583496,-2.9161376953125,0.7637503147125244,-133.6822509765625,-7.1868896484375,86.6546630859375
10.9499999,-4.0078935623168945,-3.9384617805480957,0.933738648891449,-109.619140625,-14.0533447265625,83.526611328125
10.969999900000001,-4.575319290161133,-4.920084476470947,1.0414776802062988,-93.0938720703125,-14.923095703125,79.65087890625
10.9899999,-5.04218864440918,-5.604825973510742,0.8882488012313843,-74.64599609375,-22.8118896484375,97.6104736328125
11.0099999,-5.51624059677124,-5.861005783081055,0.646434485912323,-80.780029296875,-4.6539306640625,113.433837890625
11.0299999,-5.928043365478516,-5.7772088050842285,0.3519476354122162,-103.6529541015625,16.78466796875,105.46875
11.049999900000001,-6.19379997253418,-5.430049419403076,0.033518824726343155,-100.2655029296875,15.8843994140625,89.9200439453125
11.069999900000001,-6.4380083084106445,-5.085284233093262,-0.11013327538967133,-93.5211181640625,19.3328857421875,77.7435302734375
11.0899999,-6.540958881378174,-4.728548526763916,-0.12928688526153564,-94.696044921875,26.6876220703125,87.371826171875
11.1099999,-6.502651691436768,-4.273650169372559,0.05027823522686958,-92.3614501953125,30.059814453125,79.7882080078125
11.129999900000001,-6.452373504638672,-3.7253777980804443,0.2561795711517334,-86.36474609375,28.5797119140625,42.0379638671875
11.149999900000001,-6.418854713439941,-3.265691041946411,0.5195417404174805,-89.599609375,33.721923828125,28.9306640625
11.1699999,-6.588842868804932,-3.1076738834381104,0.6847416758537292,-90.087890625,40.7257080078125,27.3284912109375
11.1899999,-6.9024834632873535,-3.313575267791748,0.7805097699165344,-82.8704833984375,41.56494140625,19.622802734375
11.209999900000001,-7.47230339050293,-3.883395195007324,0.828393816947937,-76.66015625,45.4254150390625,14.4805908203125
11.229999900000001,-8.118738174438477,-4.733336925506592,0.8571242094039917,-62.5,40.0543212890625,10.6353759765625
11.2499999,-8.722076416015625,-5.568912982940674,0.8643068075180054,-33.4930419921875,28.1219482421875,6.5765380859375
11.2699999,-9.105149269104004,-6.268020153045654,0.849941611289978,-22.5830078125,35.5682373046875,21.697998046875
11.2899999,-9.167398452758789,-6.62236213684082,0.8140285611152649,-30.059814453125,60.821533203125,55.1300048828125
11.309999900000001,-8.98543930053711,-6.449979305267334,0.6823474764823914,-32.684326171875,87.7685546875,75.3173828125
11.3299999,-8.65743350982666,-5.937620162963867,0.45489832758903503,-26.2298583984375,96.4202880859375,71.6094970703125
11.3499999,-8.465897560119629,-5.195417881011963,0.08140286058187485,-16.571044921875,100.4791259765625,49.6826171875
11.3699999,-8.485051155090332,-4.436455726623535,-0.42377370595932007,-18.4173583984375,112.12158203125,44.6929931640625
11.389999900000001,-8.669404029846191,-3.818751811981201,-0.9911994934082031,-28.1219482421875,115.4632568359375,60.1806640625
11.4099999,-9.153033256530762,-3.294421434402466,-1.678335428237915,-20.2178955078125,115.7684326171875,50.47607421875
11.4299999,-9.643844604492188,-3.0789434909820557,-2.3726539611816406,-13.946533203125,111.083984375,36.651611328125
11.4499999,-10.213664054870605,-2.920926094055176,-3.0550012588500977,-5.7525634765625,98.419189453125,25.5279541015625
11.469999900000001,-10.5344877243042,-2.827552318572998,-3.5745432376861572,-1.068115234375,71.319580078125,24.0020751953125
11.4899999,-10.685321807861328,-2.6671407222747803,-3.909731388092041,-14.2822265625,59.967041015625,32.2113037109375
11.5099999,-10.565611839294434,-2.4181437492370605,-3.974374771118164,-35.33935546875,59.8907470703125,41.3055419921875
11.5299999,-10.374075889587402,-2.1954829692840576,-3.821146011352539,-38.665771484375,49.9725341796875,28.533935546875
11.549999900000001,-10.170568466186523,-2.276885747909546,-3.3686418533325195,-27.89306640625,30.3955078125,1.7547607421875
11.569999900000001,-9.967061996459961,-2.4803929328918457,-2.691082715988159,-3.5400390625,22.7508544921875,-17.669677734375
11.5899999,-9.945513725280762,-2.6862943172454834,-2.1739351749420166,17.913818359375,56.793212890625,-19.134521484375
11.6099999,-10.441113471984863,-2.8155810832977295,-2.2409727573394775,19.500732421875,106.781005859375,10.9100341796875
11.629999900000001,-11.343728065490723,-2.6431987285614014,-3.069366693496704,36.1785888671875,100.341796875,28.2440185546875
11.649999900000001,-12.334927558898926,-2.3032219409942627,-4.402936935424805,70.25146484375,46.0052490234375,3.021240234375
11.6699999,-12.983756065368652,-1.8818424940109253,-5.647922039031982,87.0819091796875,43.51806640625,-12.4969482421875
11.6899999,-12.897564888000488,-1.4101848602294922,-6.390124320983887,89.111328125,79.9407958984375,30.029296875
11.709999900000001,-12.442666053771973,-0.8882488012313843,-6.818686485290527,100.189208984375,84.686279296875,83.5723876953125
11.729999900000001,-12.06198787689209,-0.33997663855552673,-6.943184852600098,96.832275390625,65.97900390625,92.71240234375
11.7499999,-12.016498565673828,0.14604631066322327,-7.089231014251709,96.6949462890625,46.7681884765625,58.380126953125
11.7699999,-12.368446350097656,0.5602431893348694,-7.050923824310303,119.903564453125,39.3218994140625,1.03759765625
11.7899999,-12.859257698059082,0.811634361743927,-6.971915245056152,157.53173828125,22.03369140625,-21.1181640625
11.809999900000001,-13.357251167297363,0.9050082564353943,-6.751648902893066,157.867431640625,20.3857421875,29.8614501953125
11.8299999,-13.64216136932373,0.8140285611152649,-6.552929878234863,138.580322265625,23.2086181640625,79.8187255859375
11.8499999,-13.601459503173828,0.6224924325942993,-6.308721542358398,147.369384765625,13.73291015625,43.88427734375
11.8699999,-13.28063678741455,0.45010992884635925,-5.983109951019287,163.116455078125,23.040771484375,-1.4495849609375
11.889999900000001,-12.890381813049316,0.27054479718208313,-5.595249176025391,156.6619873046875,33.2183837890625,8.5296630859375
11.9099999,-12.631808280944824,0.2298433631658554,-5.264849662780762,164.2608642578125,4.4403076171875,19.5159912109375
11.9299999,-12.593501091003418,0.3687070608139038,-5.013458251953125,187.6068115234375,-20.538330078125,-0.732421875
11.9499999,-12.682085990905762,0.7398083209991455,-4.9152960777282715,182.80029296875,-19.7906494140625,-2.1514892578125
11.969999900000001,-12.770671844482422,1.213860273361206,-4.81473970413208,132.7362060546875,-10.6964111328125,21.3623046875
11.9899999,-13.055582046508789,1.5610195398330688,-4.687847137451172,99.5025634765625,-14.46533203125,27.5115966796875
12.0099999,-13.285425186157227,1.6352397203445435,-4.431667327880859,106.6436767578125,-49.346923828125,35.552978515625
12.0299999,-13.543998718261719,1.4413094520568848,-4.027047157287598,112.85400390625,-72.6776123046875,62.68310546875
12.049999900000001,-13.479355812072754,1.039083480834961,-3.3854012489318848,84.77783203125,-83.1298828125,69.305419921875
12.069999900000001,-13.204022407531738,0.6943184733390808,-2.801215887069702,57.9071044921875,-69.4732666015625,34.332275390625
12.0899999,-13.261483192443848,0.1364694982767105,-2.4827871322631836,39.154052734375,-58.563232421875,-16.5863037109375
12.1099999,-13.362039566040039,-0.5051765441894531,-2.542642116546631,42.205810546875,-105.194091796875,-18.61572265625
12.129999900000001,-13.740324020385742,-1.0893617868423462,-2.9903578758239746,68.878173828125,-138.7786865234375,-7.720947265625
12.149999900000001,-13.848062515258789,-1.3623007535934448,-3.3734302520751953,74.40185546875,-130.4168701171875,-33.782958984375
12.1699999,-13.453019142150879,-0.9911994934082031,-3.3638534545898438,67.56591796875,-104.9346923828125,-47.1954345703125
12.1899999,-12.72757625579834,-0.1867477297782898,-2.80361008644104,45.1507568359375,-91.4764404296875,-45.4559326171875
12.209999900000001,-11.894393920898438,0.7996633648872375,-1.7525556087493896,18.5089111328125,-93.26171875,-33.233642578125
12.229999900000001,-10.984597206115723,1.7381904125213623,-0.6536170840263367,16.2353515625,-108.88671875,-20.1568603515625
12.2499999,-10.134655952453613,2.3918075561523438,0.31603461503982544,10.0250244140625,-100.7843017578125,-25.787353515625
12.2699999,-9.327810287475586,2.806004285812378,0.828393816947937,1.800537109375,-87.188720703125,-34.36279296875
12.289999900000002,-8.81784439086914,2.8347349166870117,0.9409212470054626,-21.7132568359375,-72.2808837890625,-29.2510986328125
12.309999900000001,-8.434772491455078,2.559401512145996,0.751779317855835,-37.384033203125,-73.0743408203125,-7.5836181640625
12.3299999,-8.324639320373535,2.0829553604125977,0.4189853072166443,-30.8685302734375,-70.281982421875,0.18310546875
12.3499999,-8.169015884399414,1.6065093278884888,-0.011971008032560349,-31.6619873046875,-65.0634765625,-12.8631591796875
12.3699999,-7.982268333435059,1.2042834758758545,-0.5003881454467773,-60.2874755859375,-58.16650390625,-13.18359375
12.389999900000001,-7.716512203216553,0.8667010068893433,-0.9720458984375,-87.95166015625,-52.5054931640625,-2.7313232421875
12.4099999,-7.4770917892456055,0.5027823448181152,-1.3910311460494995,-78.4149169921875,-51.3458251953125,-0.1983642578125
12.4299999,-7.252037048339844,0.08858546614646912,-1.7405846118927002,-52.4444580078125,-58.0596923828125,-12.908935546875
12.4499999,-7.113173484802246,-0.395043283700943,-1.9704279899597168,-56.1370849609375,-59.295654296875,-16.7999267578125
12.469999900000001,-7.01979923248291,-0.9313444495201111,-2.0925323963165283,-72.265625,-58.3953857421875,-12.359619140625
12.4899999,-6.88332986831665,-1.4987702369689941,-2.123656988143921,-57.2052001953125,-64.9261474609375,-8.48388671875
12.5099999,-6.794744491577148,-2.008735179901123,-2.0853497982025146,-25.970458984375,-75.50048828125,-14.1754150390625
12.5299999,-6.698976516723633,-2.3726539611816406,-1.98958158493042,-38.6505126953125,-75.4241943359375,-6.9580078125
12.549999900000001,-6.646304130554199,-2.6455929279327393,-1.8339585065841675,-83.770751953125,-64.2547607421875,20.599365234375
12.569999900000001,-6.6391215324401855,-2.8874073028564453,-1.6184803247451782,-87.9974365234375,-65.7806396484375,29.9072265625
12.5899999,-6.598419666290283,-3.220201253890991,-1.2545616626739502,-61.7828369140625,-79.2694091796875,17.76123046875
12.6099999,-6.457161903381348,-3.5745432376861572,-0.7852981686592102,-56.0150146484375,-84.6405029296875,15.93017578125
12.629999900000001,-6.112396717071533,-3.8762125968933105,-0.2561795711517334,-76.0650634765625,-78.8116455078125,47.5006103515625
12.649999900000001,-5.70777702331543,-4.067748546600342,0.28730419278144836,-90.4693603515625,-66.009521484375,72.296142578125
12.6699999,-5.3342814445495605,-4.137180328369141,0.8307880163192749,-91.552734375,-60.4248046875,75.5157470703125
12.6899999,-5.116408824920654,-4.137180328369141,1.2545616626739502,-93.3685302734375,-65.1092529296875,83.3282470703125
12.709999900000001,-4.946420669555664,-4.10366153717041,1.5729905366897583,-109.344482421875,-67.9931640625,103.9886474609375
12.729999900000001,-4.845864295959473,-4.027047157287598,1.723825216293335,-110.015869140625,-57.12890625,105.8807373046875
12.7499999,-4.704606533050537,-3.928884983062744,1.8339585065841675,-101.1810302734375,-45.501708984375,102.84423828125
12.7699999,-4.522646903991699,-3.7421371936798096,1.6903064250946045,-88.0126953125,-56.5948486328125,113.2965087890625
12.789999900000002,-4.436455726623535,-3.466804027557373,1.5490485429763794,-105.133056640625,-40.4510498046875,120.8648681640625
12.809999900000001,-4.402936935424805,-3.0885202884674072,1.235408067703247,-120.4681396484375,-15.472412109375,115.692138671875
12.8299999,-4.460397720336914,-2.7700912952423096,0.8571242094039917,-113.6474609375,-3.7384033203125,98.57177734375
12.8499999,-4.709394931793213,-2.6671407222747803,0.5530605912208557,-115.0970458984375,10.2081298828125,74.9664306640625
12.8699999,-5.04218864440918,-2.875436305999756,0.2944868206977844,-107.5286865234375,7.965087890625,59.26513671875
12.889999900000001,-5.499481201171875,-3.294421434402466,0.1843535304069519,-97.4884033203125,11.65771484375,52.0477294921875
12.9099999,-5.975927352905273,-3.804386615753174,0.2346317619085312,-95.001220703125,34.515380859375,67.596435546875
12.9299999,-6.509834289550781,-4.261679172515869,0.3711012601852417,-87.34130859375,46.3409423828125,66.5130615234375
12.9499999,-7.079654216766357,-4.546588897705078,0.49559974670410156,-68.9849853515625,34.9884033203125,43.5943603515625
12.969999900000001,-7.5417351722717285,-4.659116744995117,0.4620809257030487,-43.548583984375,23.468017578125,33.416748046875
12.9899999,-7.9846625328063965,-4.4532151222229,0.24660277366638184,-33.3099365234375,56.5185546875,38.2843017578125
13.0099999,-8.243236541748047,-4.0964789390563965,-0.2082955539226532,-53.680419921875,89.66064453125,53.558349609375
13.0299999,-8.525752067565918,-3.576937437057495,-0.8236053586006165,-65.7806396484375,96.3287353515625,56.304931640625
13.049999900000001,-8.904036521911621,-3.1100680828094482,-1.4413094520568848,-64.697265625,100.128173828125,62.4542236328125
13.069999900000001,-9.299078941345215,-2.715024709701538,-2.1140801906585693,-41.595458984375,102.4017333984375,62.9119873046875
13.0899999,-9.749189376831055,-2.38462495803833,-2.7700912952423096,-25.2838134765625,105.3314208984375,35.675048828125
13.1099999,-10.02691650390625,-2.209848165512085,-3.3063924312591553,-34.1033935546875,103.1951904296875,10.986328125
13.129999900000001,-10.256759643554688,-2.140416383743286,-3.579331636428833,-37.384033203125,108.88671875,-3.2196044921875
13.149999900000001,-10.412383079528809,-2.2170307636260986,-3.8067808151245117,-23.4375,115.9515380859375,-2.0751953125
13.1699999,-10.469843864440918,-2.3319525718688965,-3.845088005065918,-25.115966796875,121.2615966796875,23.0712890625
13.1899999,-10.465055465698242,-2.315192937850952,-4.072536945343018,-30.2581787109375,116.2109375,32.989501953125
13.209999900000001,-10.137049674987793,-2.3989901542663574,-4.228160381317139,-44.7998046875,107.666015625,27.679443359375
13.229999900000001,-9.742006301879883,-2.583343744277954,-4.168305397033691,-31.158447265625,112.85400390625,-4.364013671875
13.2499999,-9.334992408752441,-2.8634653091430664,-3.936067581176758,1.312255859375,132.2021484375,-23.712158203125
13.2699999,-9.155426979064941,-3.1890766620635986,-3.6942532062530518,6.6070556640625,134.033203125,0.9765625
13.289999900000002,-9.373299598693848,-3.2178070545196533,-3.885789394378662,-9.552001953125,133.48388671875,23.284912109375
13.309999900000001,-9.768342971801758,-3.098097085952759,-4.6040496826171875,-40.313720703125,124.20654296875,41.07666015625
13.3299999,-10.199298858642578,-3.117250680923462,-5.568912982940674,-56.0302734375,105.95703125,32.4249267578125
13.3499999,-10.484209060668945,-3.3063924312591553,-6.473921298980713,-16.7083740234375,84.320068359375,-1.7242431640625
13.3699999,-10.529699325561523,-3.6296098232269287,-7.156269073486328,39.0472412109375,61.21826171875,-25.115966796875
13.389999900000001,-10.426748275756836,-3.8139634132385254,-7.620744228363037,50.1556396484375,59.38720703125,-14.862060546875
13.4099999,-10.295066833496094,-3.6367924213409424,-8.032546997070312,36.43798828125,68.695068359375,25.81787109375
13.4299999,-10.165780067443848,-3.160346269607544,-8.4108304977417,41.9464111328125,60.577392578125,54.962158203125
13.4499999,-10.019734382629395,-2.499546527862549,-8.738836288452148,76.4007568359375,42.7703857421875,48.0804443359375
13.469999900000001,-9.931148529052734,-1.7286136150360107,-9.045293807983398,100.9063720703125,39.1998291015625,29.693603515625
13.4899999,-9.892841339111328,-0.9097966551780701,-9.253589630126953,85.8612060546875,51.69677734375,47.1649169921875
13.5099999,-9.971850395202637,-0.1388636976480484,-9.35893440246582,67.2454833984375,65.5059814453125,92.34619140625
13.5299999,-10.141838073730469,0.45010992884635925,-9.332598686218262,87.46337890625,67.047119140625,115.1580810546875
13.549999900000001,-10.326191902160645,0.7972691655158997,-9.184157371520996,128.4637451171875,58.3343505859375,93.963623046875
13.569999900000001,-10.5344877243042,1.0007762908935547,-9.064447402954102,151.092529296875,51.513671875,69.0765380859375
13.5899999,-10.800244331359863,1.2545616626739502,-9.074024200439453,143.8446044921875,49.9267578125,78.79638671875
13.6099999,-11.085153579711914,1.6424223184585571,-9.133879661560059,120.0103759765625,35.675048828125,74.310302734375
13.629999900000001,-11.350910186767578,2.0877439975738525,-9.121908187866211,112.5335693359375,15.3045654296875,41.4276123046875
13.649999900000001,-11.494562149047852,2.492363929748535,-8.801085472106934,115.936279296875,7.5531005859375,-17.0135498046875
13.6699999,-11.587936401367188,2.7772738933563232,-8.26478385925293,110.687255859375,16.41845703125,-47.5921630859375
13.6899999,-11.743558883666992,2.765302896499634,-7.587224960327148,88.3026123046875,22.4456787109375,-33.905029296875
13.709999900000001,-12.02846908569336,2.4205379486083984,-7.043741226196289,81.1614990234375,10.650634765625,-18.2037353515625
13.729999900000001,-12.344504356384277,1.7094600200653076,-6.756437301635742,102.630615234375,-5.462646484375,-33.3099365234375
13.7499999,-12.516886711120605,0.6560112833976746,-6.737283706665039,108.33740234375,-6.65283203125,-31.8756103515625
13.7699999,-12.449849128723145,-0.5817909836769104,-6.84981107711792,96.893310546875,-3.0364990234375,-15.07568359375
13.789999900000002,-12.239158630371094,-1.7357962131500244,-6.995857238769531,105.95703125,-21.1029052734375,-17.425537109375
13.809999900000001,-11.882423400878906,-2.63362193107605,-7.029376029968262,113.983154296875,-50.0946044921875,-7.6904296875
13.8299999,-11.473014831542969,-3.1076738834381104,-6.888118267059326,115.2191162109375,-68.0999755859375,15.93017578125
13.8499999,-11.006145477294922,-3.1220390796661377,-6.560112476348877,123.10791015625,-70.9991455078125,16.6778564453125
13.8699999,-10.548852920532227,-2.7988216876983643,-6.133944988250732,136.8865966796875,-71.4111328125,-1.190185546875
13.889999900000001,-10.261548042297363,-2.3558945655822754,-5.5976433753967285,130.6610107421875,-65.3076171875,-3.509521484375
13.9099999,-10.199298858642578,-1.9297266006469727,-5.114014625549316,119.0185546875,-70.098876953125,7.2021484375
13.9299999,-10.290278434753418,-1.5921441316604614,-4.666299343109131,113.677978515625,-68.634033203125,15.19775390625
13.9499999,-10.472238540649414,-1.2737152576446533,-4.345476150512695,124.4964599609375,-57.9376220703125,-1.434326171875
13.969999900000001,-10.599130630493164,-0.8954314589500427,-4.194641590118408,138.7481689453125,-54.5654296875,-32.3944091796875
13.9899999,-10.718840599060059,-0.43095630407333374,-4.175487995147705,125.5645751953125,-57.647705078125,-39.2608642578125
14.0099999,-10.81460952758789,-0.10773907601833344,-4.1156325340271,85.0982666015625,-69.3817138671875,-27.2216796875
14.0299999,-10.819397926330566,-0.14604631066322327,-3.8355112075805664,51.6357421875,-78.1707763671875,-6.65283203125
14.049999900000001,-10.704475402832031,-0.5889736413955688,-3.2417490482330322,51.2542724609375,-85.26611328125,-5.2032470703125
14.069999900000001,-10.47942066192627,-1.3766659498214722,-2.4229321479797363,55.72509765625,-87.4481201171875,-14.2822265625
14.0899999,-10.24239444732666,-2.252943754196167,-1.5729905366897583,40.008544921875,-80.2459716796875,-14.9993896484375
14.1099999,-10.067618370056152,-2.9759926795959473,-0.9792284965515137,30.2886962890625,-83.67919921875,-18.9361572265625
14.129999900000001,-10.053253173828125,-3.4596214294433594,-0.6655880808830261,31.982421875,-89.3402099609375,-21.8353271484375
14.149999900000001,-10.070012092590332,-3.6104562282562256,-0.6775590777397156,39.1387939453125,-98.7396240234375,-16.66259765625
14.1699999,-10.06043529510498,-3.380612850189209,-0.8690952062606812,41.0919189453125,-103.759765625,-4.1656494140625
14.1899999,-9.890447616577148,-2.8347349166870117,-1.137245774269104,34.6527099609375,-104.0191650390625,1.9683837890625
14.209999900000001,-9.473855972290039,-2.161964178085327,-1.3311761617660522,18.00537109375,-101.9744873046875,10.31494140625
14.229999900000001,-8.9064302444458,-1.6065093278884888,-1.381454348564148,4.547119140625,-96.8475341796875,15.5792236328125
14.2499999,-8.200140953063965,-1.3838485479354858,-1.3000515699386597,2.899169921875,-94.4061279296875,18.61572265625
14.2699999,-7.462726593017578,-1.5634137392044067,-1.070208191871643,10.2996826171875,-92.83447265625,19.073486328125
14.289999900000002,-6.7923502922058105,-2.0183119773864746,-0.790086567401886,22.2930908203125,-89.3096923828125,5.859375
14.309999900000001,-6.2416839599609375,-2.583343744277954,-0.4908113479614258,22.674560546875,-84.5489501953125,1.3885498046875
14.3299999,-5.8873419761657715,-3.19865345954895,-0.13168109953403473,6.805419921875,-76.080322265625,13.946533203125
14.3499999,-5.688623428344727,-3.77565598487854,0.26096799969673157,11.4898681640625,-71.990966796875,20.8892822265625
14.3699999,-5.571307182312012,-4.213795185089111,0.689530074596405,41.9921875,-72.7081298828125,17.364501953125
14.389999900000001,-5.559336185455322,-4.343081951141357,0.9552865028381348,60.394287109375,-70.9381103515625,8.0413818359375
14.4099999,-5.559336185455322,-4.1874589920043945,1.1061211824417114,22.216796875,-61.21826171875,26.458740234375
14.4299999,-5.676652431488037,-3.8283286094665527,1.139639973640442,-22.64404296875,-45.10498046875,51.69677734375
14.4499999,-5.822698593139648,-3.5218706130981445,1.1659762859344482,-22.186279296875,-49.1180419921875,53.7567138671875
14.469999900000001,-5.937620162963867,-3.3949780464172363,1.2497732639312744,-0.579833984375,-58.197021484375,52.6580810546875
14.4899999,-6.026205539703369,-3.399766445159912,1.314416766166687,6.3323974609375,-53.558349609375,50.47607421875
14.5099999,-6.129156112670898,-3.469198226928711,1.3263877630233765,-9.6893310546875,-45.8221435546875,52.4139404296875
14.5299999,-6.275202751159668,-3.5170822143554688,1.2761094570159912,-24.0936279296875,-42.8924560546875,65.582275390625
14.549999900000001,-6.421248912811279,-3.6535518169403076,1.1252747774124146,-27.7099609375,-47.7294921875,77.1636962890625
14.569999900000001,-6.562506675720215,-3.8714241981506348,0.9313444495201111,-42.2210693359375,-42.2821044921875,89.874267578125
14.5899999,-6.6127848625183105,-3.9887399673461914,0.727837324142456,-57.5714111328125,-32.2418212890625,108.45947265625
14.6099999,-6.598419666290283,-4.0964789390563965,0.4572925269603729,-60.60791015625,-34.0728759765625,110.9161376953125
14.629999900000001,-6.648698329925537,-4.07014274597168,0.22266076505184174,-59.4024658203125,-45.59326171875,96.7254638671875
14.649999900000001,-6.63433313369751,-4.005499362945557,-0.033518824726343155,-69.9462890625,-55.694580078125,93.597412109375
14.6699999,-6.5265936851501465,-4.036623954772949,-0.11013327538967133,-96.8780517578125,-50.323486328125,115.6158447265625
14.6899999,-6.335057735443115,-4.089296340942383,0.05746084079146385,-107.6812744140625,-43.548583984375,110.1837158203125
14.709999900000001,-6.026205539703369,-4.177882194519043,0.5506663918495178,-93.0633544921875,-56.8389892578125,62.1337890625
14.729999900000001,-5.750872611999512,-4.158728122711182,1.1899182796478271,-80.7647705078125,-65.399169921875,40.3594970703125
14.7499999,-5.669469833374023,-4.0078935623168945,1.920149803161621,-95.03173828125,-40.8782958984375,59.478759765625
14.7699999,-5.583278179168701,-3.914519786834717,2.4660277366638184,-92.132568359375,3.0517578125,63.568115234375
14.789999900000002,-5.796362400054932,-3.9911341667175293,2.8658595085144043,-82.305908203125,24.9786376953125,28.900146484375
14.809999900000001,-6.033388137817383,-4.376600742340088,2.959233283996582,-74.8291015625,21.2249755859375,15.594482421875
14.8299999,-6.378153324127197,-5.0014872550964355,2.82515811920166,-88.9129638671875,30.3192138671875,50.84228515625
14.8499999,-6.766014099121094,-5.643133640289307,2.5546131134033203,-110.7940673828125,52.0477294921875,69.1375732421875
14.8699999,-7.072471618652344,-6.064512729644775,2.2577321529388428,-113.83056640625,50.72021484375,49.6368408203125
14.889999900000001,-7.232883453369141,-6.2201361656188965,1.9991583824157715,-110.0616455078125,35.70556640625,32.470703125
14.9099999,-7.201758861541748,-6.1985883712768555,1.8938134908676147,-112.2894287109375,34.66796875,31.4178466796875
14.9299999,-7.1251444816589355,-6.01423454284668,1.8291701078414917,-109.893798828125,43.487548828125,35.2630615234375
14.9499999,-7.005434036254883,-5.676652431488037,1.742978811264038,-103.3172607421875,58.2122802734375,49.041748046875
14.969999900000001,-6.993463039398193,-5.202600479125977,1.5705963373184204,-109.8785400390625,75.225830078125,69.1070556640625
14.9899999,-7.137115478515625,-4.707000732421875,1.2425906658172607,-114.3798828125,77.789306640625,66.7877197265625
15.0099999,-7.539340972900391,-4.304774761199951,0.7996633648872375,-103.1494140625,66.22314453125,38.4368896484375
15.0299999,-8.111555099487305,-4.10366153717041,0.4189853072166443,-83.4197998046875,56.182861328125,37.506103515625
15.049999900000001,-8.87051773071289,-3.971980571746826,0.27054479718208313,-72.8302001953125,60.9130859375,53.77197265625
15.069999900000001,-9.677363395690918,-3.8953661918640137,0.3926490843296051,-61.9659423828125,59.7381591796875,45.95947265625
15.0899999,-10.472238540649414,-3.845088005065918,0.6105214357376099,-45.745849609375,54.2144775390625,25.9246826171875
15.1099999,-11.058817863464355,-3.9815573692321777,0.6823474764823914,-41.3665771484375,61.58447265625,36.468505859375
15.129999900000001,-11.580753326416016,-4.2329487800598145,0.3687070608139038,-48.614501953125,84.9761962890625,56.1676025390625
15.149999900000001,-11.81059741973877,-4.4532151222229,-0.4357447028160095,-57.4188232421875,103.02734375,77.4688720703125
15.1699999,-11.858481407165527,-4.400542736053467,-1.5921441316604614,-61.1114501953125,93.68896484375,83.7860107421875
15.1899999,-11.590330123901367,-4.082113742828369,-2.6839001178741455,-65.826416015625,84.6405029296875,81.6192626953125
15.209999900000001,-11.15697956085205,-3.4356794357299805,-3.529053211212158,-58.0291748046875,96.405029296875,86.517333984375
15.229999900000001,-10.627861022949219,-2.6384103298187256,-4.141968727111816,-41.7022705078125,99.9298095703125,87.310791015625
15.2499999,-10.287884712219238,-1.6543933153152466,-4.5394062995910645,-37.445068359375,81.23779296875,64.1632080078125
15.2699999,-10.086771965026855,-0.7158663272857666,-4.819528102874756,-42.9840087890625,35.15625,21.6064453125
15.289999900000002,-10.086771965026855,0.028730420395731926,-4.857835292816162,-42.48046875,2.6397705078125,-6.103515625
15.309999900000001,-10.153809547424316,0.5003881454467773,-4.469974517822266,-24.4293212890625,-5.1422119140625,-14.3280029296875
15.3299999,-10.249577522277832,0.689530074596405,-3.8283286094665527,13.3056640625,-16.6015625,-20.1416015625
15.3499999,-10.673351287841797,0.7493851184844971,-3.0382418632507324,33.4625244140625,-49.1485595703125,-41.961669921875
15.3699999,-11.604695320129395,0.7972691655158997,-2.341529369354248,52.79541015625,-78.2623291015625,-83.67919921875
15.389999900000001,-13.345280647277832,0.7398083209991455,-1.5753847360610962,55.84716796875,-95.3369140625,-126.556396484375
15.4099999,-15.720328330993652,0.033518824726343155,-0.1604115068912506,39.886474609375,-95.6878662109375,-175.2471923828125
15.4299999,-18.23184585571289,-1.9608511924743652,2.229001760482788,89.5233154296875,-121.002197265625,-256.40869140625
15.4499999,-20.21903419494629,-5.789179801940918,5.935225963592529,227.8289794921875,-251.068115234375,-455.963134765625
15.469999900000001,-21.085735321044922,-10.766724586486816,10.800244331359863,337.7685546875,-451.873779296875,-500
15.4899999,-20.17354393005371,-15.363592147827148,15.808914184570312,347.869873046875,-497.9705810546875,-500
15.5099999,-17.338808059692383,-17.6141414642334,19.333179473876953,300.2166748046875,-342.4835205078125,-397.1710205078125
15.5299999,-12.660538673400879,-15.820884704589844,20.822372436523438,257.4462890625,-161.9110107421875,-47.4090576171875
15.549999900000001,-6.94079065322876,-10.031704902648926,19.32120704650879,277.4810791015625,-173.27880859375,8.9263916015625
15.569999900000001,-0.9648633003234863,-1.678335428237915,14.956578254699707,297.0733642578125,-196.136474609375,16.6778564453125
15.5899999,3.028665065765381,6.62236213684082,8.291120529174805,164.36767578125,-28.38134765625,32.1807861328125
15.6099999,3.315969467163086,11.528080940246582,-0.5889736413955688,-16.6778564453125,92.1173095703125,33.782958984375
15.629999900000001,-1.434126853942871,11.537657737731934,-9.41639518737793,-119.8272705078125,132.598876953125,76.507568359375
15.649999900000001,-12.02846908569336,5.74129581451416,-17.62611198425293,-136.3067626953125,154.571533203125,90.88134765625
15.6699999,-23.408109664916992,-2.695871114730835,-21.8614559173584,-37.04833984375,-36.3616943359375,88.5772705078125
15.6899999,-31.682470321655273,-10.409989356994629,-22.491130828857422,100.250244140625,-208.0230712890625,139.1448974609375
15.709999900000001,-32.769439697265625,-14.757859230041504,-19.266141891479492,100.7537841796875,-211.578369140625,164.9627685546875
15.729999900000001,-25.64908218383789,-14.97812557220459,-13.232752799987793,7.4310302734375,-185.302734375,88.8519287109375
15.7499999,-13.206416130065918,-12.543222427368164,-5.643133640289307,-51.6815185546875,-192.7947998046875,-22.247314453125
15.7699999,1.7525556087493896,-9.81143856048584,2.801215887069702,-94.0093994140625,-178.070068359375,-53.314208984375
15.789999900000002,16.378734588623047,-7.7643961906433105,10.852916717529297,-81.0394287109375,-82.1533203125,23.6663818359375
15.809999900000001,29.178136825561523,-7.113173484802246,18.181568145751953,-74.9359130859375,43.1976318359375,69.76318359375
15.8299999,37.744590759277344,-7.036558628082275,23.424869537353516,-20.2484130859375,107.2235107421875,-33.0352783203125
15.8499999,40.26568603515625,-7.2113356590271,25.538949966430664,74.981689453125,163.3148193359375,-154.7088623046875
15.869999900000002,36.078224182128906,-7.376535415649414,23.910892486572266,99.8077392578125,250.6256103515625,-123.1842041015625
15.889999900000001,25.555709838867188,-7.280767440795898,18.45929527282715,68.267822265625,341.5679931640625,-22.979736328125
15.9099999,10.515334129333496,-6.761225700378418,10.225635528564453,49.2706298828125,372.9400634765625,29.0985107421875
15.9299999,-8.40843677520752,-6.75883150100708,0.4165911078453064,11.077880859375,346.8017578125,-40.313720703125
15.9499999,-27.52374267578125,-6.955155849456787,-8.427590370178223,-62.347412109375,247.2686767578125,-77.1942138671875
15.969999900000001,-41.87937545776367,-6.672640323638916,-14.561534881591797,-9.7198486328125,24.261474609375,41.0919189453125
15.9899999,-48.24076843261719,-5.609614372253418,-17.6763916015625,113.006591796875,-132.232666015625,164.6728515625
16.0099999,-44.572853088378906,-3.6511576175689697,-16.974889755249023,32.40966796875,-83.1298828125,169.1131591796875
16.0299999,-33.435028076171875,-1.2689268589019775,-13.718775749206543,-97.900390625,-16.4031982421875,130.79833984375
16.0499999,-19.80483627319336,0.31364041566848755,-9.253589630126953,-118.0419921875,-14.9993896484375,150.6805419921875
16.0699999,-7.51779317855835,0.5315127968788147,-4.460397720336914,-103.057861328125,6.1187744140625,184.38720703125
16.089999900000002,2.1116859912872314,-0.5171475410461426,-0.028730420395731926,-107.48291015625,24.383544921875,185.8062744140625
16.109999900000002,8.913613319396973,-2.695871114730835,3.7924153804779053,-111.8011474609375,19.47021484375,95.123291015625
16.1299999,13.433865547180176,-5.60722017288208,6.938396453857422,-47.8057861328125,41.0614013671875,-70.80078125
16.1499999,15.969325065612793,-9.232041358947754,9.20091724395752,24.4903564453125,145.93505859375,-142.974853515625
16.1699999,16.364368438720703,-12.90953540802002,11.034875869750977,41.32080078125,289.4439697265625,-103.5308837890625
16.1899999,14.010868072509766,-15.749058723449707,11.602301597595215,88.9129638671875,389.6026611328125,-30.3497314453125
16.2099999,7.922413349151611,-17.630901336669922,11.552022933959961,103.1341552734375,468.9178466796875,25.421142578125
16.2299999,-2.121262788772583,-17.98763656616211,10.529699325561523,135.80322265625,430.6640625,-1.373291015625
16.249999900000002,-14.475343704223633,-16.704345703125,9.17936897277832,190.0634765625,287.65869140625,-67.4591064453125
16.269999900000002,-26.834213256835938,-13.931859970092773,7.47230339050293,241.7755126953125,172.698974609375,-47.454833984375
16.2899999,-36.09498596191406,-9.658209800720215,5.566518783569336,293.1365966796875,103.3477783203125,-63.323974609375
16.3099999,-40.452430725097656,-4.290409564971924,3.0526070594787598,309.326171875,82.0159912109375,-61.34033203125
16.3299999,-40.29201889038086,1.4053963422775269,-0.4812345504760742,264.22119140625,25.726318359375,-28.350830078125
16.3499999,-36.425384521484375,6.246472358703613,-4.321534156799316,161.041259765625,-85.479736328125,-11.0321044921875
16.3699999,-30.55001449584961,9.586383819580078,-7.872135162353516,114.2120361328125,-174.3316650390625,-14.801025390625
16.3899999,-23.376985549926758,10.898406028747559,-10.079588890075684,127.9296875,-237.48779296875,-0.6103515625
16.4099999,-15.866374969482422,10.60391902923584,-10.453084945678711,114.9749755859375,-246.5972900390625,0.54931640625
16.429999900000002,-8.738836288452148,9.248801231384277,-9.615114212036133,62.469482421875,-234.9853515625,-2.7923583984375
16.4499999,-2.604891538619995,7.187393665313721,-8.20492935180664,-3.6163330078125,-210.113525390625,0.2899169921875
16.4699999,2.2816741466522217,4.685452938079834,-6.921637058258057,-33.2489013671875,-210.7086181640625,-10.55908203125
16.4899999,5.944802761077881,1.556231141090393,-5.935225963592529,-61.46240234375,-213.2720947265625,-17.730712890625
16.5099999,8.35336971282959,-2.494758129119873,-5.219359874725342,-98.785400390625,-187.1490478515625,-2.960205078125
16.5299999,9.955090522766113,-7.60637903213501,-4.07014274597168,-72.418212890625,-170.2880859375,7.3089599609375
16.5499999,10.706870079040527,-12.926295280456543,-2.233790159225464,4.8980712890625,-126.89208984375,-10.467529296875
16.5699999,11.530475616455078,-17.724275588989258,0.5722141861915588,20.4010009765625,-88.37890625,-12.939453125
16.589999900000002,12.461819648742676,-20.736181259155273,4.197035789489746,-17.0440673828125,-7.7362060546875,-7.2479248046875
16.609999900000002,13.4290771484375,-21.3419132232666,8.101978302001953,-16.0369873046875,129.39453125,-22.3541259765625
16.6299999,13.491326332092285,-20.089746475219727,11.57357120513916,25.4364013671875,273.651123046875,-100.067138671875
16.6499999,11.791443824768066,-17.714698791503906,13.4290771484375,94.1619873046875,319.88525390625,-166.107177734375
16.6699999,8.26239013671875,-14.879963874816895,13.860033988952637,81.3140869140625,323.0438232421875,-148.284912109375
16.6899999,3.2609026432037354,-12.076353073120117,12.689269065856934,65.4449462890625,360.9619140625,-51.08642578125
16.7099999,-3.5625722408294678,-9.605537414550781,9.804255485534668,143.7530517578125,407.0281982421875,-59.4940185546875
16.7299999,-13.816938400268555,-7.7428483963012695,4.477157115936279,225.9063720703125,370.635986328125,-219.2840576171875
16.749999900000002,-26.271575927734375,-5.990292549133301,-2.2697031497955322,172.119140625,194.8089599609375,-226.318359375
16.769999900000002,-38.474822998046875,-4.108449935913086,-10.407594680786133,116.729736328125,-13.946533203125,51.69677734375
16.7899999,-45.949520111083984,-1.1563993692398071,-17.183185577392578,115.8599853515625,-183.349609375,258.9111328125
16.8099999,-45.59278106689453,2.212242364883423,-21.19586753845215,47.3480224609375,-280.3955078125,225.6622314453125
16.8299999,-37.454891204833984,4.850652694702148,-21.717803955078125,-83.0078125,-331.298828125,145.8892822265625
16.8499999,-24.825477600097656,5.317522048950195,-19.09375762939453,-141.3421630859375,-352.0660400390625,122.100830078125
16.8699999,-11.082759857177734,2.8634653091430664,-14.056358337402344,-118.1640625,-366.88232421875,52.947998046875
16.8899999,2.0398597717285156,-1.9800047874450684,-7.55131196975708,-69.9462890625,-385.162353515625,-71.5484619140625
16.9099999,14.202404022216797,-8.11634349822998,-0.5363011956214905,-57.708740234375,-362.701416015625,-172.6531982421875
16.929999900000002,25.019407272338867,-14.171279907226562,6.1985883712768555,-37.933349609375,-204.8797607421875,-156.5093994140625
16.9499999,33.38475036621094,-18.385074615478516,10.948684692382812,54.168701171875,155.3497314453125,-106.414794921875
16.9699999,37.96006774902344,-20.365079879760742,12.732364654541016,177.154541015625,295.135498046875,-70.7550048828125
16.9899999,37.18674087524414,-19.414581298828125,11.69806957244873,108.306884765625,385.0250244140625,-107.391357421875
17.0099999,31.378406524658203,-16.09382438659668,7.6566572189331055,125.9002685546875,405.6243896484375,-164.61181640625
17.0299999,21.839908599853516,-11.51611042022705,2.4636335372924805,131.1187744140625,421.9512939453125,-179.931640625
17.0499999,9.655815124511719,-6.754043102264404,-3.00711727142334,85.235595703125,415.557861328125,-190.4754638671875
17.0699999,-5.305551052093506,-3.4165258407592773,-7.929595947265625,-0.0457763671875,359.4818115234375,-203.18603515625
17.089999900000002,-22.96518325805664,-3.066972494125366,-11.889605522155762,-97.869873046875,238.189697265625,-250.2593994140625
17.109999900000002,-39.91134262084961,-5.408501625061035,-13.82172679901123,-137.02392578125,0.79345703125,-279.754638671875
17.1299999,-52.87355041503906,-8.83939266204834,-13.73314094543457,-68.511962890625,-138.9312744140625,-96.1151123046875
17.1499999,-57.84391403198242,-11.6430025100708,-11.980585098266602,13.580322265625,-116.27197265625,231.7047119140625
17.1699999,-52.93101119995117,-11.669339179992676,-8.96149730682373,39.8406982421875,-171.6766357421875,378.2501220703125
17.1899999,-40.75649642944336,-9.636661529541016,-5.91128396987915,18.4478759765625,-266.6778564453125,313.78173828125
17.2099999,-24.7775936126709,-6.813898086547852,-2.765302896499634,-52.79541015625,-320.1446533203125,172.7294921875
17.2299999,-8.307879447937012,-4.654327869415283,0.05267243832349777,-66.8487548828125,-317.0166015625,52.4749755859375
17.249999900000002,6.4380083084106445,-4.072536945343018,2.760514497756958,-49.5758056640625,-292.8466796875,-12.847900390625
17.269999900000002,18.808849334716797,-5.128379821777344,5.319916248321533,-66.253662109375,-263.1683349609375,-53.924560546875
17.2899999,28.459875106811523,-7.7428483963012695,7.445967197418213,-69.366455078125,-128.814697265625,-20.20263671875
17.3099999,34.550724029541016,-10.56800651550293,8.89445972442627,-45.440673828125,154.7393798828125,-27.6336669921875
17.3299999,36.21229934692383,-12.85207462310791,8.767566680908203,62.3626708984375,267.1356201171875,-82.2906494140625
17.3499999,32.982521057128906,-13.603854179382324,7.407660007476807,71.59423828125,307.43408203125,-90.3778076171875
17.3699999,25.63232421875,-12.473791122436523,4.666299343109131,63.385009765625,344.4366455078125,-76.8585205078125
17.3899999,15.241488456726074,-10.17296314239502,1.2497732639312744,67.7032470703125,375.732421875,-78.8726806640625
17.409999900000003,2.6216509342193604,-7.5632829666137695,-1.8962076902389526,44.2962646484375,373.7945556640625,-89.202880859375
17.429999900000002,-12.090718269348145,-5.9304375648498535,-4.853046894073486,15.2740478515625,373.9166259765625,-101.1962890625
17.4499999,-27.21489143371582,-5.207388877868652,-7.702147006988525,56.6864013671875,318.7713623046875,-140.5792236328125
17.4699999,-40.296810150146484,-5.200206279754639,-10.721235275268555,69.4122314453125,173.7518310546875,-99.42626953125
17.4899999,-49.057193756103516,-5.509057998657227,-13.977349281311035,-38.14697265625,81.11572265625,93.780517578125
17.5099999,-51.21676254272461,-5.377377033233643,-16.740259170532227,-189.4073486328125,23.040771484375,307.6019287109375
17.5299999,-46.49060821533203,-5.154716491699219,-18.033126831054688,-247.0703125,-154.6783447265625,346.1151123046875
17.5499999,-36.08540725708008,-5.276820659637451,-17.173608779907227,-219.6502685546875,-375.244140625,265.7623291015625
17.5699999,-22.270864486694336,-5.693411827087402,-14.121001243591309,-181.976318359375,-453.3233642578125,131.9427490234375
17.589999900000002,-7.390900611877441,-6.890512466430664,-9.624691009521484,-153.1524658203125,-394.2413330078125,61.279296875
17.609999900000002,5.626373767852783,-8.458714485168457,-4.2975921630859375,-150.32958984375,-349.2279052734375,28.38134765625
17.6299999,15.763423919677734,-10.007762908935547,0.5027823448181152,-103.94287109375,-389.9078369140625,-15.838623046875
17.6499999,23.03461456298828,-11.168951034545898,4.402936935424805,-87.9364013671875,-414.3829345703125,-47.42431640625
17.6699999,27.880477905273438,-11.908759117126465,7.062894821166992,-129.0740966796875,-312.9119873046875,-46.478271484375
17.6899999,30.353689193725586,-12.315773963928223,8.322244644165039,-109.405517578125,-103.0120849609375,-80.1239013671875
17.7099999,29.862876892089844,-12.610260009765625,8.010998725891113,-26.9622802734375,136.7950439453125,-129.8675537109375
17.7299999,26.137500762939453,-12.591106414794922,6.806715488433838,-22.2625732421875,285.0189208984375,-121.8109130859375
17.749999900000002,19.306842803955078,-12.069170951843262,4.81473970413208,-66.4215087890625,377.13623046875,-50.2166748046875
17.769999900000002,9.23682975769043,-11.571176528930664,2.3295583724975586,-80.841064453125,479.3853759765625,-18.2342529296875
17.7899999,-3.8355112075805664,-11.927912712097168,-0.7206547260284424,-26.9927978515625,499.9847412109375,-123.443603515625
17.8099999,-20.032285690307617,-13.888764381408691,-4.5394062995910645,64.239501953125,314.361572265625,-344.7265625
17.8299999,-35.290531158447266,-16.256629943847656,-8.097189903259277,82.1075439453125,-45.6390380859375,-388.12255859375
17.8499999,-47.20647430419922,-18.53112030029297,-11.188104629516602,81.11572265625,-151.7333984375,-108.09326171875
17.8699999,-51.5734977722168,-18.70350456237793,-12.145785331726074,60.0128173828125,-90.057373046875,179.351806640625
17.8899999,-47.45547103881836,-16.373945236206055,-11.35809326171875,88.3941650390625,-138.824462890625,352.1575927734375
17.909999900000003,-36.94971466064453,-12.203246116638184,-9.603142738342285,106.964111328125,-281.73828125,453.0029296875
17.929999900000002,-22.986730575561523,-6.9910688400268555,-7.445967197418213,46.7376708984375,-339.813232421875,462.5396728515625
17.9499999,-8.327033042907715,-2.298433542251587,-5.073313236236572,-84.075927734375,-266.9219970703125,386.962890625
17.9699999,4.668693542480469,0.6177040338516235,-2.070984363555908,-184.7991943359375,-205.7342529296875,233.2611083984375
17.9899999,14.413094520568848,1.235408067703247,1.3718775510787964,-178.28369140625,-217.041015625,63.90380859375
18.0099999,20.755334854125977,-0.09576806426048279,4.8722004890441895,-113.616943359375,-255.7525634765625,-13.2904052734375
18.0299999,24.00187110900879,-2.719813108444214,7.6997528076171875,-95.9320068359375,-242.5537109375,19.744873046875
18.0499999,24.748863220214844,-5.65031623840332,9.17936897277832,-84.53369140625,-138.9923095703125,6.7901611328125
18.0699999,23.57809829711914,-8.166622161865234,9.215282440185547,-57.373046875,10.4217529296875,-65.12451171875
18.089999900000002,20.803218841552734,-9.720458984375,8.310274124145508,-46.5850830078125,132.26318359375,-93.994140625
18.109999900000002,16.40985870361328,-10.141838073730469,6.967126846313477,-58.10546875,219.024658203125,-76.23291015625
18.1299999,10.359710693359375,-9.768342971801758,5.43723201751709,-79.58984375,297.332763671875,-62.713623046875
18.1499999,2.2840683460235596,-9.344569206237793,3.84269380569458,-90.484619140625,356.0028076171875,-54.5806884765625
18.1699999,-8.396465301513672,-9.560047149658203,1.8052281141281128,-93.6279296875,382.171630859375,-92.132568359375
18.1899999,-20.60449981689453,-10.194510459899902,-0.45489832758903503,-65.399169921875,339.1876220703125,-169.6624755859375
18.2099999,-32.35523986816406,-11.082759857177734,-3.2776620388031006,8.1634521484375,206.97021484375,-184.9517822265625
18.2299999,-41.8913459777832,-11.925518989562988,-6.236895561218262,30.792236328125,99.7467041015625,-83.1451416015625
18.249999900000002,-46.09556579589844,-11.745953559875488,-8.49941635131836,25.8636474609375,-10.2386474609375,77.5909423828125
18.269999900000002,-44.805091857910156,-11.077971458435059,-10.012551307678223,34.66796875,-139.434814453125,240.29541015625
18.2899999,-38.474822998046875,-9.682151794433594,-9.945513725280762,29.4647216796875,-244.8272705078125,273.5443115234375
18.3099999,-28.68732452392578,-7.524975776672363,-8.87051773071289,93.81103515625,-352.1270751953125,185.2264404296875
18.3299999,-17.721881866455078,-5.020640850067139,-7.575253963470459,119.5220947265625,-416.6107177734375,145.81298828125
18.3499999,-7.5632829666137695,-2.671929121017456,-6.3973069190979,14.4500732421875,-389.3890380859375,199.6307373046875
18.3699999,0.5722141861915588,-0.7182605266571045,-5.801150798797607,-77.972412109375,-325.469970703125,228.607177734375
18.3899999,6.289567947387695,0.49559974670410156,-5.384559631347656,-96.9390869140625,-278.7017822265625,174.2401123046875
18.409999900000003,9.859322547912598,0.5123591423034668,-5.17626428604126,-105.682373046875,-246.978759765625,127.8839111328125
18.429999900000002,11.60948371887207,-0.7852981686592102,-5.080495834350586,-158.1573486328125,-192.0928955078125,80.99365234375
18.4499999,11.947066307067871,-3.5697548389434814,-4.9799394607543945,-206.2835693359375,-128.3111572265625,34.7747802734375
18.4699999,11.563994407653809,-7.151480674743652,-4.8937482833862305,-173.4619140625,-108.0322265625,47.119140625
18.4899999,10.8505220413208,-10.591948509216309,-4.3406877517700195,-149.932861328125,-41.259765625,106.0791015625
18.5099999,9.962273597717285,-13.050793647766113,-3.383007049560547,-159.3170166015625,49.6673583984375,140.106201171875
18.5299999,9.258378028869629,-14.49210262298584,-1.699883222579956,-158.75244140625,92.193603515625,115.081787109375
18.5499999,8.403648376464844,-15.385140419006348,0.569819986820221,-112.4725341796875,97.6104736328125,67.4591064453125
18.5699999,7.558494567871094,-16.338031768798828,3.4524388313293457,-65.8416748046875,121.7193603515625,38.4521484375
18.589999900000002,6.452373504638672,-17.760189056396484,6.718130111694336,-45.7611083984375,150.7568359375,-8.2550048828125
18.609999900000002,5.039794445037842,-19.32599639892578,10.11550235748291,-18.4173583984375,198.1964111328125,-71.7926025390625
18.6299999,2.937685489654541,-21.32515525817871,13.160926818847656,27.64892578125,238.4185791015625,-111.6485595703125
18.6499999,-0.3447650372982025,-23.257274627685547,15.562311172485352,80.2459716796875,258.6212158203125,-173.6602783203125
18.6699999,-4.651933670043945,-24.162282943725586,16.723499298095703,153.350830078125,269.22607421875,-204.132080078125
18.6899999,-9.648633003234863,-23.08489227294922,16.390705108642578,211.7919921875,288.4368896484375,-155.792236328125
18.7099999,-14.420276641845703,-19.572599411010742,14.664484977722168,237.2283935546875,276.611328125,-70.6939697265625
18.7299999,-18.77532958984375,-14.001291275024414,11.57357120513916,247.7569580078125,256.0882568359375,-60.455322265625
18.749999900000002,-22.28762435913086,-7.714118003845215,7.16584587097168,261.627197265625,267.2271728515625,-98.480224609375
18.769999900000002,-25.866954803466797,-2.4181437492370605,0.8212111592292786,278.167724609375,251.373291015625,-105.224609375
18.7899999,-29.214048385620117,1.522712230682373,-6.696582317352295,233.3526611328125,112.396240234375,-77.3162841796875
18.8099999,-31.72077751159668,3.3901896476745605,-14.470555305480957,80.6427001953125,13.275146484375,128.875732421875
18.8299999,-31.572338104248047,3.552995204925537,-20.190303802490234,-45.47119140625,-53.7261962890625,318.90869140625
18.8499999,-27.913997650146484,2.6024973392486572,-22.570138931274414,-31.3568115234375,-154.84619140625,318.3746337890625
18.8699999,-20.848709106445312,0.8595184087753296,-21.20783805847168,-37.2467041015625,-194.5343017578125,204.2999267578125
18.8899999,-11.27190113067627,-1.623268723487854,-16.723499298095703,-134.8876953125,-196.2738037109375,166.3970947265625
18.909999900000003,-1.6089035272598267,-4.60165548324585,-10.500968933105469,-180.2520751953125,-202.2857666015625,91.8426513671875
18.929999900000002,7.402871608734131,-7.9415669441223145,-3.4189200401306152,-138.763427734375,-237.73193359375,-0.8697509765625
18.9499999,15.037981033325195,-11.255142211914062,3.3925838470458984,-111.4959716796875,-280.7464599609375,-25.543212890625
18.9699999,21.31557846069336,-14.233529090881348,9.030928611755371,-127.8228759765625,-298.52294921875,-37.3992919921875
18.9899999,26.099193572998047,-16.675615310668945,13.172897338867188,-82.9620361328125,-192.56591796875,-77.33154296875
19.0099999,28.289886474609375,-17.73863983154297,14.741100311279297,86.0137939453125,80.596923828125,-150.7110595703125
19.0299999,27.40163803100586,-17.350780487060547,13.886369705200195,176.9561767578125,319.64111328125,-174.6368408203125
19.0499999,22.737733840942383,-15.332468032836914,11.221623420715332,88.5009765625,449.21875,-121.3836669921875
19.0699999,14.24071216583252,-12.461819648742676,7.003039836883545,25.0396728515625,499.9847412109375,-78.61328125
19.089999900000002,2.3942017555236816,-10.433931350708008,2.0614075660705566,42.9229736328125,499.9847412109375,-36.31591796875
19.109999900000002,-11.681309700012207,-9.342175483703613,-3.318363666534424,163.116455078125,499.9847412109375,-58.89892578125
19.1299999,-25.69936180114746,-8.614337921142578,-9.813833236694336,349.945068359375,499.9847412109375,-187.591552734375
19.1499999,-37.177162170410156,-7.608773231506348,-16.270994186401367,302.6885986328125,197.7081298828125,-355.8807373046875
19.1699999,-43.483489990234375,-5.604825973510742,-21.234174728393555,79.742431640625,26.4129638671875,-165.679931640625
19.1899999,-44.06049346923828,-3.3063924312591553,-23.460783004760742,-72.174072265625,18.4783935546875,112.030029296875
19.2099999,-39.82514953613281,-1.5538369417190552,-21.784841537475586,-79.16259765625,-30.7464599609375,197.9522705078125
19.2299999,-32.44382858276367,-0.5674257874488831,-17.602170944213867,26.18408203125,-240.7989501953125,175.72021484375
19.249999900000002,-23.786394119262695,-0.40462008118629456,-12.337321281433105,120.269775390625,-438.17138671875,114.80712890625
19.269999900000002,-15.040374755859375,-0.9624691009521484,-7.558494567871094,81.817626953125,-491.302490234375,98.7396240234375
19.2899999,-6.62236213684082,-2.1954829692840576,-3.8139634132385254,-9.063720703125,-500,104.0496826171875
19.3099999,1.0845733880996704,-4.1180267333984375,-0.6919242739677429,-81.8634033203125,-491.1956787109375,48.431396484375
19.3299999,8.609549522399902,-7.06528902053833,3.023876667022705,-136.2762451171875,-431.243896484375,-52.7496337890625
19.3499999,14.990097045898438,-10.565611839294434,7.419631004333496,-138.5650634765625,-354.156494140625,-150.146484375
19.3699999,19.974824905395508,-14.245500564575195,11.767500877380371,-50.4913330078125,-329.803466796875,-161.407470703125
19.3899999,22.4935245513916,-17.183185577392578,15.634137153625488,18.0206298828125,-217.0257568359375,-124.8626708984375
19.409999900000003,22.30438232421875,-18.22945213317871,17.034744262695312,122.7874755859375,-58.16650390625,-142.1966552734375
19.429999900000002,19.711462020874023,-16.89109230041504,15.945383071899414,204.28466796875,68.328857421875,-146.697998046875
19.4499999,15.607800483703613,-13.345280647277832,12.591106414794922,182.0068359375,172.7447509765625,-70.6939697265625
19.4699999,10.759542465209961,-8.753201484680176,7.467514991760254,148.9715576171875,258.0108642578125,27.8472900390625
19.4899999,5.5329999923706055,-4.520252704620361,1.3311761617660522,166.7938232421875,298.6602783203125,29.3121337890625
19.5099999,0.1149216815829277,-1.778891921043396,-5.114014625549316,164.3218994140625,262.0086669921875,-19.4854736328125
19.5299999,-5.264849662780762,-0.5123591423034668,-10.824186325073242,106.62841796875,276.458740234375,14.2822265625
19.5499999,-9.823410034179688,0.2298433631658554,-15.109807014465332,56.2591552734375,306.82373046875,105.8807373046875
19.5699999,-12.928689002990723,1.4484920501708984,-17.214309692382812,24.444580078125,328.948974609375,211.1053466796875
19.589999900000002,-14.211980819702148,3.799597978591919,-17.322050094604492,-31.6925048828125,300.0946044921875,270.9808349609375
19.609999900000002,-13.690045356750488,6.897695064544678,-15.873557090759277,-120.5902099609375,269.561767578125,255.4168701171875
19.6299999,-11.875240325927734,9.849745750427246,-13.481749534606934,-204.8797607421875,209.6710205078125,175.384521484375
19.6499999,-9.583989143371582,11.726799964904785,-10.680533409118652,-243.0419921875,141.9525146484375,6.4697265625
19.6699999,-7.307103633880615,11.501745223999023,-7.565677165985107,-277.1759033203125,128.7689208984375,-64.7735595703125
19.6899999,-6.13633918762207,8.537723541259766,-4.46518611907959,-354.217529296875,154.4952392578125,-66.070556640625
19.7099999,-6.63433313369751,2.741360902786255,-1.6879122257232666,-364.2730712890625,119.5831298828125,-94.329833984375
19.7299999,-8.341399192810059,-5.190629482269287,1.50355863571167,-317.840576171875,15.777587890625,-133.0718994140625
19.749999900000002,-10.400412559509277,-14.030021667480469,4.934449672698975,-203.4149169921875,-96.5576171875,-250.8087158203125
19.769999900000002,-11.932701110839844,-22.045808792114258,8.803479194641113,-109.619140625,-124.908447265625,-413.9251708984375
19.7899999,-12.380416870117188,-28.522125244140625,12.854469299316406,-88.3941650390625,-42.236328125,-296.4019775390625
19.8099999,-12.105083465576172,-32.15891647338867,15.552734375,15.9149169921875,116.27197265625,-14.862060546875
19.8299999,-11.520898818969727,-32.652122497558594,16.558298110961914,142.1966552734375,176.9866943359375,113.983154296875
19.8499999,-10.733205795288086,-29.7742919921875,15.476119995117188,190.7806396484375,151.0467529296875,167.9534912109375
