# Time (seconds),Accel_X,Accel_Y,Accel_Z,Gyro_X,Gyro_Y,Gyro_Z
0.0099999,1.6424223184585571,2.7222073078155518,-9.897629737854004,36.773681640625,16.6473388671875,41.07666015625
0.029999900000000003,1.522712230682373,3.1531636714935303,-9.823410034179688,24.261474609375,4.913330078125,43.2891845703125
0.0499999,1.5394717454910278,3.5242648124694824,-9.950302124023438,3.4637451171875,-24.383544921875,42.0989990234375
0.0699999,1.6519991159439087,3.5673606395721436,-10.967838287353516,6.317138671875,-51.361083984375,57.2509765625
0.08999990000000001,1.9273324012756348,3.2537200450897217,-12.715604782104492,38.177490234375,-3.143310546875,86.1053466796875
0.10999990000000001,2.185906171798706,2.516305923461914,-14.992490768432617,52.2003173828125,64.0411376953125,84.65576171875
0.1299999,2.2888567447662354,-0.12689268589019775,-17.293319702148438,45.7305908203125,118.5760498046875,75.01220703125
0.14999990000000002,2.126051187515259,-1.3862427473068237,-16.498443603515625,21.514892578125,125.579833984375,61.95068359375
0.1699999,1.944091796875,-2.3798365592956543,-14.788984298706055,8.758544921875,124.81689453125,50.29296875
0.1899999,1.8770540952682495,-3.1076738834381104,-12.536040306091309,9.82666015625,134.3994140625,49.8504638671875
0.20999990000000002,2.0039467811584473,-3.641580820083618,-10.180145263671875,9.674072265625,136.90185546875,43.9453125
0.2299999,2.382230758666992,-4.170699596405029,-7.965508937835693,6.317138671875,118.59130859375,29.449462890625
0.2499999,2.9328970909118652,-4.745307922363281,-6.119579315185547,3.0975341796875,96.25244140625,11.0321044921875
0.2699999,3.603273630142212,-5.260061264038086,-4.790797710418701,-3.6468505859375,81.207275390625,-7.1563720703125
0.28999990000000003,4.264073371887207,-5.540182590484619,-4.2975921630859375,3.8604736328125,61.7523193359375,-22.857666015625
0.3099999,4.824316501617432,-5.47075080871582,-4.431667327880859,16.021728515625,55.999755859375,-31.67724609375
0.3299999,5.240907669067383,-5.118803024291992,-4.963180065155029,17.059326171875,63.1561279296875,-33.2489013671875
0.34999990000000003,5.48272180557251,-4.6255974769592285,-5.638344764709473,12.6190185546875,57.1441650390625,-37.3077392578125
0.3699999,5.568912982940674,-4.067748546600342,-6.074089527130127,17.2576904296875,46.44775390625,-48.1414794921875
0.3899999,5.5114521980285645,-3.6798880100250244,-6.3518171310424805,22.8118896484375,36.346435546875,-53.619384765625
0.40999990000000003,5.343858242034912,-3.4141316413879395,-6.44279670715332,22.6898193359375,35.2783203125,-59.4635009765625
0.4299999,5.097255229949951,-3.2585084438323975,-6.3733649253845215,20.5230712890625,39.9322509765625,-75.042724609375
0.4499999,4.829104900360107,-3.045424461364746,-6.2416839599609375,20.3857421875,28.961181640625,-90.911865234375
0.4699999,4.587290287017822,-2.612074136734009,-6.021417140960693,35.21728515625,19.4244384765625,-95.550537109375
0.4899999,4.41969633102417,-2.0254945755004883,-5.702988624572754,44.189453125,21.575927734375,-85.44921875
0.5099999,4.309563159942627,-1.3287819623947144,-5.274426460266113,22.064208984375,19.5770263671875,-85.479736328125
0.5299999,4.225766181945801,-0.6703764796257019,-4.611232280731201,-9.8724365234375,2.7923583984375,-97.6409912109375
0.5499999,4.168305397033691,0.1173158809542656,-4.163516521453857,8.575439453125,-31.6009521484375,-100.9521484375
0.5699999,4.106055736541748,0.9983820915222168,-3.864241600036621,59.173583984375,-40.0543212890625,-79.1015625
0.5899998999999999,4.039018154144287,1.941697597503662,-3.550601005554199,62.8814697265625,-16.0064697265625,-54.351806640625
0.6099998999999999,3.936067581176758,2.698265314102173,-3.335123062133789,9.552001953125,-42.4652099609375,-51.8951416015625
0.6299999,3.756502389907837,3.0789434909820557,-3.157952070236206,-27.77099609375,-95.5963134765625,-58.28857421875
0.6499999,3.509899616241455,3.157952070236206,-3.2561142444610596,5.126953125,-104.736328125,-58.807373046875
0.6699999,3.2082302570343018,3.24414324760437,-3.6966474056243896,47.2412109375,-86.883544921875,-52.398681640625
0.6899999,2.868253707885742,3.514688014984131,-4.484339714050293,26.8096923828125,-97.7020263671875,-44.281005859375
0.7099999,2.513911724090576,4.120420932769775,-5.195417881011963,-17.9901123046875,-123.5504150390625,-35.4156494140625
0.7299998999999999,2.183511972427368,5.128379821777344,-5.963956356048584,-9.1552734375,-136.9781494140625,-20.751953125
0.7499998999999999,1.9033904075622559,5.949591159820557,-6.955155849456787,27.069091796875,-137.5579833984375,15.0604248046875
0.7699999,1.7166426181793213,6.045359134674072,-8.068459510803223,15.44189453125,-122.314453125,47.6837158203125
0.7899999,1.6208745241165161,5.525817394256592,-9.344569206237793,-28.350830078125,-128.3416748046875,27.34375
0.8099999,1.558625340461731,4.661510944366455,-10.512939453125,-28.7933349609375,-133.4686279296875,1.6632080078125
0.8299999,1.522712230682373,4.2544965744018555,-11.554417610168457,33.8592529296875,-118.988037109375,22.64404296875
0.8499998999999999,1.3982137441635132,4.434061527252197,-12.251130104064941,76.5533447265625,-94.757080078125,71.4263916015625
0.8699998999999999,1.1827356815338135,4.513070106506348,-12.60307788848877,36.376953125,-86.97509765625,112.5640869140625
0.8899999,0.8786720037460327,4.2090067863464355,-12.931083679199219,2.0294189453125,-113.0523681640625,102.11181640625
0.9099999,0.5386953949928284,3.471592426300049,-12.950237274169922,32.89794921875,-88.3331298828125,76.3397216796875
0.9299999,0.2298433631658554,2.628833532333374,-12.978967666625977,70.6939697265625,-52.79541015625,92.3919677734375
0.9499999,-0.038307227194309235,1.6927006244659424,-13.204022407531738,44.586181640625,-71.2127685546875,131.9732666015625
0.9699998999999999,-0.13168109953403473,0.7086837291717529,-13.493721008300781,32.9437255859375,-69.9615478515625,131.927490234375
0.9899998999999999,-0.44532153010368347,-1.0319008827209473,-15.911864280700684,124.8779296875,-110.4888916015625,123.6724853515625
1.0099999,-0.4884171485900879,-1.4389152526855469,-15.636530876159668,150.1007080078125,126.129150390625,65.8721923828125
1.0299999,-0.6536170840263367,-1.623268723487854,-15.325284957885742,13.427734375,156.25,72.7081298828125
1.0499999,-0.7613561153411865,-1.5275006294250488,-13.608642578125,-77.117919921875,-110.6109619140625,182.4188232421875
1.0699999,-0.6991068720817566,-0.9888052940368652,-10.936713218688965,-16.815185546875,-46.6766357421875,120.025634765625
1.0899999,-0.6703764796257019,-1.0414776802062988,-9.998186111450195,62.5762939453125,52.30712890625,68.5882568359375
1.1099999,-0.6200982332229614,-1.4101848602294922,-10.259154319763184,37.3077392578125,31.341552734375,121.9482421875
1.1299999,-0.5386953949928284,-1.400607943534851,-10.60152530670166,-12.0086669921875,37.0941162109375,130.92041015625
1.1499999,-0.5123591423034668,-1.659181833267212,-11.45146656036377,-25.4058837890625,35.4461669921875,101.3336181640625
1.1699998999999999,-0.47165772318840027,-2.1811177730560303,-12.346898078918457,-3.2501220703125,51.4068603515625,92.620849609375
1.1899998999999999,-0.38546648621559143,-2.7030537128448486,-13.30457878112793,9.3536376953125,80.62744140625,97.2747802734375
1.2099999,-0.2849099934101105,-3.423708438873291,-14.144943237304688,-8.0108642578125,91.9036865234375,104.217529296875
1.2299999,-0.14844051003456116,-4.28322696685791,-14.712369918823242,-29.9835205078125,100.7080078125,86.5631103515625
1.2499999,-0.009576806798577309,-5.092466831207275,-15.071499824523926,-31.2042236328125,113.1439208984375,54.0771484375
1.2699999,0.14844051003456116,-5.616796970367432,-15.203181266784668,-11.2457275390625,134.979248046875,46.8902587890625
1.2899999,0.3232172429561615,-5.600037574768066,-14.925453186035156,8.636474609375,157.7301025390625,54.7637939453125
1.3099999,0.5339069962501526,-5.396530628204346,-14.082694053649902,10.650634765625,168.2586669921875,57.708740234375
1.3299999,0.7709329724311829,-5.262455463409424,-12.830527305603027,-2.5482177734375,152.7557373046875,43.2586669921875
1.3499999,1.0654197931289673,-5.310339450836182,-11.377246856689453,-6.805419921875,144.2108154296875,19.775390625
1.3699999,1.400607943534851,-5.3797712326049805,-10.0580415725708,3.387451171875,150.787353515625,8.6822509765625
1.3899999,1.7717092037200928,-5.367800235748291,-8.93037223815918,19.1497802734375,157.958984375,10.986328125
1.4099999,2.1356279850006104,-5.372588634490967,-7.857769966125488,30.3497314453125,154.9530029296875,8.758544921875
1.4299998999999999,2.4803929328918457,-5.523423194885254,-6.821080684661865,24.200439453125,138.6871337890625,-7.0648193359375
1.4499999,2.7940332889556885,-5.882553577423096,-5.906495571136475,8.087158203125,120.7733154296875,-30.8837890625
1.4699999,3.066972494125366,-6.368576526641846,-5.233725070953369,7.080078125,116.3330078125,-45.745849609375
1.4899999,3.2776620388031006,-6.730101108551025,-4.709394931793213,18.8446044921875,119.4305419921875,-60.6536865234375
1.5099999,3.4404678344726562,-6.938396453857422,-4.156333923339844,37.0635986328125,114.74609375,-73.822021484375
1.5299999,3.529053211212158,-6.959944248199463,-3.5027170181274414,35.4461669921875,90.1641845703125,-85.8612060546875
1.5499999,3.5936968326568604,-6.777985095977783,-2.6192567348480225,16.876220703125,75.103759765625,-105.194091796875
1.5699999,3.6176388263702393,-6.387730121612549,-1.723825216293335,10.009765625,60.211181640625,-121.063232421875
1.5899999,3.6343982219696045,-5.837063789367676,-0.8810662031173706,11.199951171875,39.6270751953125,-131.927490234375
1.6099999,3.6176388263702393,-5.2265424728393555,-0.24899697303771973,12.176513671875,13.1072998046875,-139.068603515625
1.6299999,3.620033025741577,-4.302380561828613,0.08619125932455063,21.0418701171875,-4.94384765625,-161.9720458984375
1.6499999,3.648763418197632,-1.6208745241165161,0.14844051003456116,27.3895263671875,-30.3955078125,-158.6151123046875
1.6699999,3.6320040225982666,-0.15801730751991272,-0.09576806426048279,45.47119140625,-61.2335205078125,-136.8865966796875
1.6899998999999999,3.507505416870117,1.3215993642807007,-0.40701428055763245,31.6314697265625,-79.345703125,-141.6778564453125
1.7099999,3.2417490482330322,2.6216509342193604,-1.137245774269104,-11.3983154296875,-100.6011962890625,-157.318115234375
1.7299999,2.913743495941162,4.050989151000977,-2.250549554824829,9.185791015625,-117.1417236328125,-136.3677978515625
1.7499999,2.561795711517334,5.341464042663574,-3.627215623855591,77.972412109375,-117.1875,-88.92822265625
1.7699999,2.212242364883423,5.95677375793457,-4.809951305389404,100.03662109375,-107.2845458984375,-53.8177490234375
1.7899999,1.889025092124939,6.0621185302734375,-6.052541732788086,25.4669189453125,-136.53564453125,-80.902099609375
1.8099999,1.6280571222305298,6.057330131530762,-7.048529624938965,-43.51806640625,-154.0069580078125,-115.0360107421875
1.8299999,1.455674648284912,6.074089527130127,-8.377311706542969,33.782958984375,-145.8587646484375,-62.896728515625
1.8499999,1.436521053314209,6.296750545501709,-9.349357604980469,123.4893798828125,-104.8126220703125,-2.166748046875
1.8699999,1.5490485429763794,6.3973069190979,-10.299856185913086,53.89404296875,-110.015869140625,-10.07080078125
1.8899999,1.7046716213226318,6.354211330413818,-11.058817863464355,-39.4134521484375,-153.01513671875,-37.3992919921875
1.9099999,1.843535304069519,6.313509941101074,-11.494562149047852,-4.669189453125,-129.9591064453125,-9.124755859375
1.9299998999999999,1.944091796875,6.435614109039307,-12.011710166931152,58.6090087890625,-107.3150634765625,40.0238037109375
1.9499999,1.9488801956176758,6.406883716583252,-12.337321281433105,66.558837890625,-112.060546875,55.450439453125
1.9699999,1.843535304069519,6.1267619132995605,-12.449849128723145,36.9110107421875,-122.589111328125,47.4395751953125
1.9899999,1.6112977266311646,5.458779811859131,-12.588712692260742,41.9921875,-120.880126953125,57.708740234375
2.0099999,1.3120225667953491,4.778826713562012,-12.725181579589844,69.122314453125,-95.306396484375,83.3587646484375
2.0299999,0.9864110946655273,4.122815132141113,-12.880805015563965,75.1953125,-76.1260986328125,91.4764404296875
2.0499999,0.6775590777397156,3.4572272300720215,-12.931083679199219,62.713623046875,-74.9053955078125,97.4884033203125
2.0699999,0.3758896589279175,2.6839001178741455,-12.919112205505371,48.4771728515625,-69.610595703125,109.039306640625
2.0899999,0.09816227108240128,1.8962076902389526,-12.928689002990723,43.243408203125,-51.4068603515625,112.6708984375
2.1099999,-0.11013327538967133,0.9313444495201111,-12.990938186645508,35.308837890625,-31.2957763671875,109.92431640625
2.1299999,-0.19153612852096558,0.009576806798577309,-13.012486457824707,34.820556640625,-18.9666748046875,99.9755859375
2.1499999,-0.16998831927776337,-0.6919242739677429,-12.775460243225098,46.722412109375,-4.3792724609375,91.8426513671875
2.1699999,-0.10295066982507706,-1.048660397529602,-12.404358863830566,53.22265625,4.4097900390625,93.170166015625
2.1899999,-0.10055647045373917,-1.01753568649292,-11.997344970703125,37.0025634765625,3.6773681640625,95.4742431640625
2.2099999,-0.16759411990642548,-0.9672574996948242,-11.597513198852539,14.556884765625,10.833740234375,98.9227294921875
2.2299999,-0.304063618183136,-0.9241618514060974,-11.473014831542969,1.708984375,10.955810546875,94.1162109375
2.2499999,-0.44771572947502136,-0.8212111592292786,-11.628637313842773,17.76123046875,16.90673828125,84.136962890625
2.2699999,-0.5817909836769104,-0.6751648783683777,-12.200851440429688,32.806396484375,29.0374755859375,91.5985107421875
2.2899999,-0.7038952708244324,-0.5913678407669067,-12.966996192932129,19.1650390625,57.830810546875,109.43603515625
2.3099999,-0.7948749661445618,-0.6631938815116882,-13.67807388305664,-1.6937255859375,78.8116455078125,106.353759765625
2.3299999,-0.7924807667732239,-1.3646949529647827,-14.214375495910645,-5.340576171875,80.841064453125,100.2349853515625
2.3499999,-0.706289529800415,-2.2864625453948975,-14.441824913024902,-8.209228515625,84.04541015625,83.160400390625
2.3699999,-0.5578489899635315,-3.308786630630493,-14.556746482849121,-4.5318603515625,104.6295166015625,70.709228515625
2.3899999,-0.3663128614425659,-4.060565948486328,-14.621389389038086,6.500244140625,123.47412109375,64.3310546875
2.4099999,-0.17238251864910126,-4.51067590713501,-14.453795433044434,14.7552490234375,141.2200927734375,60.638427734375
2.4299999,0.014365210197865963,-4.8051629066467285,-14.07311725616455,1.220703125,144.95849609375,52.4749755859375
2.4499999,0.2322375625371933,-4.829104900360107,-13.479355812072754,-17.4713134765625,145.4620361328125,32.5927734375
2.4699999,0.4812345504760742,-4.537012100219727,-12.90714168548584,-3.875732421875,151.641845703125,21.8963623046875
2.4899999,0.751779317855835,-4.046200752258301,-12.370840072631836,20.0958251953125,166.778564453125,33.782958984375
2.5099999,1.0534487962722778,-3.354276657104492,-11.769895553588867,21.1639404296875,180.5572509765625,37.0330810546875
2.5299999,1.3670891523361206,-2.9305028915405273,-11.118672370910645,12.87841796875,177.3223876953125,33.26416015625
2.5499999,1.702277421951294,-2.741360902786255,-10.237606048583984,11.04736328125,176.361083984375,21.453857421875
2.5699999,2.051830768585205,-2.956839084625244,-9.26795482635498,23.92578125,183.624267578125,19.1497802734375
2.5899999,2.410961151123047,-3.3854012489318848,-8.178592681884766,34.332275390625,184.63134765625,18.6767578125
2.6099999,2.760514497756958,-3.9887399673461914,-6.8162922859191895,41.5191650390625,181.365966796875,6.65283203125
2.6299999,3.095702886581421,-5.023035049438477,-5.4444146156311035,40.4510498046875,156.92138671875,-0.9613037109375
2.6499999,3.426102638244629,-6.1530985832214355,-4.072536945343018,23.5137939453125,134.9639892578125,-26.611328125
2.6699999,3.73016619682312,-7.295132637023926,-2.920926094055176,27.435302734375,128.753662109375,-55.4351806640625
2.6899999,3.971980571746826,-8.291120529174805,-1.9129672050476074,39.6728515625,122.7874755859375,-71.1822509765625
2.7099999,4.1611223220825195,-8.746018409729004,-0.8307880163192749,39.215087890625,105.133056640625,-91.4306640625
2.7299999,4.273650169372559,-8.592789649963379,0.19871874153614044,31.951904296875,62.01171875,-114.654541015625
2.7499999,4.352658748626709,-7.864952564239502,1.1252747774124146,24.383544921875,28.7017822265625,-123.96240234375
2.7699999,4.4077253341674805,-6.773196697235107,1.7860745191574097,28.564453125,15.0299072265625,-122.2686767578125
2.7899999,4.441244125366211,-5.492298603057861,2.03507137298584,53.6041259765625,-7.904052734375,-130.1422119140625
2.8099999,4.398148536682129,-4.4532151222229,2.0039467811584473,78.704833984375,-35.4461669921875,-135.9405517578125
2.8299999,4.285621166229248,-3.533841609954834,1.8698714971542358,63.4002685546875,-54.9468994140625,-143.24951171875
2.8499999,4.125209331512451,-2.5450363159179688,1.3192051649093628,29.998779296875,-82.763671875,-157.135009765625
2.8699999,3.931279182434082,-1.6950948238372803,0.5410895943641663,51.0711669921875,-96.9696044921875,-142.76123046875
2.8899999,3.6798880100250244,-0.9864110946655273,-0.4644751250743866,109.5123291015625,-98.5260009765625,-129.364013671875
2.9099999,3.265691041946411,-0.7182605266571045,-1.6424223184585571,109.43603515625,-115.020751953125,-139.58740234375
2.9299999,2.7485435009002686,-0.026336219161748886,-2.7030537128448486,9.3536376953125,-134.5672607421875,-187.80517578125
2.9499999,2.2218191623687744,0.9864110946655273,-4.304774761199951,-5.6304931640625,-163.665771484375,-179.5654296875
2.9699999,1.8124107122421265,2.3487119674682617,-5.904101371765137,110.5194091796875,-139.495849609375,-115.264892578125
2.9899999,1.5107412338256836,3.6559460163116455,-7.144298076629639,175.6439208984375,-92.437744140625,-88.1805419921875
3.0099999,1.3742717504501343,4.896142482757568,-8.17380428314209,49.3011474609375,-137.603759765625,-128.5552978515625
3.0299999,1.292868971824646,5.920860767364502,-8.841787338256836,-48.9349365234375,-184.844970703125,-125.823974609375
3.0499999,1.335964560508728,7.307103633880615,-9.603142738342285,33.99658203125,-155.517578125,-67.413330078125
3.0699999,1.5275006294250488,8.26239013671875,-10.323798179626465,160.5987548828125,-94.66552734375,1.5106201171875
3.0899999,1.7501614093780518,8.252813339233398,-10.828974723815918,156.5093994140625,-94.512939453125,20.0042724609375
3.1099999,1.944091796875,7.407660007476807,-10.912771224975586,43.060302734375,-137.7716064453125,-10.31494140625
3.1299999,2.011129379272461,6.100425720214844,-10.896012306213379,20.6298828125,-144.989013671875,-7.6141357421875
3.1499999,1.9584569931030273,5.274426460266113,-11.080365180969238,82.9925537109375,-112.24365234375,27.3284912109375
3.1699999,1.802833914756775,4.912901878356934,-11.5065336227417,97.9156494140625,-92.1630859375,56.2896728515625
3.1899999,1.2761094570159912,4.620809078216553,-12.416330337524414,54.4891357421875,-99.395751953125,76.873779296875
3.2099999,0.9672574996948242,4.14915132522583,-12.744335174560547,75.3173828125,-78.094482421875,96.1456298828125
3.2299999,0.6823474764823914,3.3494882583618164,-13.201627731323242,53.0242919921875,-81.756591796875,113.800048828125
3.2499999,0.3974374830722809,2.5665841102600098,-13.472172737121582,42.8314208984375,-73.6236572265625,105.438232421875
3.2699999,0.14365209639072418,1.8507179021835327,-13.309367179870605,81.0394287109375,-40.740966796875,110.4736328125
3.2899999,-0.11252748221158981,1.3886369466781616,-13.069947242736816,80.169677734375,-50.140380859375,135.2081298828125
3.3099999,-0.363918662071228,0.8259995579719543,-12.634202003479004,44.9981689453125,-60.302734375,160.7513427734375
3.3299999000000002,-0.6057330369949341,-0.12210428714752197,-12.674903869628906,24.5361328125,-50.048828125,159.698486328125
3.3499999,-0.7972691655158997,-1.1516109704971313,-12.88559341430664,39.1845703125,-7.2174072265625,123.016357421875
3.3699999,-0.9313444495201111,-1.8579005002975464,-13.022063255310059,73.486328125,27.89306640625,112.4267578125
3.3899999,-1.0127472877502441,-2.300827741622925,-12.87362289428711,63.29345703125,14.0380859375,147.796630859375
3.4099999,-1.0438719987869263,-2.6144683361053467,-12.464214324951172,7.99560546875,6.439208984375,156.219482421875
3.4299999,-1.0582371950149536,-3.1100680828094482,-12.097901344299316,-9.796142578125,24.139404296875,121.490478515625
3.4499999,-1.0654197931289673,-3.706224203109741,-12.052411079406738,29.60205078125,43.6553955078125,94.9554443359375
3.4699999,-1.0773907899856567,-4.19224739074707,-12.30859088897705,42.6483154296875,45.928955078125,112.060546875
3.4899999,-1.139639973640442,-4.309563159942627,-12.60307788848877,6.4544677734375,62.5152587890625,118.46923828125
3.5099999,-1.2449848651885986,-4.400542736053467,-13.103466033935547,-25.3448486328125,73.3642578125,104.3853759765625
3.5299999,-1.3551181554794312,-4.587290287017822,-13.505691528320312,-20.1873779296875,91.24755859375,91.6748046875
3.5499999,-1.434126853942871,-4.857835292816162,-13.752294540405273,-0.5950927734375,103.8360595703125,89.7674560546875
3.5699999,-1.4389152526855469,-5.1116204261779785,-13.713987350463867,-1.15966796875,112.548828125,86.0748291015625
3.5899999,-1.3958195447921753,-5.609614372253418,-13.529633522033691,-22.186279296875,119.2169189453125,74.5086669921875
3.6099999,-1.2425906658172607,-5.8873419761657715,-13.196839332580566,-36.0260009765625,129.3792724609375,48.187255859375
3.6299999,-1.0103530883789062,-6.011840343475342,-12.840104103088379,-11.9781494140625,140.2130126953125,37.5823974609375
3.6499999,-0.6991068720817566,-5.750872611999512,-12.282255172729492,15.1824951171875,150.32958984375,50.6744384765625
3.6699999,-0.3447650372982025,-5.3582234382629395,-11.595118522644043,9.1705322265625,150.93994140625,53.1768798828125
3.6899999,0.019153613597154617,-5.109226226806641,-10.757147789001465,-12.7105712890625,146.148681640625,42.388916015625
3.7099999,0.4118026793003082,-5.219359874725342,-9.986215591430664,-13.0157470703125,143.7835693359375,26.6876220703125
3.7299999,0.8451532125473022,-5.398924827575684,-9.318233489990234,1.739501953125,146.1639404296875,13.6871337890625
3.7499999,1.3239935636520386,-5.568912982940674,-8.78432559967041,13.24462890625,150.360107421875,9.4451904296875
3.7699999,1.7860745191574097,-5.655104637145996,-8.339004516601562,17.608642578125,147.2625732421875,8.23974609375
3.7899999,2.2242133617401123,-5.765237808227539,-7.829039573669434,13.4735107421875,143.798828125,0.8392333984375
3.8099999,2.612074136734009,-6.038176536560059,-7.491456985473633,5.92041015625,130.8135986328125,-13.3514404296875
3.8299999000000002,2.9472622871398926,-6.344634532928467,-7.2352776527404785,9.3536376953125,127.0904541015625,-30.1513671875
3.8499999,3.227383852005005,-6.651092529296875,-6.979097843170166,27.1148681640625,138.36669921875,-40.4052734375
3.8699999,3.464409828186035,-6.854599475860596,-6.694188117980957,42.3583984375,134.613037109375,-46.2493896484375
3.8899999,3.6750996112823486,-6.955155849456787,-6.081272125244141,49.591064453125,122.6654052734375,-58.0902099609375
3.9099999,3.8762125968933105,-7.067683219909668,-5.197812080383301,53.6346435546875,110.809326171875,-68.7713623046875
3.9299999,4.089296340942383,-7.1490864753723145,-4.108449935913086,38.6505126953125,95.8404541015625,-83.5113525390625
3.9499999,4.292803764343262,-7.117961883544922,-2.9472622871398926,22.1099853515625,80.902099609375,-99.578857421875
3.9699999,4.474762916564941,-6.959944248199463,-1.8986018896102905,23.0865478515625,58.6700439453125,-110.04638671875
3.9899999,4.630385875701904,-6.478709697723389,-1.0223240852355957,31.2957763671875,39.3218994140625,-120.2239990234375
4.0099999,4.7620673179626465,-5.896918773651123,-0.49320554733276367,43.487548828125,20.1416015625,-123.84033203125
4.029999900000001,4.845864295959473,-5.035006046295166,-0.3064578175544739,39.00146484375,1.800537109375,-129.852294921875
4.0499999,4.891354084014893,-4.106055736541748,-0.33518823981285095,28.8543701171875,-8.056640625,-137.5274658203125
4.069999900000001,4.903325080871582,-3.045424461364746,-0.6512228846549988,48.2635498046875,-25.4058837890625,-132.75146484375
4.0899999000000005,4.8722004890441895,-2.0398597717285156,-1.015141487121582,100.3265380859375,-37.689208984375,-121.9940185546875
4.1099999,4.73573112487793,-1.1683704853057861,-1.237802267074585,139.4195556640625,-41.412353515625,-114.6240234375
4.1299999000000005,4.4723687171936035,-0.40701428055763245,-1.0103530883789062,111.4501953125,-56.182861328125,-117.9656982421875
4.1499999,4.067748546600342,0.24899697303771973,-0.667982280254364,80.352783203125,-106.781005859375,-119.7357177734375
4.1699999000000005,3.598485231399536,0.7254431247711182,-0.7757213711738586,122.802734375,-156.92138671875,-100.9674072265625
4.1899999,3.0621838569641113,0.9576807022094727,-1.2761094570159912,175.78125,-133.9263916015625,-87.8753662109375
4.209999900000001,2.5306711196899414,1.3623007535934448,-2.296039342880249,109.771728515625,-120.8038330078125,-102.0355224609375
4.2299999,2.0159177780151367,1.7046716213226318,-3.620033025741577,12.5885009765625,-163.6962890625,-96.9696044921875
4.249999900000001,1.5825673341751099,2.255337953567505,-4.941632270812988,-5.218505859375,-189.1326904296875,-71.2127685546875
4.2699999,1.3000515699386597,2.564189910888672,-6.375759124755859,52.8106689453125,-168.0145263671875,-52.5970458984375
4.289999900000001,1.1516109704971313,2.4827871322631836,-7.843404769897461,63.29345703125,-142.0440673828125,-54.8095703125
4.3099999,1.1659762859344482,2.5977089405059814,-9.404424667358398,-33.1573486328125,-162.261962890625,-90.5914306640625
4.329999900000001,1.2856862545013428,3.028665065765381,-11.02051067352295,-56.060791015625,-171.783447265625,-74.9053955078125
4.3499999,1.5490485429763794,3.9887399673461914,-12.629413604736328,30.1513671875,-125.30517578125,-22.705078125
4.369999900000001,1.9273324012756348,4.778826713562012,-13.661314964294434,100.09765625,-54.3060302734375,18.8140869140625
4.3899999,2.298433542251587,4.714183330535889,-13.893552780151367,101.0589599609375,-57.55615234375,25.8026123046875
4.409999900000001,2.580949544906616,3.8355112075805664,-12.744335174560547,69.0765380859375,-80.4443359375,13.48876953125
4.4299999,2.628833532333374,2.6144683361053467,-11.046846389770508,28.656005859375,-103.57666015625,6.622314453125
4.449999900000001,2.470816135406494,1.3072341680526733,-9.742006301879883,12.7716064453125,-124.786376953125,21.6217041015625
4.4699999,2.169146776199341,0.4118026793003082,-9.466673851013184,4.0740966796875,-125.152587890625,22.2930908203125
4.489999900000001,1.8076223134994507,-0.08379705995321274,-10.20887565612793,4.364013671875,-97.6104736328125,10.5133056640625
4.5099999,1.4652514457702637,-0.07900865375995636,-11.60708999633789,16.1590576171875,-75.9735107421875,20.5535888671875
4.529999900000001,1.161187767982483,0.5219359993934631,-12.945448875427246,34.0576171875,-65.4296875,43.0755615234375
4.5499999,0.8882488012313843,1.3670891523361206,-13.924676895141602,40.8477783203125,-58.929443359375,69.580078125
4.569999900000001,0.6129156351089478,2.0853497982025146,-14.54716968536377,26.336669921875,-53.192138671875,87.34130859375
4.5899999000000005,0.33518823981285095,2.4468741416931152,-14.803349494934082,34.1339111328125,-36.0107421875,98.0224609375
4.609999900000001,0.08140286058187485,2.4420857429504395,-14.61660099029541,71.71630859375,-9.7503662109375,112.0147705078125
4.6299999000000005,-0.17238251864910126,2.0590133666992188,-13.898341178894043,85.296630859375,1.708984375,130.6610107421875
4.6499999,-0.38307225704193115,1.0438719987869263,-13.072340965270996,52.42919921875,-14.8162841796875,145.4620361328125
4.6699999000000005,-0.5554547905921936,-0.11971008777618408,-12.169727325439453,34.271240234375,-12.1307373046875,124.08447265625
4.6899999,-0.6871358752250671,-1.290474772453308,-11.437101364135742,69.915771484375,15.899658203125,103.912353515625
4.709999900000001,-0.828393816947937,-2.999934673309326,-10.809821128845215,75.3936767578125,11.7950439453125,107.269287109375
4.7299999,-0.7805097699165344,-3.2297780513763428,-10.773907661437988,63.201904296875,18.707275390625,83.648681640625
4.749999900000001,-0.6440402865409851,-3.224989652633667,-10.860098838806152,85.0372314453125,38.4674072265625,92.3309326171875
4.7699999,-0.4668693244457245,-2.892195701599121,-10.81700325012207,76.690673828125,52.1392822265625,109.3292236328125
4.789999900000001,-0.31842881441116333,-2.8155810832977295,-10.675745010375977,12.969970703125,42.694091796875,124.2828369140625
4.8099999,-0.22505496442317963,-3.0765492916107178,-10.539276123046875,-22.064208984375,38.0706787109375,112.1826171875
4.829999900000001,-0.19632454216480255,-3.627215623855591,-10.565611839294434,-1.373291015625,54.6875,94.2535400390625
4.8499999,-0.22744916379451752,-4.32871675491333,-10.788272857666016,16.4642333984375,71.9451904296875,101.6998291015625
4.869999900000001,-0.31842881441116333,-4.888959884643555,-11.070788383483887,-7.8887939453125,75.2716064453125,111.572265625
4.8899999,-0.4692635238170624,-5.3342814445495605,-11.329362869262695,-38.726806640625,74.432373046875,101.2115478515625
4.909999900000001,-0.6488286852836609,-5.729324817657471,-11.714828491210938,-39.031982421875,76.0650634765625,89.630126953125
4.9299999,-0.8092401623725891,-5.954379558563232,-12.114660263061523,-15.838623046875,93.1549072265625,90.1336669921875
4.949999900000001,-0.9433154463768005,-6.052541732788086,-12.425907135009766,5.706787109375,111.0992431640625,96.923828125
4.9699999,-1.0199298858642578,-6.169857978820801,-12.521675109863281,0.06103515625,114.2425537109375,93.2159423828125
4.989999900000001,-1.0438719987869263,-6.3949127197265625,-12.313379287719727,-23.0865478515625,114.288330078125,79.89501953125
5.0099999,-1.0031704902648926,-6.861782073974609,-12.030863761901855,-31.036376953125,116.363525390625,71.2432861328125
5.029999900000001,-0.8834604024887085,-7.261613845825195,-11.75792407989502,-19.0277099609375,125.091552734375,61.279296875
5.0499999,-0.6967126727104187,-7.41484260559082,-11.587936401367188,0.640869140625,133.11767578125,46.7529296875
5.069999900000001,-0.47884035110473633,-7.479485988616943,-11.384428977966309,8.1634521484375,140.2130126953125,46.7529296875
5.0899999000000005,-0.2106897532939911,-7.429207801818848,-11.075576782226562,3.8299560546875,144.1192626953125,41.7938232421875
5.109999900000001,0.06703764945268631,-7.553706169128418,-10.682928085327148,1.739501953125,140.9454345703125,26.031494140625
5.1299999000000005,0.3519476354122162,-7.987056732177734,-10.098742485046387,10.4217529296875,146.9573974609375,6.77490234375
5.1499999,0.6416460275650024,-8.437167167663574,-9.476250648498535,17.364501953125,149.0631103515625,-17.852783203125
5.1699999000000005,0.9433154463768005,-8.678980827331543,-8.753201484680176,14.5263671875,146.2554931640625,-38.51318359375
5.1899999,1.2641384601593018,-8.762778282165527,-7.996633529663086,12.451171875,145.3857421875,-39.459228515625
5.209999900000001,1.5921441316604614,-8.552088737487793,-7.223306655883789,13.1378173828125,142.486572265625,-48.187255859375
5.2299999,1.9105730056762695,-8.382100105285645,-6.5050458908081055,14.678955078125,136.4898681640625,-67.8253173828125
5.249999900000001,2.183511972427368,-8.248024940490723,-5.961562156677246,12.847900390625,126.4190673828125,-87.005615234375
5.2699999,2.425326347351074,-7.936778545379639,-5.48272180557251,17.2882080078125,125.1983642578125,-104.2022705078125
5.289999900000001,2.6575639247894287,-7.508216381072998,-5.085284233093262,35.5987548828125,123.0010986328125,-107.879638671875
5.3099999,2.892195701599121,-6.845022678375244,-4.661510944366455,48.03466796875,111.480712890625,-109.5123291015625
5.329999900000001,3.1507694721221924,-6.200982570648193,-4.158728122711182,47.7142333984375,101.165771484375,-114.80712890625
5.3499999,3.406949043273926,-5.595249176025391,-3.529053211212158,41.56494140625,95.550537109375,-121.185302734375
5.369999900000001,3.670311212539673,-5.058948040008545,-2.6623523235321045,46.1883544921875,90.33203125,-126.46484375
5.3899999,3.9432501792907715,-4.54419469833374,-1.7357962131500244,59.173583984375,60.699462890625,-126.953125
5.409999900000001,4.2090067863464355,-4.010287761688232,-0.6967126727104187,73.089599609375,33.1878662109375,-123.626708984375
5.4299999,4.431667327880859,-3.6320040225982666,0.13407529890537262,74.371337890625,17.2119140625,-122.4365234375
5.449999900000001,4.587290287017822,-3.2968156337738037,0.8092401623725891,37.200927734375,2.655029296875,-134.94873046875
5.4699999,4.661510944366455,-2.8131868839263916,1.161187767982483,13.885498046875,-19.4091796875,-154.6173095703125
5.489999900000001,4.697423934936523,-2.03507137298584,1.2761094570159912,35.8428955078125,-44.7540283203125,-149.383544921875
5.5099999,4.7189717292785645,-0.9744400978088379,1.1563993692398071,71.014404296875,-57.159423828125,-127.1209716796875
5.529999900000001,4.683058738708496,-0.040701430290937424,0.8020575642585754,86.4105224609375,-71.5789794921875,-108.1695556640625
5.5499999,4.517858505249023,0.5171475410461426,0.3232172429561615,55.0079345703125,-89.080810546875,-116.2261962890625
5.569999900000001,4.228160381317139,1.1851298809051514,-0.1604115068912506,8.636474609375,-105.5755615234375,-145.172119140625
5.5899999000000005,3.8762125968933105,1.9488801956176758,-1.0031704902648926,36.5447998046875,-131.591796875,-126.40380859375
5.609999900000001,3.531447410583496,2.9472622871398926,-1.7884687185287476,106.87255859375,-128.875732421875,-68.8018798828125
5.6299999000000005,3.1292216777801514,3.3063924312591553,-2.7006595134735107,107.72705078125,-125.2899169921875,-42.938232421875
5.6499999,2.715024709701538,3.7421371936798096,-3.4811692237854004,-4.82177734375,-152.587890625,-98.4954833984375
5.6699999000000005,2.3056161403656006,4.213795185089111,-4.455609321594238,-30.059814453125,-182.9986572265625,-124.0692138671875
5.6899999,2.006340980529785,5.147533416748047,-5.643133640289307,73.6083984375,-179.2755126953125,-43.548583984375
5.709999900000001,1.7860745191574097,5.861005783081055,-6.607996463775635,150.6805419921875,-133.758544921875,36.6973876953125
5.7299999,1.6759412288665771,5.889736175537109,-7.663839817047119,55.6182861328125,-158.99658203125,15.1519775390625
5.749999900000001,1.5442601442337036,5.102043628692627,-8.643068313598633,-42.999267578125,-208.67919921875,-40.95458984375
5.7699999,1.3958195447921753,3.976768970489502,-9.509769439697266,12.6800537109375,-181.793212890625,-11.04736328125
5.789999900000001,1.2497732639312744,3.1483752727508545,-10.42195987701416,104.5684814453125,-140.3350830078125,33.14208984375
5.8099999,1.0749965906143188,2.4444799423217773,-11.3269681930542,85.968017578125,-152.008056640625,34.72900390625
5.829999900000001,0.8643068075180054,1.9991583824157715,-12.006921768188477,6.683349609375,-175.4608154296875,0.701904296875
5.8499999,0.6320692300796509,1.6519991159439087,-12.978967666625977,-3.7689208984375,-172.8668212890625,12.725830078125
5.869999900000001,0.4572925269603729,1.9632453918457031,-14.207192420959473,45.501708984375,-134.6435546875,36.9720458984375
5.8899999,0.31124621629714966,2.293645143508911,-15.526397705078125,65.673828125,-95.428466796875,68.3135986328125
5.909999900000001,0.13407529890537262,2.782062292098999,-16.675615310668945,35.5682373046875,-88.8824462890625,70.709228515625
5.9299999,-0.07182604819536209,3.177105665206909,-17.341203689575195,38.787841796875,-69.580078125,75.7904052734375
5.949999900000001,-0.35434186458587646,3.7181951999664307,-17.408241271972656,78.765869140625,-31.6009521484375,106.6436767578125
5.9699999,-0.7086837291717529,4.393360137939453,-16.89348793029785,102.569580078125,-5.645751953125,143.8751220703125
5.989999900000001,-1.0869675874710083,4.4532151222229,-15.978901863098145,81.7718505859375,-1.28173828125,185.36376953125
6.0099999,-1.4748282432556152,3.7708675861358643,-14.755465507507324,48.76708984375,11.8865966796875,194.427490234375
6.029999900000001,-1.8148049116134644,2.341529369354248,-13.433865547180176,45.47119140625,31.6162109375,174.8504638671875
6.0499999,-2.0231003761291504,0.7374141216278076,-12.325350761413574,58.5784912109375,27.4658203125,165.7257080078125
6.069999900000001,-2.1332337856292725,-0.6631938815116882,-11.489773750305176,45.257568359375,19.2108154296875,175.0946044921875
6.0899999000000005,-2.1571757793426514,-1.8363527059555054,-11.125855445861816,16.2811279296875,27.5726318359375,186.187744140625
6.109999900000001,-2.142810583114624,-2.7054479122161865,-11.1474027633667,12.603759765625,45.6390380859375,164.520263671875
6.1299999000000005,-2.0805611610412598,-3.485957622528076,-11.51611042022705,26.2603759765625,50.750732421875,145.1568603515625
6.149999900000001,-1.9847931861877441,-4.02465295791626,-12.069170951843262,14.1754150390625,50.1251220703125,146.209716796875
6.1699999000000005,-1.845929503440857,-4.350264549255371,-12.48815631866455,-10.19287109375,73.394775390625,145.4315185546875
6.1899999,-1.6950948238372803,-4.642356872558594,-12.928689002990723,-12.4359130859375,89.630126953125,135.2996826171875
6.209999900000001,-1.556231141090393,-5.013458251953125,-13.318943977355957,-1.6937255859375,87.70751953125,119.9188232421875
6.2299999,-1.4317326545715332,-5.463568210601807,-13.656526565551758,-3.265380859375,97.9766845703125,110.565185546875
6.249999900000001,-1.161187767982483,-6.665457725524902,-14.391546249389648,14.6484375,145.93505859375,90.1031494140625
6.2699999,-0.9768342971801758,-7.436390399932861,-14.568717002868652,23.4375,155.1971435546875,76.019287109375
6.289999900000001,-0.7422025203704834,-7.979874134063721,-14.334085464477539,11.688232421875,163.2232666015625,54.901123046875
6.3099999,-0.4596867263317108,-8.164227485656738,-13.82172679901123,6.5765380859375,177.3681640625,30.9295654296875
6.329999900000001,-0.17956513166427612,-8.08043098449707,-13.127408027648926,18.4478759765625,185.4400634765625,29.0069580078125
6.3499999,0.11013327538967133,-7.6111674308776855,-12.038045883178711,40.6951904296875,199.1119384765625,24.0936279296875
6.369999900000001,0.3998316824436188,-7.307103633880615,-10.74996566772461,57.098388671875,193.817138671875,20.5841064453125
6.3899999,0.6823474764823914,-7.173028469085693,-9.342175483703613,61.4166259765625,174.86572265625,2.2735595703125
6.409999900000001,0.9481038451194763,-7.438784599304199,-7.9415669441223145,60.2264404296875,171.1578369140625,-15.533447265625
6.4299999,1.1755530834197998,-7.915230751037598,-6.742072105407715,62.6373291015625,169.3878173828125,-31.585693359375
6.449999900000001,1.3766659498214722,-8.432378768920898,-5.710171222686768,74.9969482421875,160.003662109375,-54.8553466796875
6.4699999,1.577778935432434,-8.741230010986328,-4.752490520477295,87.58544921875,146.2554931640625,-79.3609619140625
6.489999900000001,1.845929503440857,-8.803479194641113,-3.8331170082092285,83.4808349609375,131.6680908203125,-93.0938720703125
6.5099999,2.1811177730560303,-8.303091049194336,-2.96162748336792,48.431396484375,112.12158203125,-106.231689453125
6.529999900000001,2.5737667083740234,-7.690176010131836,-2.2601263523101807,31.92138671875,91.1407470703125,-103.607177734375
6.5499999,2.937685489654541,-7.017405033111572,-1.6687586307525635,37.5213623046875,78.9031982421875,-104.461669921875
6.569999900000001,3.2369606494903564,-6.368576526641846,-1.2066776752471924,53.28369140625,67.81005859375,-125.885009765625
6.5899999000000005,3.445256233215332,-5.829881191253662,-0.912190854549408,67.68798828125,44.097900390625,-136.5814208984375
6.609999900000001,3.60566782951355,-5.193023681640625,-0.5003881454467773,78.3843994140625,32.0587158203125,-133.4381103515625
6.6299999000000005,3.706224203109741,-4.594472885131836,-0.10295066982507706,96.00830078125,16.754150390625,-126.129150390625
6.649999900000001,3.7205893993377686,-4.3406877517700195,0.40462008118629456,97.59521484375,-5.7830810546875,-128.4637451171875
6.6699999000000005,3.6343982219696045,-4.0294413566589355,1.0319008827209473,59.661865234375,-25.665283203125,-161.9110107421875
6.6899999,3.5051112174987793,-3.6607344150543213,1.41257905960083,20.233154296875,-57.1136474609375,-180.450439453125
6.709999900000001,3.3901896476745605,-2.8371291160583496,1.6376339197158813,20.0042724609375,-73.7762451171875,-163.2080078125
6.7299999,3.3255462646484375,-1.8746598958969116,1.4939818382263184,51.2847900390625,-83.5723876953125,-140.2587890625
6.749999900000001,3.2130186557769775,-1.0797849893569946,1.0654197931289673,60.638427734375,-102.783203125,-141.815185546875
6.7699999,2.999934673309326,-0.5027823448181152,0.31842881441116333,21.8963623046875,-125.4730224609375,-166.9921875
6.789999900000001,2.7317841053009033,0.48602294921875,-0.7733271718025208,18.768310546875,-140.106201171875,-185.7452392578125
6.8099999,2.4803929328918457,1.6160861253738403,-2.161964178085327,82.5347900390625,-139.9993896484375,-136.7950439453125
6.829999900000001,2.233790159225464,2.5522189140319824,-3.450044631958008,131.866455078125,-129.45556640625,-83.587646484375
6.8499999,1.920149803161621,3.2106244564056396,-4.51067590713501,69.27490234375,-147.3541259765625,-110.0616455078125
6.869999900000001,1.556231141090393,3.8163576126098633,-5.47075080871582,-60.60791015625,-184.3109130859375,-165.7867431640625
6.8899999,1.1851298809051514,4.93923807144165,-6.98628044128418,-53.2073974609375,-208.55712890625,-142.303466796875
6.909999900000001,1.0678139925003052,6.610390663146973,-8.853757858276367,66.650390625,-160.94970703125,-55.3741455078125
6.9299999,1.2282254695892334,7.994239330291748,-10.611102104187012,143.24951171875,-92.9718017578125,6.77490234375
6.949999900000001,1.6136919260025024,8.5903959274292,-11.820174217224121,73.79150390625,-111.2823486328125,-5.2032470703125
6.9699999,2.032677173614502,8.200140953063965,-12.279860496520996,-20.1416015625,-146.2860107421875,-14.3890380859375
6.989999900000001,2.341529369354248,7.532158374786377,-12.193669319152832,-8.1939697265625,-123.5809326171875,12.75634765625
7.0099999,2.4827871322631836,6.6391215324401855,-12.320562362670898,40.8935546875,-99.639892578125,42.8924560546875
7.029999900000001,2.4827871322631836,5.837063789367676,-12.526463508605957,43.3197021484375,-93.719482421875,40.0848388671875
7.0499999,2.3750481605529785,5.1331682205200195,-12.677297592163086,17.2576904296875,-87.1124267578125,27.8472900390625
7.069999900000001,2.2361843585968018,4.750096321105957,-12.756306648254395,9.0484619140625,-79.437255859375,48.4619140625
7.0899999000000005,2.1380221843719482,4.5154643058776855,-12.911930084228516,8.8348388671875,-78.1707763671875,82.244873046875
7.109999900000001,2.073378562927246,4.2544965744018555,-13.232752799987793,3.265380859375,-73.1201171875,94.2535400390625
7.1299999000000005,2.0470423698425293,3.7205893993377686,-13.654131889343262,16.6168212890625,-47.6531982421875,85.6170654296875
7.149999900000001,2.027888774871826,3.066972494125366,-13.836091995239258,39.306640625,-18.4173583984375,87.7227783203125
7.1699999000000005,1.965639591217041,2.22660756111145,-13.874399185180664,32.5927734375,-21.881103515625,111.5264892578125
7.1899999,1.8267759084701538,1.335964560508728,-13.481749534606934,18.7225341796875,-26.1077880859375,118.682861328125
7.209999900000001,1.6328455209732056,0.5817909836769104,-12.868834495544434,21.2249755859375,-12.1307373046875,96.3897705078125
7.2299999,1.4437036514282227,-0.16998831927776337,-12.133813858032227,42.1142578125,-5.9356689453125,95.21484375
7.249999900000001,1.3000515699386597,-0.9648633003234863,-11.645397186279297,28.350830078125,-16.6778564453125,117.1722412109375
7.2699999,1.2737152576446533,-1.9536685943603516,-11.36048698425293,2.3956298828125,-13.8702392578125,112.4267578125
7.289999900000001,1.3527239561080933,-3.0334534645080566,-11.176133155822754,15.777587890625,18.3258056640625,70.098876953125
7.3099999,1.5203180313110352,-4.158728122711182,-11.159374237060547,16.2200927734375,22.6898193359375,49.224853515625
7.329999900000001,1.7310078144073486,-4.917690277099609,-11.05642318725586,-4.2724609375,7.3089599609375,52.2308349609375
7.3499999,1.9393033981323242,-5.2696380615234375,-10.869675636291504,-10.345458984375,14.95361328125,41.5802001953125
7.369999900000001,2.1092917919158936,-5.2480902671813965,-10.759542465209961,-7.1563720703125,26.0162353515625,13.7176513671875
7.3899999,2.209848165512085,-5.023035049438477,-10.711658477783203,-8.4991455078125,25.2838134765625,5.4779052734375
7.409999900000001,2.252943754196167,-4.4508209228515625,-10.551246643066406,-21.1029052734375,23.4222412109375,9.033203125
7.4299999,2.2649147510528564,-3.643975019454956,-10.381258964538574,-19.9127197265625,23.101806640625,6.256103515625
7.449999900000001,2.229001760482788,-2.896984100341797,-10.132261276245117,-4.0130615234375,26.1688232421875,6.683349609375
7.4699999,2.183511972427368,-2.3774423599243164,-9.823410034179688,6.3934326171875,29.632568359375,5.828857421875
7.489999900000001,2.126051187515259,-2.0446481704711914,-9.624691009521484,-3.6163330078125,17.8680419921875,-1.3885498046875
7.5099999,2.0805611610412598,-1.742978811264038,-9.296685218811035,-4.608154296875,21.2554931640625,-8.880615234375
7.529999900000001,2.0661959648132324,-1.4628572463989258,-9.05487060546875,10.4522705078125,21.2860107421875,0.5340576171875
7.5499999,2.073378562927246,-1.1420341730117798,-8.83939266204834,15.4571533203125,11.1846923828125,10.894775390625
7.569999900000001,2.0853497982025146,-1.0127472877502441,-8.611943244934082,4.7454833984375,7.8887939453125,11.474609375
7.5899999000000005,2.099714994430542,-1.1324573755264282,-8.516175270080566,-9.8876953125,6.5765380859375,1.4495849609375
7.609999900000001,2.1140801906585693,-1.3048399686813354,-8.463502883911133,-13.763427734375,6.3934326171875,-11.5966796875
7.6299999000000005,2.1380221843719482,-1.3263877630233765,-8.470685958862305,-2.86865234375,3.0975341796875,-9.94873046875
7.649999900000001,2.169146776199341,-1.1085153818130493,-8.44195556640625,4.8675537109375,-0.9918212890625,2.1209716796875
7.6699999000000005,2.205059766769409,-0.8379706144332886,-8.542511940002441,-3.814697265625,-7.1563720703125,7.598876953125
7.6899999,2.2385785579681396,-0.730231523513794,-8.702922821044922,-11.2457275390625,-5.767822265625,2.716064453125
7.709999900000001,2.274491548538208,-0.7469909191131592,-8.96149730682373,-8.1787109375,-1.708984375,-7.9345703125
7.7299999,2.315192937850952,-0.8403648138046265,-9.246406555175781,0.2288818359375,-3.814697265625,-7.38525390625
7.749999900000001,2.360682964324951,-0.8786720037460327,-9.35893440246582,5.18798828125,-2.7618408203125,-0.091552734375
7.7699999,2.4157495498657227,-0.8355764150619507,-9.3828763961792,-3.2958984375,-7.6904296875,-3.72314453125
7.789999900000001,2.4181437492370605,-0.8331822156906128,-9.35893440246582,-4.547119140625,-7.568359375,-5.9967041015625
7.8099999,2.408566951751709,-0.7350199222564697,-9.32541561126709,1.617431640625,-8.148193359375,-6.04248046875
7.829999900000001,2.3965959548950195,-0.6488286852836609,-9.306262016296387,8.819580078125,-9.4146728515625,2.8533935546875
7.8499999,2.3726539611816406,-0.608127236366272,-9.327810287475586,4.8980712890625,-12.7105712890625,7.4005126953125
7.869999900000001,2.346317768096924,-0.7613561153411865,-9.488221168518066,-5.767822265625,-13.885498046875,1.190185546875
7.8899999,2.3319525718688965,-0.9816226959228516,-9.746794700622559,-8.819580078125,-8.056640625,-9.4757080078125
7.909999900000001,2.3271639347076416,-1.1109095811843872,-10.093954086303711,-4.486083984375,-1.5106201171875,-10.589599609375
7.9299999,2.341529369354248,-1.1204863786697388,-10.448296546936035,1.8768310546875,-0.8087158203125,-0.9307861328125
7.949999900000001,2.3558945655822754,-0.9864110946655273,-10.836156845092773,0.701904296875,0.06103515625,1.03759765625
7.9699999,2.3798365592956543,-0.9959878921508789,-11.408370971679688,-5.1727294921875,4.2724609375,-3.326416015625
7.989999900000001,2.403778553009033,-1.01753568649292,-12.373234748840332,-11.077880859375,16.8304443359375,-10.711669921875
8.0099999,2.451662540435791,-1.0127472877502441,-13.958195686340332,-3.0517578125,37.200927734375,-11.444091796875
8.0299999,2.499546527862549,-0.9720458984375,-15.931017875671387,25.1312255859375,85.693359375,-1.0986328125
8.049999900000001,2.5043349266052246,-0.8571242094039917,-17.956512451171875,48.33984375,146.9268798828125,1.0833740234375
8.069999900000001,2.449268341064453,-0.8092401623725891,-19.517532348632812,34.9273681640625,197.9217529296875,-11.16943359375
8.0899999,2.343923568725586,-0.6560112833976746,-19.881450653076172,22.0489501953125,246.64306640625,-15.106201171875
8.1099999,2.2194249629974365,-0.42616790533065796,-19.038692474365234,52.032470703125,272.186279296875,-3.875732421875
8.129999900000001,2.126051187515259,-0.3064578175544739,-16.927005767822266,83.6181640625,282.806396484375,13.4124755859375
8.149999900000001,2.140416383743286,-0.26815059781074524,-13.61103630065918,84.16748046875,288.9862060546875,6.2408447265625
8.1699999,2.3032219409942627,-0.6727706789970398,-9.86889934539795,64.3463134765625,255.2642822265625,-2.227783203125
8.1899999,2.580949544906616,-1.0630255937576294,-6.023811340332031,40.7562255859375,210.174560546875,-14.09912109375
8.2099999,2.911349296569824,-1.403002142906189,-2.52109432220459,40.2069091796875,192.9779052734375,-10.19287109375
8.229999900000001,3.203441858291626,-1.6089035272598267,0.5267243981361389,54.8248291015625,174.37744140625,-0.8544921875
8.2499999,3.380612850189209,-1.843535304069519,3.07415509223938,39.1082763671875,117.218017578125,-3.8909912109375
8.2699999,3.4332852363586426,-1.7980455160140991,5.161899089813232,1.9378662109375,48.9044189453125,-35.5377197265625
8.2899999,3.380612850189209,-1.5849615335464478,6.897695064544678,-8.2244873046875,6.6680908203125,-39.215087890625
8.309999900000001,3.2154128551483154,-0.9576807022094727,8.157045364379883,5.035400390625,-41.6412353515625,-19.4244384765625
8.3299999,2.894589900970459,0.028730420395731926,9.318233489990234,9.9334716796875,-108.0780029296875,-9.58251953125
8.3499999,2.3295583724975586,0.8523358106613159,10.424354553222656,-1.15966796875,-193.4967041015625,5.3863525390625
8.3699999,1.3766659498214722,1.4101848602294922,11.532869338989258,-16.4794921875,-299.8504638671875,18.463134765625
8.389999900000001,0.05506663769483566,1.3479355573654175,11.396400451660156,-24.7650146484375,-424.1485595703125,26.947021484375
8.4099999,-1.6065093278884888,0.8834604024887085,9.478644371032715,-50.9033203125,-500,20.2789306640625
8.4299999,-3.2848446369171143,0.1364694982767105,5.049371242523193,-113.2354736328125,-500,2.3193359375
8.4499999,-4.759673118591309,-0.2059013396501541,-2.140416383743286,-189.849853515625,-496.673583984375,-21.7742919921875
8.469999900000001,-5.717353820800781,-1.1037269830703735,-11.851298332214355,-121.52099609375,-443.511962890625,12.5274658203125
8.4899999,-5.987898349761963,-1.2952631711959839,-21.57175636291504,38.3758544921875,-255.06591796875,-13.092041015625
8.5099999,-5.56173038482666,-1.4891934394836426,-28.74717903137207,128.2501220703125,-22.796630859375,-45.7305908203125
8.5299999,-4.707000732421875,-1.5610195398330688,-33.063926696777344,10.528564453125,-43.5943603515625,-12.359619140625
8.549999900000001,-3.557783842086792,-0.9624691009521484,-33.71036148071289,-86.42578125,-55.8624267578125,-6.683349609375
8.569999900000001,-2.6408045291900635,-0.4165911078453064,-32.02723693847656,-26.458740234375,77.8350830078125,-3.5247802734375
8.5899999,-1.9776105880737305,0.06224924325942993,-29.46304702758789,43.548583984375,176.727294921875,7.293701171875
8.6099999,-1.6543933153152466,0.5027823448181152,-26.79111671447754,17.9595947265625,150.360107421875,8.941650390625
8.629999900000001,-1.5897499322891235,0.828393816947937,-23.75766372680664,-16.9830322265625,174.13330078125,16.510009765625
8.649999900000001,-1.7286136150360107,1.0247182846069336,-21.727380752563477,-21.6522216796875,232.879638671875,34.7900390625
8.6699999,-2.0159177780151367,1.0031704902648926,-19.855113983154297,-7.8277587890625,298.6907958984375,45.47119140625
8.6899999,-2.3271639347076416,0.5267243981361389,-17.85835075378418,40.802001953125,327.7130126953125,52.1392822265625
8.709999900000001,-2.4468741416931152,-0.21787235140800476,-14.70758056640625,80.7952880859375,318.084716796875,32.7911376953125
8.729999900000001,-2.2385785579681396,-1.1994950771331787,-10.94150161743164,63.0950927734375,269.287109375,19.7601318359375
8.7499999,-1.6376339197158813,-2.161964178085327,-6.885724067687988,38.39111328125,235.565185546875,6.7901611328125
8.7699999,-0.8212111592292786,-2.9688100814819336,-3.0334534645080566,54.595947265625,240.1123046875,-1.4495849609375
8.7899999,0.05506663769483566,-3.378218650817871,0.8403648138046265,54.3212890625,238.494873046875,-21.9268798828125
8.809999900000001,0.8140285611152649,-3.509899616241455,4.809951305389404,29.815673828125,178.9703369140625,-36.102294921875
8.8299999,1.4173674583435059,-3.1220390796661377,8.815450668334961,18.463134765625,84.3353271484375,-44.9981689453125
8.8499999,1.845929503440857,-1.7860745191574097,12.131420135498047,32.40966796875,-5.584716796875,-63.0645751953125
8.8699999,2.011129379272461,-0.07182604819536209,14.255077362060547,46.2799072265625,-67.3370361328125,-29.1290283203125
8.889999900000001,1.8770540952682495,1.6855180263519287,14.949395179748535,26.5045166015625,-119.720458984375,20.294189453125
8.9099999,1.4317326545715332,3.24414324760437,14.329297065734863,4.1046142578125,-190.338134765625,19.8211669921875
8.9299999,0.7134721279144287,3.754108190536499,12.876016616821289,27.40478515625,-254.4403076171875,39.0472412109375
8.9499999,-0.22505496442317963,3.5960910320281982,10.663774490356445,26.092529296875,-312.744140625,60.638427734375
8.969999900000001,-1.4197616577148438,2.8610711097717285,7.733271598815918,-34.881591796875,-373.3367919921875,66.6046142578125
8.9899999,-2.8610711097717285,1.9776105880737305,3.845088005065918,-86.6241455078125,-424.5147705078125,63.629150390625
9.0099999,-4.51067590713501,0.8858546018600464,-1.6208745241165161,-95.1690673828125,-462.4176025390625,78.399658203125
9.0299999,-6.308721542358398,-1.742978811264038,-8.9064302444458,-114.44091796875,-443.4967041015625,124.7100830078125
9.049999900000001,-7.745242595672607,-4.594472885131836,-18.16241455078125,-106.75048828125,-373.3978271484375,42.0989990234375
9.069999900000001,-8.501810073852539,-6.586448669433594,-27.789499282836914,7.6446533203125,-231.8572998046875,-135.4827880859375
9.0899999,-8.427590370178223,-7.29034423828125,-35.6257209777832,37.933349609375,-39.1693115234375,-87.8753662109375
9.1099999,-7.654263019561768,-5.540182590484619,-40.62242126464844,-40.0543212890625,47.4395751953125,2.5634765625
9.129999900000001,-6.564900875091553,-2.408566951751709,-41.6375617980957,-70.0531005859375,103.5308837890625,-6.195068359375
9.149999900000001,-5.590460777282715,0.13407529890537262,-39.27448654174805,-2.777099609375,201.1260986328125,1.6326904296875
9.1699999,-4.920084476470947,1.702277421951294,-35.13730239868164,50.537109375,238.3880615234375,26.1688232421875
9.1899999,-4.55616569519043,2.252943754196167,-29.975404739379883,24.7802734375,257.9803466796875,23.25439453125
9.209999900000001,-4.51067590713501,1.6424223184585571,-25.309106826782227,-14.495849609375,284.210205078125,20.9808349609375
9.229999900000001,-4.747702121734619,0.8092401623725891,-21.51429557800293,-23.2086181640625,340.39306640625,12.87841796875
9.2499999,-5.284003257751465,-0.2059013396501541,-17.80328369140625,18.7835693359375,420.6695556640625,25.0244140625
9.2699999,-5.614402770996094,-1.1851298809051514,-13.728352546691895,99.5635986328125,433.3648681640625,33.3404541015625
9.2899999,-5.341464042663574,-2.4684219360351562,-5.015852451324463,65.216064453125,301.1932373046875,-23.2696533203125
9.309999900000001,-4.532223701477051,-2.669534921646118,-0.8858546018600464,54.901123046875,333.251953125,-24.2767333984375
9.3299999,-3.5051112174987793,-2.7030537128448486,3.2537200450897217,27.1759033203125,299.25537109375,-19.3634033203125
9.3499999,-2.3295583724975586,-2.5474305152893066,7.5201873779296875,13.702392578125,205.7647705078125,-34.271240234375
9.3699999,-1.1635819673538208,-2.1715409755706787,11.841721534729004,3.8604736328125,114.166259765625,-59.6160888671875
9.389999900000001,-0.090979665517807,-1.3982137441635132,15.883133888244629,-14.58740234375,71.197509765625,-59.722900390625
9.4099999,0.6129156351089478,-0.1843535304069519,18.6484375,-9.09423828125,-36.590576171875,-36.7279052734375
9.4299999,0.849941611289978,1.1324573755264282,19.977218627929688,-3.5858154296875,-151.0162353515625,-9.185791015625
9.4499999,0.6105214357376099,2.4875755310058594,19.5582332611084,4.1961669921875,-202.81982421875,-5.279541015625
9.469999900000001,-0.05027823522686958,3.181894063949585,17.32683753967285,13.7786865234375,-252.5787353515625,16.90673828125
9.4899999,-0.9624691009521484,3.378218650817871,14.015656471252441,32.8216552734375,-304.87060546875,37.353515625
9.5099999,-2.1092917919158936,3.0789434909820557,10.280701637268066,51.0101318359375,-350.4638671875,39.7186279296875
9.5299999,-3.579331636428833,2.4612393379211426,6.763619899749756,-15.625,-395.355224609375,45.928955078125
9.549999900000001,-5.489904403686523,1.577778935432434,2.7964274883270264,-158.5235595703125,-482.3150634765625,44.036865234375
9.569999900000001,-7.529764175415039,0.21308395266532898,-3.955221176147461,-146.728515625,-500,42.3431396484375
9.5899999,-9.174580574035645,-1.5658079385757446,-12.823344230651855,-3.9825439453125,-500,17.9595947265625
9.6099999,-9.885659217834473,-2.8155810832977295,-21.825542449951172,5.096435546875,-184.5245361328125,-24.810791015625
9.629999900000001,-9.564835548400879,-3.7014358043670654,-31.270668029785156,-130.523681640625,-221.5576171875,-27.313232421875
9.649999900000001,-8.422801971435547,-2.5905263423919678,-37.65839767456055,-137.51220703125,-240.631103515625,-35.552978515625
9.6699999,-7.026981830596924,-0.9983820915222168,-40.742130279541016,8.148193359375,8.3465576171875,-6.317138671875
9.6899999,-5.626373767852783,1.0845733880996704,-41.343074798583984,48.76708984375,156.2652587890625,12.6800537109375
9.709999900000001,-4.383783340454102,2.4205379486083984,-38.88662338256836,-12.847900390625,132.293701171875,22.430419921875
9.729999900000001,-3.4308910369873047,2.7724854946136475,-33.9473876953125,-11.016845703125,168.2891845703125,38.6810302734375
9.7499999,-2.9305028915405273,2.4133553504943848,-28.941110610961914,10.4217529296875,198.272705078125,27.40478515625
9.7699999,-2.9735984802246094,1.4628572463989258,-24.85420799255371,34.637451171875,242.034912109375,17.5323486328125
9.7899999,-3.464409828186035,0.730231523513794,-21.966800689697266,37.78076171875,310.72998046875,13.4429931640625
9.809999900000001,-4.163516521453857,-0.043095629662275314,-19.527109146118164,30.1513671875,371.4447021484375,28.0609130859375
9.8299999,-4.742913722991943,-0.5578489899635315,-16.922218322753906,29.754638671875,373.59619140625,31.3720703125
9.8499999,-4.922478675842285,-1.2641384601593018,-13.883975982666016,56.8084716796875,343.93310546875,12.87841796875
9.8699999,-4.707000732421875,-1.778891921043396,-10.711658477783203,87.7685546875,330.38330078125,-6.34765625
9.889999900000001,-4.180276393890381,-2.2242133617401123,-7.184999465942383,93.1549072265625,374.5880126953125,-10.833740234375
9.9099999,-3.4763808250427246,-2.492363929748535,-3.201047658920288,82.4127197265625,376.2054443359375,-3.509521484375
9.9299999,-2.674323320388794,-2.674323320388794,0.9672574996948242,65.4449462890625,268.768310546875,-20.477294921875
9.9499999,-1.766920804977417,-2.454056739807129,5.224148273468018,35.0189208984375,177.2308349609375,-57.342529296875
9.969999900000001,-0.7948749661445618,-2.185906171798706,9.08838939666748,18.8446044921875,170.22705078125,-46.539306640625
9.9899999,0.1149216815829277,-1.4772224426269531,12.126631736755371,-15.838623046875,128.23486328125,-39.12353515625
10.0099999,0.7852981686592102,-0.40701428055763245,14.228740692138672,-25.2838134765625,19.561767578125,-51.727294921875
10.0299999,1.1803414821624756,0.7996633648872375,15.365986824035645,0.396728515625,-56.6864013671875,-43.914794921875
10.049999900000001,1.3215993642807007,2.1787235736846924,15.440206527709961,26.947021484375,-87.4481201171875,-12.14599609375
10.069999900000001,1.1971008777618408,3.5170822143554688,14.480132102966309,21.820068359375,-142.15087890625,12.4969482421875
10.0899999,0.8140285611152649,4.4292731285095215,13.15613842010498,5.0201416015625,-204.0557861328125,30.6396484375
10.1099999,0.17956513166427612,4.857835292816162,11.559206008911133,12.0697021484375,-263.1072998046875,44.7235107421875
10.129999900000001,-0.7182605266571045,4.867412090301514,9.557653427124023,12.2222900390625,-322.021484375,61.004638671875
10.149999900000001,-1.7980455160140991,4.496310710906982,7.259219646453857,-27.923583984375,-361.2518310546875,87.7532958984375
10.1699999,-3.0526070594787598,4.077325344085693,4.261679172515869,-88.9434814453125,-408.0047607421875,99.4720458984375
10.1899999,-4.2951979637146,3.581725835800171,-0.33279404044151306,-82.7178955078125,-483.4747314453125,113.0828857421875
10.209999900000001,-5.578489780426025,2.0374655723571777,-6.404489517211914,-17.822265625,-458.92333984375,162.689208984375
10.229999900000001,-6.485892295837402,-1.0127472877502441,-13.318943977355957,-82.8704833984375,-338.8214111328125,176.6204833984375
10.2499999,-6.94079065322876,-3.8594532012939453,-21.171926498413086,-161.62109375,-320.526123046875,13.0615234375
10.2699999,-6.787561893463135,-7.314286231994629,-28.965051651000977,-46.295166015625,-298.736572265625,-43.5943603515625
10.2899999,-6.129156112670898,-8.465897560119629,-34.94097900390625,79.40673828125,-107.0404052734375,-43.182373046875
10.309999900000001,-5.216965675354004,-7.82185697555542,-38.93450927734375,4.150390625,55.6640625,-43.426513671875
10.3299999,-4.400542736053467,-5.760449409484863,-40.5912971496582,-88.226318359375,45.6695556640625,-30.487060546875
10.3499999,-3.8594532012939453,-2.9065608978271484,-39.02548599243164,-47.3175048828125,138.9923095703125,-19.8822021484375
10.3699999,-3.6966474056243896,-0.28730419278144836,-36.044708251953125,30.45654296875,239.2425537109375,2.166748046875
10.389999900000001,-3.799597978591919,1.5107412338256836,-31.926679611206055,55.755615234375,282.2265625,13.397216796875
10.4099999,-4.07014274597168,2.2864625453948975,-27.0999698638916,47.9888916015625,300.201416015625,6.8206787109375
10.4299999,-4.302380561828613,1.9512743949890137,-22.24452781677246,45.989990234375,315.36865234375,7.720947265625
10.4499999,-4.414907932281494,1.2066776752471924,-17.86792755126953,44.708251953125,329.2236328125,3.173828125
10.469999900000001,-4.400542736053467,-0.009576806798577309,-14.142549514770508,55.35888671875,350.2197265625,7.415771484375
10.4899999,-4.23773717880249,-1.0678139925003052,-10.711658477783203,80.474853515625,367.8436279296875,-7.38525390625
10.5099999,-3.88818359375,-2.0901381969451904,-7.359776020050049,109.9395751953125,355.28564453125,-25.45166015625
10.5299999,-3.3423056602478027,-2.5450363159179688,-3.9384617805480957,95.7794189453125,306.82373046875,-42.236328125
10.549999900000001,-2.5977089405059814,-2.6384103298187256,-0.43095630407333374,74.8138427734375,276.18408203125,-43.51806640625
10.569999900000001,-1.7046716213226318,-2.4827871322631836,2.96162748336792,72.8607177734375,251.15966796875,-41.2445068359375
10.5899999,-0.7469909191131592,-1.8914192914962769,6.081272125244141,74.9053955078125,197.1893310546875,-71.6705322265625
10.6099999,0.19871874153614044,-1.0989385843276978,9.074024200439453,50.628662109375,141.5863037109375,-81.4971923828125
10.629999900000001,1.072602391242981,0.181959331035614,12.05959415435791,3.1280517578125,106.1859130859375,-64.5751953125
10.649999900000001,1.7764976024627686,1.678335428237915,14.611812591552734,-29.571533203125,11.5203857421875,-41.229248046875
10.6699999,2.2409727573394775,3.184288263320923,16.1656494140625,-40.252685546875,-101.0894775390625,-23.25439453125
10.6899999,2.3918075561523438,4.316745758056641,16.572664260864258,-20.20263671875,-144.1192626953125,-5.157470703125
10.709999900000001,2.190694570541382,4.699818134307861,15.547945976257324,4.1961669921875,-173.0194091796875,28.8848876953125
10.729999900000001,1.659181833267212,4.5609540939331055,13.615824699401855,-5.0811767578125,-229.91943359375,35.7513427734375
10.7499999,0.8020575642585754,3.8786067962646484,11.274295806884766,-27.099609375,-290.7867431640625,29.8614501953125
10.7699999,-0.29209262132644653,2.779668092727661,8.793902397155762,-26.7486572265625,-334.5184326171875,41.748046875
10.7899999,-1.644816517829895,1.3838485479354858,6.045359134674072,-39.825439453125,-377.8076171875,53.3294677734375
10.809999900000001,-4.69024133682251,-0.7805097699165344,-0.8020575642585754,-62.19482421875,-464.5233154296875,17.7001953125
10.8299999,-6.169857978820801,-2.207453966140747,-5.626373767852783,-48.0499267578125,-474.0447998046875,60.24169921875
10.8499999,-7.603984832763672,-3.9456443786621094,-11.434707641601562,-109.7869873046875,-430.694580078125,54.8553466796875
10.8699999,-8.746018409729004,-5.858611583709717,-19.515138626098633,-183.89892578125,-435.05859375,-59.906005859375
10.889999900000001,-9.368511199951172,-7.144298076629639,-28.775909423828125,-83.038330078125,-353.363037109375,-160.4156494140625
10.9099999,-9.241618156433105,-6.282385349273682,-35.67599868774414,101.4404296875,-4.486083984375,-164.459228515625
10.9299999,-8.130708694458008,-3.2992098331451416,-38.55622482299805,89.7674560546875,149.4140625,-98.0987548828125
10.9499999,-6.423643112182617,0.912190854549408,-37.15082931518555,-113.5406494140625,-30.76171875,-43.2586669921875
10.969999900000001,-4.594472885131836,4.788403511047363,-32.37918472290039,-168.4722900390625,-46.295166015625,5.18798828125
10.9899999,-3.181894063949585,6.979097843170166,-27.837383270263672,-60.8367919921875,91.61376953125,37.3992919921875
11.0099999,-2.4013843536376953,7.443572998046875,-24.806324005126953,3.570556640625,159.60693359375,38.7115478515625
11.0299999,-2.2864625453948975,6.466738700866699,-22.819135665893555,-12.9547119140625,162.0025634765625,32.623291015625
11.049999900000001,-2.6791117191314697,5.07570743560791,-21.377826690673828,-37.3382568359375,181.427001953125,39.1998291015625
11.069999900000001,-3.4117374420166016,3.773261785507202,-20.66435432434082,-14.58740234375,226.86767578125,56.5185546875
11.0899999,-4.285621166229248,2.782062292098999,-20.087352752685547,33.99658203125,288.63525390625,65.7806396484375
11.1099999,-5.051765441894531,1.941697597503662,-19.182344436645508,59.6160888671875,335.0677490234375,61.5234375
11.129999900000001,-5.540182590484619,1.1228805780410767,-17.4537296295166,39.459228515625,348.846435546875,51.6204833984375
11.149999900000001,-5.6191911697387695,0.31364041566848755,-14.49210262298584,36.1480712890625,369.20166015625,49.6826171875
11.1699999,-5.243301868438721,-0.38546648621559143,-10.431536674499512,67.169189453125,380.4779052734375,46.44775390625
11.1899999,-4.400542736053467,-1.170764684677124,-5.932831764221191,89.9505615234375,328.125,36.1175537109375
11.209999900000001,-3.2609026432037354,-1.580173134803772,-1.5490485429763794,85.9375,261.4898681640625,6.9427490234375
11.229999900000001,-1.8962076902389526,-1.8387469053268433,2.561795711517334,90.789794921875,264.58740234375,-4.913330078125
11.2499999,-0.47405192255973816,-1.702277421951294,6.19379997253418,74.6307373046875,253.9520263671875,-1.64794921875
11.2699999,0.8475474119186401,-1.4676456451416016,9.670180320739746,53.7567138671875,177.8106689453125,3.387451171875
11.2899999,1.9704279899597168,-1.0893617868423462,12.859257698059082,48.52294921875,74.3560791015625,-12.8021240234375
11.309999900000001,2.7916390895843506,-0.6392518281936646,15.219940185546875,23.3306884765625,-2.3956298828125,-25.421142578125
11.3299999,3.2297780513763428,-0.035913024097681046,16.297330856323242,-6.9580078125,-56.243896484375,-13.3209228515625
11.3499999,3.265691041946411,0.689530074596405,15.820884704589844,-19.439697265625,-116.119384765625,4.6539306640625
11.3699999,2.956839084625244,1.2689268589019775,14.34366226196289,-17.9595947265625,-159.3170166015625,15.0299072265625
11.389999900000001,2.38462495803833,1.3646949529647827,11.985373497009277,-9.2315673828125,-202.81982421875,18.7530517578125
11.4099999,1.6543933153152466,1.1994950771331787,9.442731857299805,-0.762939453125,-240.1123046875,10.25390625
11.4299999,0.7637503147125244,0.7374141216278076,7.0126166343688965,3.875732421875,-270.4925537109375,12.7716064453125
11.4499999,-0.33758243918418884,0.395043283700943,4.965574264526367,-25.4669189453125,-314.3463134765625,19.9432373046875
11.469999900000001,-1.6639702320098877,0.009576806798577309,2.940079689025879,-72.93701171875,-378.4637451171875,24.0325927734375
11.4899999,-3.224989652633667,-0.5889736413955688,0.1364694982767105,-87.3260498046875,-442.169189453125,19.1497802734375
11.5099999,-4.857835292816162,-1.0989385843276978,-3.7038300037384033,-104.0802001953125,-435.8062744140625,-9.94873046875
11.5299999,-6.294356346130371,-1.1492167711257935,-8.990227699279785,-146.9879150390625,-407.684326171875,-34.3780517578125
11.549999900000001,-7.249642848968506,-0.912190854549408,-15.866374969482422,-91.0186767578125,-394.95849609375,-20.32470703125
11.569999900000001,-7.496245384216309,-0.2944868206977844,-22.72336769104004,21.3775634765625,-277.5115966796875,-12.8936767578125
11.5899999,-7.1490864753723145,-0.15322890877723694,-28.502971649169922,17.4102783203125,-137.664794921875,-23.6663818359375
11.6099999,-6.36378812789917,0.49799394607543945,-33.3895378112793,-117.7520751953125,-144.5770263671875,-63.0950927734375
11.629999900000001,-5.475539207458496,1.6065093278884888,-35.951332092285156,-98.6480712890625,-69.6868896484375,-59.0972900390625
11.649999900000001,-4.656722068786621,3.220201253890991,-36.071041107177734,35.70556640625,109.130859375,19.2108154296875
11.6699999,-3.97916316986084,4.819528102874756,-34.701560974121094,49.346923828125,146.9879150390625,53.0548095703125
11.6899999,-3.531447410583496,5.535394191741943,-31.65134620666504,-5.4931640625,134.4451904296875,37.17041015625
11.709999900000001,-3.3877954483032227,5.16429328918457,-28.275522232055664,-23.8189697265625,187.3931884765625,41.6259765625
11.729999900000001,-3.620033025741577,4.402936935424805,-25.222915649414062,2.166748046875,261.3983154296875,56.304931640625
11.7499999,-4.110844135284424,3.4548330307006836,-22.804771423339844,50.750732421875,303.7261962890625,68.8018798828125
11.7699999,-4.663905143737793,2.609679937362671,-20.554222106933594,53.9398193359375,317.07763671875,60.1654052734375
11.7899999,-5.128379821777344,1.7118542194366455,-18.499996185302734,29.2205810546875,347.930908203125,58.9599609375
11.809999900000001,-5.461174011230469,0.9097966551780701,-16.486473083496094,5.7373046875,397.7203369140625,63.3087158203125
11.8299999,-5.635950565338135,0.2513911724090576,-13.910311698913574,53.8787841796875,448.4710693359375,64.9871826171875
11.8499999,-5.564124584197998,-0.45489832758903503,-10.69489860534668,132.2784423828125,434.4940185546875,58.6700439453125
11.8699999,-5.183446884155273,-0.8834604024887085,-6.698976516723633,133.30078125,373.6419677734375,29.449462890625
11.889999900000001,-4.436455726623535,-1.1492167711257935,-2.078166961669922,101.1199951171875,353.2257080078125,14.4805908203125
11.9099999,-3.3710360527038574,-1.3192051649093628,2.741360902786255,82.4127197265625,326.6448974609375,22.735595703125
11.9299999,-2.161964178085327,-1.3958195447921753,7.371747016906738,55.7403564453125,234.9853515625,16.0064697265625
11.9499999,-0.9888052940368652,-1.280897855758667,11.762712478637695,41.0614013671875,142.6239013671875,-11.1541748046875
11.969999900000001,0.019153613597154617,-1.2521674633026123,15.76821231842041,46.2799072265625,91.2933349609375,-6.3018798828125
11.9899999,0.7158663272857666,-0.912190854549408,18.64604377746582,11.4593505859375,-15.9912109375,-4.39453125
12.0099999,1.0462661981582642,-0.28730419278144836,19.86948013305664,-48.4619140625,-143.98193359375,-22.2320556640625
12.0299999,1.0606313943862915,0.47884035110473633,19.412187576293945,-57.769775390625,-183.4564208984375,-17.88330078125
12.049999900000001,0.8044517636299133,1.1013327836990356,16.94137191772461,-24.9176025390625,-203.765869140625,7.4920654296875
12.069999900000001,0.3711012601852417,1.5610195398330688,13.543998718261719,2.13623046875,-234.1461181640625,15.7623291015625
12.0899999,-0.2346317619085312,1.5179238319396973,10.022128105163574,1.861572265625,-268.5699462890625,10.7421875
12.1099999,-1.0103530883789062,0.9289502501487732,6.840234279632568,-20.5078125,-313.41552734375,9.3841552734375
12.129999900000001,-1.889025092124939,0.31124621629714966,3.993528366088867,-43.39599609375,-355.6671142578125,-2.899169921875
12.149999900000001,-2.7700912952423096,0.090979665517807,0.9433154463768005,-55.84716796875,-397.76611328125,-14.312744140625
12.1699999,-3.5482068061828613,0.2944868206977844,-2.2577321529388428,-50.537109375,-396.4996337890625,8.3770751953125
12.1899999,-4.323928356170654,0.031124621629714966,-5.698200225830078,-60.7452392578125,-376.8463134765625,51.9866943359375
12.209999900000001,-5.07570743560791,-0.272938996553421,-10.407594680786133,-100.372314453125,-430.5877685546875,14.0228271484375
12.229999900000001,-5.714959621429443,-0.43335050344467163,-16.58702850341797,-80.6732177734375,-426.4068603515625,-60.5316162109375
12.2499999,-5.940014362335205,-0.37828385829925537,-23.903709411621094,-27.7252197265625,-260.0555419921875,-23.92578125
12.2699999,-5.583278179168701,-0.2106897532939911,-31.598674774169922,-21.697998046875,-128.8604736328125,44.00634765625
12.289999900000002,-4.568136692047119,0.24420857429504395,-37.93373107910156,-45.5322265625,-57.7239990234375,7.87353515625
12.309999900000001,-3.246537446975708,0.42377370595932007,-40.94324493408203,-19.22607421875,67.1539306640625,-33.4625244140625
12.3299999,-2.006340980529785,0.3711012601852417,-40.53862380981445,29.998779296875,173.4771728515625,6.072998046875
12.3499999,-0.7422025203704834,1.6112977266311646,-32.5970573425293,-18.0816650390625,201.7974853515625,26.8402099609375
12.3699999,-0.849941611289978,1.721431016921997,-27.925968170166016,-13.8397216796875,249.1455078125,40.9698486328125
12.389999900000001,-1.3503297567367554,1.7764976024627686,-23.76005744934082,25.7720947265625,322.3724365234375,37.4603271484375
12.4099999,-2.0039467811584473,1.2856862545013428,-19.92454719543457,87.738037109375,377.593994140625,50.628662109375
12.4299999,-2.580949544906616,0.6847416758537292,-15.919047355651855,87.4786376953125,363.0523681640625,48.8128662109375
12.4499999,-2.849100112915039,-0.22266076505184174,-11.872846603393555,37.689208984375,321.3348388671875,33.0810546875
12.469999900000001,-2.760514497756958,-1.1971008777618408,-8.250418663024902,22.76611328125,304.19921875,18.49365234375
12.4899999,-2.4133553504943848,-1.8746598958969116,-4.98472785949707,69.39697265625,335.0372314453125,11.2152099609375
12.5099999,-1.8746598958969116,-2.279279947280884,-1.9129672050476074,117.2637939453125,335.1898193359375,10.6353759765625
12.5299999,-1.2545616626739502,-2.3750481605529785,1.4389152526855469,95.8251953125,268.768310546875,0.9613037109375
12.549999900000001,-0.524330198764801,-2.2625205516815186,4.953603267669678,26.8402099609375,190.521240234375,-24.4140625
12.569999900000001,0.2992752194404602,-1.8531121015548706,7.975085735321045,-18.035888671875,129.82177734375,-42.8619384765625
12.5899999,1.091755986213684,-1.2018892765045166,10.292673110961914,-2.8228759765625,98.0682373046875,-29.1748046875
12.6099999,1.7286136150360107,-0.28969839215278625,11.896788597106934,32.379150390625,66.1773681640625,-11.962890625
12.629999900000001,2.118868589401245,0.6129156351089478,12.957419395446777,33.233642578125,4.486083984375,-8.4228515625
12.649999900000001,2.250549554824829,1.314416766166687,13.472172737121582,3.96728515625,-70.61767578125,-8.1024169921875
12.6699999,2.1978771686553955,1.7262194156646729,13.323732376098633,-18.218994140625,-118.83544921875,0.3814697265625
12.6899999,2.030282974243164,1.867477297782898,12.401965141296387,-20.4620361328125,-157.623291015625,10.040283203125
12.709999900000001,1.7932571172714233,1.5921441316604614,10.8720703125,-0.030517578125,-198.211669921875,16.4031982421875
12.729999900000001,1.479616641998291,0.9241618514060974,9.026140213012695,4.425048828125,-238.7542724609375,13.0462646484375
12.7499999,1.0582371950149536,0.20111294090747833,7.129932880401611,-19.8974609375,-273.6663818359375,-2.1209716796875
12.7699999,0.6177040338516235,-0.040701430290937424,4.757278919219971,-33.75244140625,-328.3233642578125,-7.0953369140625
12.789999900000002,0.12928688526153564,-0.2513911724090576,1.7836803197860718,-47.2869873046875,-359.4512939453125,25.32958984375
12.809999900000001,-0.36152446269989014,-0.8212111592292786,-2.0374655723571777,-113.58642578125,-353.912353515625,43.1365966796875
12.8299999,-0.7110779285430908,-1.0965443849563599,-7.15387487411499,-136.1083984375,-351.3641357421875,-36.2701416015625
12.8499999,-0.9193734526634216,-1.7477672100067139,-13.804966926574707,-57.5714111328125,-347.5799560546875,-51.727294921875
12.8699999,-0.8355764150619507,-2.207453966140747,-19.86229705810547,-18.6614990234375,-196.4874267578125,-5.4931640625
12.889999900000001,-0.44771572947502136,-1.745373010635376,-25.187002182006836,-53.619384765625,-94.3756103515625,-33.6761474609375
12.9099999,0.7015010714530945,-1.1971008777618408,-28.225244522094727,-49.8199462890625,-109.7564697265625,-68.4661865234375
12.9299999,1.702277421951294,0.6129156351089478,-28.220455169677734,99.8992919921875,-43.9605712890625,-61.9659423828125
12.9499999,2.7748796939849854,0.8882488012313843,-27.011383056640625,117.61474609375,-38.5894775390625,32.562255859375
12.969999900000001,3.2824504375457764,1.1683704853057861,-23.791181564331055,18.7530517578125,19.5159912109375,47.3175048828125
12.9899999,3.162740468978882,-0.05267243832349777,-20.918140411376953,-33.87451171875,-5.06591796875,-33.355712890625
13.0099999,2.760514497756958,-1.3335703611373901,-17.30289649963379,-19.8974609375,20.355224609375,-34.4696044921875
13.0299999,2.346317768096924,-1.824381709098816,-14.15212631225586,16.29638671875,48.88916015625,-4.21142578125
13.049999900000001,1.9943699836730957,-1.455674648284912,-11.461043357849121,31.0821533203125,30.1513671875,6.7901611328125
13.069999900000001,1.7980455160140991,-0.8834604024887085,-9.081207275390625,13.946533203125,28.4271240234375,-0.42724609375
13.0899999,1.742978811264038,-0.5602431893348694,-7.5632829666137695,-9.9029541015625,19.5770263671875,-4.45556640625
13.1099999,1.7836803197860718,-0.27054479718208313,-6.665457725524902,-12.1917724609375,10.6964111328125,-9.82666015625
13.129999900000001,1.9273324012756348,-0.1173158809542656,-6.387730121612549,4.058837890625,8.544921875,-3.753662109375
13.149999900000001,2.097320795059204,-0.0071826050989329815,-6.552929878234863,-3.47900390625,-3.84521484375,1.6021728515625
13.1699999,2.2601263523101807,0.08379705995321274,-6.988674640655518,-19.59228515625,-10.711669921875,-1.922607421875
13.1899999,2.3965959548950195,0.06703764945268631,-7.5848307609558105,-12.939453125,-14.1754150390625,-5.523681640625
13.209999900000001,2.5115175247192383,0.07182604819536209,-8.339004516601562,4.7149658203125,-16.571044921875,1.434326171875
13.229999900000001,2.609679937362671,-0.047884032130241394,-9.030928611755371,8.2550048828125,-12.2222900390625,8.85009765625
13.2499999,2.669534921646118,-0.2082955539226532,-9.679757118225098,-6.805419921875,-9.58251953125,6.8206787109375
13.2699999,2.6862943172454834,-0.42856210470199585,-10.132261276245117,-14.3890380859375,-7.2784423828125,-2.3040771484375
13.289999900000002,2.6575639247894287,-0.5315127968788147,-10.441113471984863,-0.823974609375,-4.9285888671875,-2.532958984375
13.309999900000001,2.6024973392486572,-0.5817909836769104,-10.589553833007812,15.5487060546875,-2.1820068359375,8.819580078125
13.3299999,2.540247917175293,-0.6129156351089478,-10.5344877243042,10.162353515625,4.9896240234375,11.0626220703125
13.3499999,2.4851813316345215,-0.7972691655158997,-10.441113471984863,-0.823974609375,1.068115234375,2.5177001953125
13.3699999,2.4468741416931152,-0.9959878921508789,-10.180145263671875,-3.0059814453125,4.1656494140625,-6.2713623046875
13.389999900000001,2.427720546722412,-1.1971008777618408,-9.945513725280762,-0.6866455078125,6.134033203125,-2.3040771484375
13.4099999,2.4205379486083984,-1.1971008777618408,-9.670180320739746,0.9765625,6.6680908203125,1.0223388671875
13.4299999,2.425326347351074,-1.1252747774124146,-9.394847869873047,0.30517578125,4.7760009765625,-0.18310546875
13.4499999,2.43011474609375,-1.0031704902648926,-9.181763648986816,-4.5166015625,-0.91552734375,-3.4027099609375
13.469999900000001,2.427720546722412,-0.8762778043746948,-9.047688484191895,-5.462646484375,-1.220703125,-4.3182373046875
13.4899999,2.432508945465088,-0.7158663272857666,-9.062053680419922,-5.2947998046875,-1.2359619140625,-4.638671875
13.5099999,2.434903144836426,-0.49559974670410156,-9.198522567749023,-2.3651123046875,-0.7171630859375,-5.7525634765625
13.5299999,2.4372973442077637,-0.3208230137825012,-9.346963882446289,1.312255859375,0.8087158203125,0.8544921875
13.549999900000001,2.434903144836426,-0.22505496442317963,-9.48343276977539,-2.838134765625,0.5035400390625,2.9296875
13.569999900000001,2.427720546722412,-0.22744916379451752,-9.531316757202148,-12.39013671875,-1.251220703125,-0.2899169921875
13.5899999,2.410961151123047,-0.29209262132644653,-9.622296333312988,-9.6588134765625,-4.150390625,-4.425048828125
13.6099999,2.4013843536376953,-0.30885201692581177,-9.581595420837402,2.899169921875,2.3040771484375,-1.8157958984375
13.629999900000001,2.3942017555236816,-0.3423708379268646,-9.59835433959961,4.791259765625,0.7781982421875,4.486083984375
13.649999900000001,2.3965959548950195,-0.35673606395721436,-9.5408935546875,-0.42724609375,-2.5787353515625,3.0364990234375
13.6699999,2.408566951751709,-0.43335050344467163,-9.516951560974121,-1.220703125,-2.9754638671875,-1.89208984375
13.6899999,2.4229321479797363,-0.5363011956214905,-9.5624418258667,0.732421875,-0.8392333984375,-2.4871826171875
13.709999900000001,2.4396915435791016,-0.6344634294509888,-9.600749015808105,3.7841796875,3.692626953125,1.52587890625
13.729999900000001,2.4468741416931152,-0.689530074596405,-9.641449928283691,2.1820068359375,2.3345947265625,1.6632080078125
13.7499999,2.4396915435791016,-0.7254431247711182,-9.622296333312988,-0.9765625,-1.1444091796875,-0.823974609375
13.7699999,2.4229321479797363,-0.7541735172271729,-9.57201862335205,1.251220703125,-0.67138671875,-0.42724609375
13.789999900000002,2.4013843536376953,-0.7565677165985107,-9.567230224609375,2.4261474609375,-0.4425048828125,0.1983642578125
13.809999900000001,2.389413356781006,-0.7254431247711182,-9.586383819580078,-0.6866455078125,-0.030517578125,-1.2664794921875
13.8299999,2.38462495803833,-0.6871358752250671,-9.634267807006836,-1.3275146484375,1.46484375,-2.3193359375
13.8499999,2.389413356781006,-0.6248866319656372,-9.655815124511719,0.213623046875,2.8839111328125,-1.8768310546875
13.8699999,2.4013843536376953,-0.47405192255973816,-9.588777542114258,1.434326171875,0.30517578125,-0.244140625
13.889999900000001,2.406172752380371,-0.4213795065879822,-9.50498104095459,-0.2288818359375,-0.1678466796875,0.6561279296875
13.9099999,2.406172752380371,-0.40701428055763245,-9.50737476348877,-1.495361328125,-1.0986328125,1.6326904296875
13.9299999,2.406172752380371,-0.45489832758903503,-9.524134635925293,-0.8392333984375,1.312255859375,1.52587890625
13.9499999,2.406172752380371,-0.5171475410461426,-9.583989143371582,0.6866455078125,3.6773681640625,-1.0986328125
13.969999900000001,2.406172752380371,-0.586579442024231,-9.59835433959961,2.6702880859375,3.5858154296875,-1.220703125
13.9899999,2.408566951751709,-0.6105214357376099,-9.579200744628906,2.1209716796875,1.4801025390625,-0.3509521484375
14.0099999,2.408566951751709,-0.5985504388809204,-9.519346237182617,-0.640869140625,0.3662109375,1.129150390625
14.0299999,2.408566951751709,-0.6033388376235962,-9.481039047241211,-0.396728515625,0.274658203125,1.5869140625
14.049999900000001,2.406172752380371,-0.6272808313369751,-9.464279174804688,0.06103515625,1.0833740234375,-0.2288818359375
14.069999900000001,2.406172752380371,-0.6631938815116882,-9.488221168518066,-0.2288818359375,0.5035400390625,-2.38037109375
14.0899999,2.408566951751709,-0.6871358752250671,-9.528923034667969,-0.2288818359375,1.0986328125,-2.3193359375
14.1099999,2.410961151123047,-0.667982280254364,-9.552865028381348,-0.457763671875,1.8463134765625,-1.15966796875
14.129999900000001,2.4133553504943848,-0.6105214357376099,-9.581595420837402,-0.0762939453125,1.4495849609375,-0.823974609375
14.149999900000001,2.4133553504943848,-0.5410895943641663,-9.576807022094727,-0.1678466796875,0.946044921875,-0.396728515625
14.1699999,2.4157495498657227,-0.4836287498474121,-9.560047149658203,-0.1373291015625,1.6632080078125,1.007080078125
14.1899999,2.4157495498657227,-0.47884035110473633,-9.516951560974121,-1.2969970703125,2.197265625,0.9307861328125
14.209999900000001,2.4229321479797363,-0.49799394607543945,-9.442731857299805,-2.899169921875,0.9765625,-1.46484375
14.229999900000001,2.425326347351074,-0.545877993106842,-9.370905876159668,-2.5634765625,-1.8157958984375,-2.4871826171875
14.2499999,2.427720546722412,-0.5746083855628967,-9.318233489990234,1.7242431640625,-3.2806396484375,-1.6937255859375
14.2699999,2.427720546722412,-0.5722141861915588,-9.313444137573242,1.6632080078125,-2.777099609375,-1.28173828125
14.289999900000002,2.4157495498657227,-0.5530605912208557,-9.41639518737793,-2.5787353515625,-3.570556640625,-0.885009765625
14.309999900000001,2.408566951751709,-0.5051765441894531,-9.50737476348877,-3.72314453125,-0.0457763671875,-0.9307861328125
14.3299999,2.3989901542663574,-0.4884171485900879,-9.66539192199707,-1.4801025390625,-0.2288818359375,1.6632080078125
14.3499999,2.3942017555236816,-0.47165772318840027,-9.706093788146973,2.6702880859375,2.1209716796875,1.6937255859375
14.3699999,2.387019157409668,-0.5386953949928284,-9.739612579345703,1.9989013671875,1.2359619140625,2.0294189453125
14.389999900000001,2.3798365592956543,-0.6057330369949341,-9.68694019317627,0.335693359375,0.6561279296875,-0.8544921875
14.4099999,2.3702597618103027,-0.6607996821403503,-9.636661529541016,-0.30517578125,0.7781982421875,-1.2969970703125
14.4299999,2.360682964324951,-0.6919242739677429,-9.588777542114258,-1.800537109375,1.068115234375,-0.1983642578125
14.4499999,2.3582887649536133,-0.6703764796257019,-9.567230224609375,-2.25830078125,1.5411376953125,0.518798828125
14.469999900000001,2.3582887649536133,-0.6655880808830261,-9.548076629638672,-2.6702880859375,1.9073486328125,-0.5340576171875
14.4899999,2.360682964324951,-0.6416460275650024,-9.516951560974121,-2.6702880859375,1.861572265625,-2.685546875
14.5099999,2.363077163696289,-0.6057330369949341,-9.531316757202148,-1.7547607421875,-0.396728515625,-3.4637451171875
14.5299999,2.3702597618103027,-0.5171475410461426,-9.502586364746094,0.42724609375,0.4119873046875,-1.434326171875
14.549999900000001,2.3750481605529785,-0.44532153010368347,-9.516951560974121,0.396728515625,0.6866455078125,0.946044921875
14.569999900000001,2.382230758666992,-0.35434186458587646,-9.495404243469238,-0.2288818359375,0.3509521484375,0.335693359375
14.5899999,2.382230758666992,-0.3471592366695404,-9.500192642211914,-0.732421875,-0.762939453125,0.79345703125
14.6099999,2.382230758666992,-0.36152446269989014,-9.488221168518066,-1.52587890625,0.274658203125,1.373291015625
14.629999900000001,2.3798365592956543,-0.42856210470199585,-9.521739959716797,-0.1068115234375,0.3814697265625,1.1444091796875
14.649999900000001,2.3798365592956543,-0.47405192255973816,-9.533711433410645,0.4119873046875,0.7476806640625,-0.18310546875
14.6699999,2.3750481605529785,-0.5602431893348694,-9.548076629638672,-0.0152587890625,0.3662109375,0.396728515625
14.6899999,2.367865562438965,-0.5793967843055725,-9.560047149658203,-0.67138671875,-0.3814697265625,-0.1983642578125
14.709999900000001,2.3582887649536133,-0.608127236366272,-9.555258750915527,-1.220703125,0.0762939453125,-0.1983642578125
14.729999900000001,2.3487119674682617,-0.5913678407669067,-9.576807022094727,-1.373291015625,0.30517578125,-0.67138671875
14.7499999,2.343923568725586,-0.5650315880775452,-9.603142738342285,-0.213623046875,0.0762939453125,-0.18310546875
14.7699999,2.346317768096924,-0.5195417404174805,-9.612719535827637,0.9002685546875,1.6021728515625,-0.274658203125
14.789999900000002,2.3487119674682617,-0.5051765441894531,-9.627084732055664,-0.0457763671875,1.129150390625,0.4119873046875
14.809999900000001,2.3511061668395996,-0.5003881454467773,-9.607931137084961,-0.48828125,1.15966796875,-0.54931640625
14.8299999,2.3535003662109375,-0.49799394607543945,-9.576807022094727,-0.5035400390625,1.1138916015625,-1.5106201171875
14.8499999,2.3582887649536133,-0.5147533416748047,-9.548076629638672,-0.5035400390625,0.8087158203125,-0.30517578125
14.8699999,2.363077163696289,-0.5363011956214905,-9.516951560974121,-0.701904296875,0.9307861328125,0.54931640625
14.889999900000001,2.3726539611816406,-0.5506663918495178,-9.502586364746094,-0.885009765625,0.79345703125,-1.9073486328125
14.9099999,2.3774423599243164,-0.5841852426528931,-9.485827445983887,-1.251220703125,0.762939453125,-2.13623046875
14.9299999,2.3774423599243164,-0.5817909836769104,-9.500192642211914,-1.4495849609375,-0.1068115234375,-1.8310546875
14.9499999,2.367865562438965,-0.5817909836769104,-9.493009567260742,-1.15966796875,0.1678466796875,-1.5106201171875
14.969999900000001,2.3558945655822754,-0.5554547905921936,-9.524134635925293,-0.457763671875,-0.0762939453125,-1.8768310546875
14.9899999,2.3487119674682617,-0.5051765441894531,-9.552865028381348,-1.9683837890625,0.1068115234375,-2.7923583984375
15.0099999,2.3487119674682617,-0.47644615173339844,-9.600749015808105,-2.4261474609375,1.1444091796875,-0.8697509765625
15.0299999,2.3558945655822754,-0.44532153010368347,-9.619902610778809,-2.38037109375,2.6092529296875,-0.6866455078125
15.049999900000001,2.363077163696289,-0.42377370595932007,-9.607931137084961,-2.9449462890625,1.89208984375,-2.5177001953125
15.069999900000001,2.3582887649536133,-0.40701428055763245,-9.579200744628906,-1.922607421875,-0.8392333984375,-1.953125
15.0899999,2.3511061668395996,-0.37828385829925537,-9.528923034667969,-1.2359619140625,-0.2593994140625,-0.42724609375
15.1099999,2.341529369354248,-0.3687070608139038,-9.521739959716797,-1.434326171875,0.1678466796875,0.9765625
15.129999900000001,2.341529369354248,-0.3519476354122162,-9.533711433410645,-2.4566650390625,0.5340576171875,-0.91552734375
15.149999900000001,2.343923568725586,-0.38546648621559143,-9.545681953430176,-2.166748046875,1.2054443359375,-0.8697509765625
15.1699999,2.3487119674682617,-0.40462008118629456,-9.548076629638672,-2.3345947265625,1.0986328125,-0.579833984375
15.1899999,2.3535003662109375,-0.40701428055763245,-9.531316757202148,-3.1280517578125,0.274658203125,-1.0986328125
15.209999900000001,2.3511061668395996,-0.3974374830722809,-9.50498104095459,-3.265380859375,0,-0.885009765625
15.229999900000001,2.346317768096924,-0.37828385829925537,-9.478644371032715,-2.25830078125,-0.48828125,-0.640869140625
15.2499999,2.33913516998291,-0.35913026332855225,-9.476250648498535,-1.2054443359375,-1.2359619140625,-0.6256103515625
15.2699999,2.3319525718688965,-0.35434186458587646,-9.48343276977539,-0.9918212890625,-1.190185546875,-0.5950927734375
15.289999900000002,2.3271639347076416,-0.35913026332855225,-9.509769439697266,-0.762939453125,-0.701904296875,-0.1678466796875
15.309999900000001,2.3271639347076416,-0.3519476354122162,-9.548076629638672,-1.0223388671875,-0.7171630859375,-0.42724609375
15.3299999,2.3295583724975586,-0.3758896589279175,-9.588777542114258,-1.40380859375,0.1983642578125,0.48828125
15.3499999,2.3319525718688965,-0.3926490843296051,-9.634267807006836,-3.47900390625,0.54931640625,-0.2593994140625
15.3699999,2.315192937850952,-0.4908113479614258,-9.703699111938477,-0.7781982421875,2.0751953125,-3.3416748046875
15.389999900000001,2.300827741622925,-0.5195417404174805,-9.703699111938477,0.7476806640625,2.532958984375,-5.1422119140625
15.4099999,2.296039342880249,-0.4596867263317108,-9.691728591918945,-0.274658203125,1.556396484375,-5.7373046875
15.4299999,2.3032219409942627,-0.3423708379268646,-9.651026725769043,-1.373291015625,2.0751953125,-3.35693359375
15.4499999,2.3104045391082764,-0.2537853717803955,-9.62947940826416,-1.861572265625,1.7547607421875,0.91552734375
15.469999900000001,2.319981336593628,-0.16998831927776337,-9.600749015808105,-1.190185546875,2.50244140625,-0.5035400390625
15.4899999,2.3247697353363037,-0.1628057211637497,-9.579200744628906,0.1220703125,1.922607421875,-1.4190673828125
15.5099999,2.3271639347076416,-0.2298433631658554,-9.543288230895996,1.0833740234375,1.5716552734375,0.762939453125
15.5299999,2.3343467712402344,-0.2585737705230713,-9.533711433410645,1.312255859375,0.030517578125,-0.6256103515625
15.549999900000001,2.3367409706115723,-0.2801215946674347,-9.521739959716797,-0.152587890625,0.274658203125,-0.8087158203125
15.569999900000001,2.3367409706115723,-0.2944868206977844,-9.516951560974121,-0.335693359375,1.7547607421875,1.2054443359375
15.5899999,2.3367409706115723,-0.2585737705230713,-9.521739959716797,-1.3427734375,0.7781982421875,1.28173828125
15.6099999,2.33913516998291,-0.2513911724090576,-9.502586364746094,-1.8310546875,0.732421875,0.79345703125
15.629999900000001,2.343923568725586,-0.26815059781074524,-9.50498104095459,-0.9307861328125,0.0457763671875,0.5950927734375
15.649999900000001,2.346317768096924,-0.2968810200691223,-9.509769439697266,-0.48828125,0.3204345703125,0.0152587890625
15.6699999,2.343923568725586,-0.33039984107017517,-9.53849983215332,0.1373291015625,0.54931640625,-0.3509521484375
15.6899999,2.3343467712402344,-0.35673606395721436,-9.576807022094727,-0.2899169921875,0.30517578125,0.2593994140625
15.709999900000001,2.3271639347076416,-0.3711012601852417,-9.59835433959961,-0.885009765625,0.9765625,0.3662109375
15.729999900000001,2.322375535964966,-0.38307225704193115,-9.612719535827637,-2.197265625,0.8392333984375,-0.762939453125
15.7499999,2.322375535964966,-0.37828385829925537,-9.610325813293457,-3.6468505859375,0.152587890625,-1.251220703125
15.7699999,2.3247697353363037,-0.35434186458587646,-9.619902610778809,-2.7313232421875,-0.30517578125,-0.6256103515625
15.789999900000002,2.3295583724975586,-0.31603461503982544,-9.619902610778809,-0.5950927734375,1.3427734375,0.3662109375
15.809999900000001,2.3271639347076416,-0.27054479718208313,-9.615114212036133,-0.3814697265625,1.5869140625,1.1138916015625
15.8299999,2.322375535964966,-0.24899697303771973,-9.600749015808105,-0.30517578125,0.6561279296875,0.152587890625
15.8499999,2.3127987384796143,-0.23702596127986908,-9.564835548400879,0.1678466796875,0.2899169921875,-0.4730224609375
15.869999900000002,2.3104045391082764,-0.21547815203666687,-9.548076629638672,-0.5035400390625,0.457763671875,-0.4730224609375
15.889999900000001,2.3127987384796143,-0.20350714027881622,-9.53849983215332,-1.2969970703125,0.8087158203125,1.2359619140625
15.9099999,2.31758713722229,-0.21547815203666687,-9.552865028381348,-0.9765625,0.8544921875,2.197265625
15.9299999,2.3295583724975586,-0.2322375625371933,-9.567230224609375,0.030517578125,0.518798828125,0.2288818359375
15.9499999,2.3319525718688965,-0.2825157940387726,-9.593565940856934,0.213623046875,0.274658203125,-0.4425048828125
15.969999900000001,2.3343467712402344,-0.31603461503982544,-9.610325813293457,0.4730224609375,1.1749267578125,0.1983642578125
15.9899999,2.3319525718688965,-0.31124621629714966,-9.619902610778809,1.0833740234375,1.2054443359375,-0.152587890625
16.0099999,2.3271639347076416,-0.31364041566848755,-9.591172218322754,0.732421875,1.9073486328125,0.8544921875
16.0299999,2.3247697353363037,-0.29209262132644653,-9.567230224609375,-0.9002685546875,0.579833984375,0.6103515625
16.0499999,2.322375535964966,-0.272938996553421,-9.521739959716797,-1.5106201171875,0.42724609375,0.0457763671875
16.0699999,2.322375535964966,-0.2777273952960968,-9.50737476348877,-1.2664794921875,0.640869140625,0.640869140625
16.089999900000002,2.322375535964966,-0.2801215946674347,-9.512163162231445,-0.732421875,0.4425048828125,0.1983642578125
16.109999900000002,2.3247697353363037,-0.2825157940387726,-9.531316757202148,0.2899169921875,0.7476806640625,-0.5035400390625
16.1299999,2.3295583724975586,-0.2968810200691223,-9.576807022094727,-0.3204345703125,0.152587890625,-0.0457763671875
16.1499999,2.3319525718688965,-0.2968810200691223,-9.600749015808105,-0.67138671875,1.2054443359375,0.396728515625
16.1699999,2.3319525718688965,-0.3064578175544739,-9.634267807006836,-0.518798828125,1.3580322265625,0.274658203125
16.1899999,2.3271639347076416,-0.3064578175544739,-9.617507934570312,0.091552734375,1.3580322265625,-0.3662109375
16.2099999,2.319981336593628,-0.28969839215278625,-9.600749015808105,-0.2288818359375,0.4425048828125,-1.1749267578125
16.2299999,2.3127987384796143,-0.2801215946674347,-9.564835548400879,-0.579833984375,0.3814697265625,0.335693359375
16.249999900000002,2.31758713722229,-0.2322375625371933,-9.53849983215332,-0.335693359375,0.9765625,-0.0457763671875
16.269999900000002,2.322375535964966,-0.19871874153614044,-9.533711433410645,-0.9307861328125,0.1373291015625,0.06103515625
16.2899999,2.3247697353363037,-0.19871874153614044,-9.524134635925293,-0.5950927734375,1.007080078125,1.556396484375
16.3099999,2.3271639347076416,-0.2059013396501541,-9.528923034667969,-0.518798828125,0.6256103515625,0.579833984375
16.3299999,2.319981336593628,-0.24899697303771973,-9.543288230895996,-1.15966796875,-0.2288818359375,-0.518798828125
16.3499999,2.3127987384796143,-0.3016694188117981,-9.557653427124023,-0.4730224609375,0.5035400390625,-0.67138671875
16.3699999,2.3080103397369385,-0.33518823981285095,-9.605537414550781,-0.67138671875,0.54931640625,-1.1138916015625
16.3899999,2.3104045391082764,-0.3519476354122162,-9.634267807006836,-1.007080078125,1.9683837890625,-1.5716552734375
16.4099999,2.3127987384796143,-0.33518823981285095,-9.651026725769043,-1.15966796875,2.593994140625,-2.1820068359375
16.429999900000002,2.319981336593628,-0.304063618183136,-9.62947940826416,-0.5645751953125,2.166748046875,-1.1138916015625
16.4499999,2.319981336593628,-0.2753331959247589,-9.586383819580078,-1.2969970703125,1.0223388671875,-0.8697509765625
16.4699999,2.319981336593628,-0.26096799969673157,-9.550470352172852,-1.3275146484375,0.79345703125,-1.9989013671875
16.4899999,2.322375535964966,-0.2322375625371933,-9.526528358459473,-0.9918212890625,1.434326171875,-3.0059814453125
16.5099999,2.3271639347076416,-0.20350714027881622,-9.536105155944824,-0.701904296875,1.1444091796875,-1.4190673828125
16.5299999,2.3319525718688965,-0.1628057211637497,-9.548076629638672,-1.251220703125,1.1749267578125,0.244140625
16.5499999,2.3367409706115723,-0.13407529890537262,-9.548076629638672,-0.701904296875,1.4495849609375,0.2288818359375
16.5699999,2.3367409706115723,-0.12689268589019775,-9.545681953430176,-0.30517578125,0.42724609375,-0.5035400390625
16.589999900000002,2.3319525718688965,-0.12928688526153564,-9.545681953430176,-0.1373291015625,-0.5950927734375,-0.1678466796875
16.609999900000002,2.3295583724975586,-0.1412578970193863,-9.550470352172852,0.42724609375,0.3814697265625,1.3580322265625
16.6299999,2.3295583724975586,-0.15322890877723694,-9.569623947143555,-0.7171630859375,0.9918212890625,1.40380859375
16.6499999,2.3295583724975586,-0.19393034279346466,-9.586383819580078,-0.5645751953125,0.762939453125,1.0986328125
16.6699999,2.3271639347076416,-0.2322375625371933,-9.603142738342285,-0.762939453125,0.79345703125,-0.0457763671875
16.6899999,2.3247697353363037,-0.2825157940387726,-9.59835433959961,-0.2899169921875,1.3275146484375,0.0762939453125
16.7099999,2.319981336593628,-0.28730419278144836,-9.59596061706543,-0.6866455078125,0.5950927734375,-0.518798828125
16.7299999,2.31758713722229,-0.2825157940387726,-9.583989143371582,-0.3509521484375,0.2593994140625,-0.0457763671875
16.749999900000002,2.319981336593628,-0.23942017555236816,-9.564835548400879,-0.274658203125,0.823974609375,-0.0457763671875
16.769999900000002,2.319981336593628,-0.19153612852096558,-9.555258750915527,-0.4730224609375,0.518798828125,0.2899169921875
16.7899999,2.319981336593628,-0.16519992053508759,-9.545681953430176,0.1068115234375,0.1373291015625,1.190185546875
16.8099999,2.31758713722229,-0.14604631066322327,-9.548076629638672,0.396728515625,0.457763671875,0.2593994140625
16.8299999,2.315192937850952,-0.14604631066322327,-9.555258750915527,0.5035400390625,1.4190673828125,-0.213623046875
16.8499999,2.315192937850952,-0.16759411990642548,-9.57441234588623,0.579833984375,1.312255859375,1.2969970703125
16.8699999,2.3127987384796143,-0.19871874153614044,-9.57201862335205,-0.213623046875,1.03759765625,1.7547607421875
16.8899999,2.3104045391082764,-0.28730419278144836,-9.591172218322754,-1.708984375,0.30517578125,-1.068115234375
16.9099999,2.3104045391082764,-0.2992752194404602,-9.607931137084961,-0.4425048828125,0.7476806640625,-0.67138671875
16.929999900000002,2.3104045391082764,-0.2825157940387726,-9.624691009521484,0.213623046875,0.8697509765625,0.0457763671875
16.9499999,2.315192937850952,-0.2513911724090576,-9.619902610778809,0.1678466796875,1.4495849609375,0.54931640625
16.9699999,2.31758713722229,-0.22026655077934265,-9.615114212036133,-0.4730224609375,0.67138671875,0.0762939453125
16.9899999,2.322375535964966,-0.2106897532939911,-9.600749015808105,-0.8697509765625,0.6103515625,0.244140625
17.0099999,2.3247697353363037,-0.2106897532939911,-9.583989143371582,-0.1220703125,1.5411376953125,-0.1220703125
17.0299999,2.3247697353363037,-0.21547815203666687,-9.569623947143555,0.244140625,1.3427734375,-0.5035400390625
17.0499999,2.322375535964966,-0.21547815203666687,-9.543288230895996,-0.823974609375,0.2593994140625,-0.4730224609375
17.0699999,2.319981336593628,-0.19871874153614044,-9.524134635925293,-1.4801025390625,0.091552734375,-0.335693359375
17.089999900000002,2.31758713722229,-0.16519992053508759,-9.521739959716797,-1.6632080078125,0.030517578125,-0.091552734375
17.109999900000002,2.3104045391082764,-0.14365209639072418,-9.543288230895996,-1.2969970703125,0.6103515625,0.9002685546875
17.1299999,2.3056161403656006,-0.13168109953403473,-9.564835548400879,-0.42724609375,1.5106201171875,0.762939453125
17.1499999,2.300827741622925,-0.1173158809542656,-9.600749015808105,0.274658203125,0.762939453125,-0.3204345703125
17.1699999,2.296039342880249,-0.13168109953403473,-9.59835433959961,0.9918212890625,0.8544921875,1.0223388671875
17.1899999,2.296039342880249,-0.14844051003456116,-9.610325813293457,0.0762939453125,0.2593994140625,1.7852783203125
17.2099999,2.300827741622925,-0.17477671802043915,-9.607931137084961,-0.030517578125,0.67138671875,0.4730224609375
17.2299999,2.3032219409942627,-0.22505496442317963,-9.603142738342285,0.1068115234375,1.1138916015625,0.30517578125
17.249999900000002,2.3080103397369385,-0.24899697303771973,-9.591172218322754,-0.885009765625,0.8087158203125,-0.244140625
17.269999900000002,2.3080103397369385,-0.2585737705230713,-9.581595420837402,-0.7781982421875,0.2593994140625,-0.3509521484375
17.2899999,2.3104045391082764,-0.23702596127986908,-9.567230224609375,-0.518798828125,0.5950927734375,0.0152587890625
17.3099999,2.3104045391082764,-0.20111294090747833,-9.57201862335205,-1.129150390625,0.518798828125,0.579833984375
17.3299999,2.3104045391082764,-0.18914192914962769,-9.569623947143555,-1.40380859375,1.2359619140625,1.15966796875
17.3499999,2.3104045391082764,-0.16519992053508759,-9.581595420837402,-1.03759765625,0.91552734375,-0.518798828125
17.3699999,2.3080103397369385,-0.15801730751991272,-9.586383819580078,0.0457763671875,0.9307861328125,-0.274658203125
17.3899999,2.3032219409942627,-0.17238251864910126,-9.583989143371582,0.885009765625,1.129150390625,1.77001953125
17.409999900000003,2.298433542251587,-0.19632454216480255,-9.579200744628906,0.6561279296875,0.5035400390625,0.823974609375
17.429999900000002,2.300827741622925,-0.2082955539226532,-9.581595420837402,-0.0457763671875,0.091552734375,-1.7852783203125
17.4499999,2.3032219409942627,-0.2513911724090576,-9.583989143371582,0.3204345703125,0.640869140625,-0.152587890625
17.4699999,2.3080103397369385,-0.2585737705230713,-9.605537414550781,0.48828125,1.0833740234375,0.640869140625
17.4899999,2.3127987384796143,-0.272938996553421,-9.600749015808105,0.9765625,1.77001953125,-0.0457763671875
17.5099999,2.3080103397369385,-0.2777273952960968,-9.59835433959961,-0.335693359375,0.7476806640625,-1.7242431640625
17.5299999,2.3080103397369385,-0.272938996553421,-9.593565940856934,-1.8157958984375,0.1220703125,-1.5106201171875
17.5499999,2.300827741622925,-0.24420857429504395,-9.600749015808105,-1.800537109375,1.0986328125,-0.9765625
17.5699999,2.298433542251587,-0.19393034279346466,-9.607931137084961,-0.42724609375,2.5177001953125,-0.885009765625
17.589999900000002,2.296039342880249,-0.17717093229293823,-9.59596061706543,0.42724609375,2.13623046875,-0.3509521484375
17.609999900000002,2.298433542251587,-0.1388636976480484,-9.569623947143555,-0.885009765625,0.579833984375,-1.7242431640625
17.6299999,2.3032219409942627,-0.12210428714752197,-9.53849983215332,-2.0904541015625,0.1220703125,-1.1749267578125
17.6499999,2.3080103397369385,-0.08140286058187485,-9.536105155944824,-1.28173828125,0.762939453125,0.2593994140625
17.6699999,2.3104045391082764,-0.043095629662275314,-9.53849983215332,-0.4425048828125,1.52587890625,1.1749267578125
17.6899999,2.3056161403656006,-0.028730420395731926,-9.560047149658203,-0.5340576171875,1.0223388671875,1.3427734375
17.7099999,2.293645143508911,-0.028730420395731926,-9.557653427124023,-0.701904296875,1.0528564453125,0.1068115234375
17.7299999,2.2864625453948975,-0.0071826050989329815,-9.567230224609375,-0.30517578125,0.7781982421875,-0.885009765625
17.749999900000002,2.279279947280884,0.031124621629714966,-9.560047149658203,0.30517578125,1.15966796875,1.8157958984375
17.769999900000002,2.2816741466522217,0.090979665517807,-9.567230224609375,0.42724609375,0.8697509765625,4.1961669921875
17.7899999,2.2888567447662354,0.10773907601833344,-9.567230224609375,0.335693359375,0.30517578125,5.2947998046875
17.8099999,2.300827741622925,0.07422025501728058,-9.59835433959961,1.2664794921875,-0.152587890625,4.5623779296875
17.8299999,2.3104045391082764,-0.040701430290937424,-9.600749015808105,2.1209716796875,1.6326904296875,4.6539306640625
17.8499999,2.31758713722229,-0.17956513166427612,-9.62947940826416,0.518798828125,1.2359619140625,3.2958984375
17.8699999,2.319981336593628,-0.31124621629714966,-9.636661529541016,0.0152587890625,0.4730224609375,2.5177001953125
17.8899999,2.319981336593628,-0.42377370595932007,-9.639056205749512,0.640869140625,1.3580322265625,2.74658203125
17.909999900000003,2.3247697353363037,-0.47405192255973816,-9.655815124511719,-0.67138671875,1.3885498046875,1.8310546875
17.929999900000002,2.3271639347076416,-0.507570743560791,-9.667786598205566,-0.6256103515625,2.197265625,1.3427734375
17.9499999,2.3295583724975586,-0.45489832758903503,-9.679757118225098,-0.7781982421875,2.6092529296875,-0.4730224609375
17.9699999,2.322375535964966,-0.3734954595565796,-9.684545516967773,-1.251220703125,2.7008056640625,0.0457763671875
17.9899999,2.315192937850952,-0.24420857429504395,-9.672574996948242,-1.312255859375,2.838134765625,1.9073486328125
18.0099999,2.3104045391082764,-0.09576806426048279,-9.648633003234863,-0.79345703125,3.1585693359375,2.1820068359375
18.0299999,2.3104045391082764,-0.021547814831137657,-9.607931137084961,-0.640869140625,3.1890869140625,2.9449462890625
18.0499999,2.315192937850952,0.035913024097681046,-9.57201862335205,-0.9918212890625,2.471923828125,1.9989013671875
18.0699999,2.31758713722229,0.028730420395731926,-9.526528358459473,-0.18310546875,2.5634765625,1.9683837890625
18.089999900000002,2.31758713722229,0.014365210197865963,-9.478644371032715,0.9002685546875,2.8076171875,3.9825439453125
18.109999900000002,2.319981336593628,-0.028730420395731926,-9.442731857299805,0.5340576171875,1.6326904296875,5.2490234375
18.1299999,2.3247697353363037,-0.07900865375995636,-9.406818389892578,-0.640869140625,0.7476806640625,4.5623779296875
18.1499999,2.33913516998291,-0.16519992053508759,-9.402029991149902,0.2899169921875,0.6103515625,3.448486328125
18.1699999,2.3558945655822754,-0.2106897532939911,-9.421183586120605,0.67138671875,0.1220703125,3.021240234375
18.1899999,2.365471363067627,-0.2825157940387726,-9.437943458557129,1.15966796875,1.312255859375,4.82177734375
18.2099999,2.3702597618103027,-0.3280056416988373,-9.428366661071777,0.640869140625,1.495361328125,3.8299560546875
18.2299999,2.365471363067627,-0.42377370595932007,-9.385271072387695,-0.885009765625,-0.0762939453125,1.617431640625
18.249999900000002,2.3535003662109375,-0.5674257874488831,-9.306262016296387,-2.593994140625,-1.434326171875,0
18.269999900000002,2.3367409706115723,-0.7469909191131592,-9.196128845214844,-3.11279296875,-2.0904541015625,-2.716064453125
18.2899999,2.31758713722229,-1.0247182846069336,-9.100360870361328,-4.8828125,-4.6844482421875,-4.45556640625
18.3099999,2.3247697353363037,-1.482010841369629,-8.98543930053711,-13.397216796875,-7.0343017578125,-8.941650390625
18.3299999,2.3726539611816406,-2.2218191623687744,-8.971074104309082,-25.390625,-11.3677978515625,-19.4854736328125
18.3499999,2.4133553504943848,-3.134010076522827,-8.992621421813965,-30.1361083984375,-11.566162109375,-38.9251708984375
18.3699999,2.434903144836426,-4.084507942199707,-8.987833023071289,-22.27783203125,-6.8817138671875,-57.7239990234375
18.3899999,2.3918075561523438,-4.714183330535889,-9.047688484191895,-18.6004638671875,-15.228271484375,-70.7550048828125
18.409999900000003,2.1356279850006104,-4.867412090301514,-9.165003776550293,-14.9078369140625,-14.5416259765625,-83.404541015625
18.429999900000002,1.987187385559082,-4.546588897705078,-9.454702377319336,-30.4718017578125,-17.8375244140625,-102.6611328125
18.4499999,1.8315643072128296,-4.206612586975098,-9.84256362915039,-29.0374755859375,-17.8985595703125,-122.98583984375
18.4699999,1.6855180263519287,-3.6846764087677,-10.345345497131348,-4.08935546875,-8.1634521484375,-125.762939453125
18.4899999,1.5131354331970215,-2.9281086921691895,-10.788272857666016,16.4642333984375,-1.678466796875,-129.3487548828125
18.5099999,1.2689268589019775,-1.8914192914962769,-11.135432243347168,-5.8441162109375,-3.387451171875,-137.847900390625
18.5299999,0.9433154463768005,-0.5889736413955688,-11.458649635314941,-43.975830078125,-12.664794921875,-142.6239013671875
18.5499999,0.545877993106842,0.608127236366272,-12.071564674377441,-51.4984130859375,-13.6871337890625,-128.6163330078125
18.5699999,0.181959331035614,2.1475989818573,-12.844892501831055,-27.5115966796875,13.1683349609375,-128.8604736328125
18.589999900000002,-0.07900865375995636,3.471592426300049,-13.529633522033691,2.9296875,48.736572265625,-116.8975830078125
18.609999900000002,-0.17956513166427612,4.776432514190674,-13.771448135375977,-0.1373291015625,57.0526123046875,-94.757080078125
18.6299999,-0.13407529890537262,5.875370979309082,-13.656526565551758,-20.477294921875,42.29736328125,-80.1544189453125
18.6499999,-0.043095629662275314,6.560112476348877,-13.251906394958496,-26.6265869140625,51.81884765625,-68.8323974609375
18.6699999,0.05985504388809204,6.998251438140869,-12.995726585388184,-22.1405029296875,74.40185546875,-65.9942626953125
18.6899999,0.12689268589019775,7.3885064125061035,-12.847286224365234,-18.951416015625,87.5244140625,-58.837890625
18.7099999,0.11252748221158981,8.015787124633789,-12.904747009277344,-20.751953125,88.6993408203125,-37.3382568359375
18.7299999,0.05506663769483566,8.851364135742188,-13.046005249023438,-26.30615234375,100.189208984375,-2.3193359375
18.749999900000002,-0.0694318488240242,9.588777542114258,-13.187262535095215,-22.4761962890625,126.9989013671875,30.9906005859375
18.769999900000002,-0.2059013396501541,10.022128105163574,-13.15853214263916,-14.2364501953125,143.768310546875,45.9747314453125
18.7899999,-0.2825157940387726,10.08437728881836,-12.598289489746094,-20.8587646484375,146.820068359375,56.3507080078125
18.8099999,-0.22744916379451752,9.864110946655273,-11.60948371887207,-39.459228515625,136.7340087890625,78.857421875
18.8299999,-0.021547814831137657,9.344569206237793,-10.38604736328125,-52.764892578125,127.410888671875,107.0098876953125
18.8499999,0.3423708379268646,8.547300338745117,-9.102754592895508,-57.6324462890625,130.37109375,122.2991943359375
18.8699999,0.8451532125473022,7.493851184844971,-8.006210327148438,-66.9097900390625,125.4730224609375,121.673583984375
18.8899999,1.3982137441635132,6.232107162475586,-7.053318023681641,-74.310302734375,113.4033203125,130.3253173828125
18.909999900000003,1.9728221893310547,5.12119722366333,-6.191405773162842,-81.4361572265625,110.2294921875,140.68603515625
18.929999900000002,2.4636335372924805,4.278438568115234,-5.633556365966797,-86.456298828125,100.52490234375,143.096923828125
18.9499999,2.8155810832977295,3.7038300037384033,-5.1116204261779785,-72.8759765625,98.5870361328125,149.444580078125
18.9699999,3.0095114707946777,3.1292216777801514,-4.759673118591309,-49.49951171875,98.2208251953125,162.994384765625
18.9899999,3.0550012588500977,2.7222073078155518,-4.1611223220825195,-44.219970703125,94.8944091796875,163.665771484375
19.0099999,2.9688100814819336,2.296039342880249,-3.270479440689087,-68.0999755859375,81.72607421875,159.85107421875
19.0299999,2.8107926845550537,1.702277421951294,-2.164358377456665,-85.9222412109375,52.5970458984375,174.74365234375
19.0499999,2.609679937362671,1.3455413579940796,-1.072602391242981,-62.3626708984375,25.9246826171875,177.2613525390625
19.0699999,2.387019157409668,0.828393816947937,-0.10773907601833344,-8.514404296875,19.134521484375,182.2662353515625
19.089999900000002,2.1787235736846924,-0.15562310814857483,0.7206547260284424,-0.9918212890625,12.6190185546875,199.462890625
19.109999900000002,2.008735179901123,-1.2425906658172607,1.45806884765625,-49.560546875,-22.1405029296875,180.9234619140625
19.1299999,1.8483237028121948,-2.4468741416931152,1.9776105880737305,-65.643310546875,-72.479248046875,152.618408203125
19.1499999,1.721431016921997,-3.73016619682312,2.094926595687866,-27.7557373046875,-92.8802490234375,158.172607421875
19.1699999,1.5873557329177856,-5.116408824920654,1.6543933153152466,-0.42724609375,-102.0965576171875,167.05322265625
19.1899999,1.4963760375976562,-6.141127586364746,1.091755986213684,-14.95361328125,-106.8572998046875,124.57275390625
19.2099999,1.4173674583435059,-7.046135425567627,0.26336219906806946,-44.2657470703125,-145.7061767578125,91.4154052734375
19.2299999,1.2976573705673218,-8.195352554321289,-0.7613561153411865,-61.09619140625,-182.0526123046875,108.612060546875
19.249999900000002,1.1300631761550903,-9.306262016296387,-2.1547815799713135,-56.21337890625,-186.9964599609375,86.0748291015625
19.269999900000002,0.9576807022094727,-9.794678688049316,-3.9480385780334473,-34.271240234375,-183.990478515625,-0.213623046875
19.2899999,0.7661445140838623,-10.110713958740234,-5.966350555419922,-29.7088623046875,-191.2689208984375,-4.94384765625
19.3099999,0.5554547905921936,-10.223240852355957,-7.953537940979004,-76.507568359375,-203.9337158203125,45.745849609375
19.3299999,0.35673606395721436,-9.816226959228516,-10.359710693359375,-90.4998779296875,-211.4410400390625,-5.615234375
19.3499999,0.22026655077934265,-9.610325813293457,-12.662932395935059,-34.0423583984375,-173.76708984375,-63.9190673828125
19.3699999,0.16759411990642548,-9.430760383605957,-14.554351806640625,-10.6353759765625,-117.3095703125,-54.0313720703125
19.3899999,0.2801215946674347,-8.829815864562988,-16.302120208740234,-56.915283203125,-142.3187255859375,-43.4112548828125
19.409999900000003,0.49799394607543945,-8.111555099487305,-16.95334243774414,-52.398681640625,-123.4130859375,-73.3642578125
19.429999900000002,0.6488286852836609,-7.7643961906433105,-17.223886489868164,-13.73291015625,-80.535888671875,-95.7489013671875
19.4499999,0.6967126727104187,-7.4986395835876465,-16.802507400512695,3.6773681640625,-64.0411376953125,-106.9793701171875
19.4699999,0.6248866319656372,-7.003039836883545,-15.456966400146484,6.6070556640625,-49.468994140625,-126.556396484375
19.4899999,0.45489832758903503,-6.165069580078125,-13.687650680541992,-28.533935546875,-67.7490234375,-141.632080078125
19.5099999,0.19153612852096558,-5.231330871582031,-11.923124313354492,-49.3621826171875,-81.11572265625,-133.8653564453125
19.5299999,-0.11013327538967133,-4.173093795776367,-10.623072624206543,-30.6243896484375,-64.5599365234375,-141.021728515625
19.5499999,-0.47405192255973816,-3.3255462646484375,-10.110713958740234,-15.3045654296875,-54.01611328125,-158.294677734375
19.5699999,-0.8331822156906128,-2.4636335372924805,-10.077195167541504,-36.590576171875,-50.2777099609375,-168.1060791015625
19.589999900000002,-1.1324573755264282,-1.702277421951294,-10.675745010375977,-63.5833740234375,-55.511474609375,-165.22216796875
19.609999900000002,-1.3862427473068237,-1.0127472877502441,-11.477803230285645,-44.6929931640625,-32.470703125,-156.402587890625
19.6299999,-1.6208745241165161,-0.6967126727104187,-12.322956085205078,-5.767822265625,2.2735595703125,-163.0859375
19.6499999,-1.8339585065841675,-0.2968810200691223,-12.916718482971191,-26.85546875,5.401611328125,-189.3463134765625
19.6699999,-2.0422539710998535,-0.10055647045373917,-13.21359920501709,-81.329345703125,-4.7760009765625,-182.373046875
19.6899999,-2.212242364883423,0.3064578175544739,-13.606247901916504,-95.367431640625,-3.570556640625,-168.975830078125
19.7099999,-2.3535003662109375,0.7829039692878723,-14.200010299682617,-54.99267578125,32.2723388671875,-173.3551025390625
19.7299999,-2.4372973442077637,1.4748282432556152,-14.607024192810059,-31.524658203125,80.0933837890625,-180.2215576171875
19.749999900000002,-2.492363929748535,2.2146365642547607,-14.867992401123047,-57.80029296875,71.9146728515625,-164.00146484375
19.769999900000002,-2.516305923461914,3.3039982318878174,-14.721946716308594,-80.2764892578125,57.769775390625,-143.890380859375
19.7899999,-2.4684219360351562,4.6040496826171875,-14.741100311279297,-71.441650390625,71.136474609375,-136.993408203125
19.8099999,-2.3726539611816406,5.868188381195068,-14.846445083618164,-39.215087890625,115.997314453125,-114.2578125
19.8299999,-2.22660756111145,7.086836814880371,-14.958971977233887,-19.256591796875,142.02880859375,-84.991455078125
19.8499999,-2.0183119773864746,8.286332130432129,-14.815320014953613,-35.430908203125,129.669189453125,-65.4449462890625
19.8699999,-1.7860745191574097,9.21288776397705,-14.302961349487305,-41.1529541015625,132.171630859375,-40.1763916015625
19.8899999,-1.5658079385757446,9.96945571899414,-13.67807388305664,-34.2864990234375,148.956298828125,-9.70458984375
19.909999900000003,-1.381454348564148,10.500968933105469,-13.002909660339355,-35.6292724609375,160.7818603515625,13.916015625
19.929999900000002,-1.1204863786697388,10.572794914245605,-11.202469825744629,-35.919189453125,167.0989990234375,65.6585693359375
19.9499999,-0.993593692779541,10.105925559997559,-10.103530883789062,-50.4608154296875,165.985107421875,81.3751220703125
19.9699999,-0.8547300100326538,9.555258750915527,-8.96149730682373,-65.643310546875,163.543701171875,92.59033203125
19.9899999,-0.6967126727104187,8.813055992126465,-7.687781810760498,-69.4427490234375,168.5943603515625,114.07470703125
20.0099999,-0.4405331015586853,8.317456245422363,-6.574477672576904,-75.0885009765625,154.4647216796875,128.2501220703125
