# Time (seconds),Accel_X,Accel_Y,Accel_Z,Gyro_X,Gyro_Y,Gyro_Z
0.0099999,-10.668562889099121,-1.170764684677124,-0.9576807022094727,-15.3656005859375,36.2701416015625,22.8729248046875
0.029999900000000003,-10.6709566116333,-1.314416766166687,-1.072602391242981,-20.7672119140625,40.7867431640625,25.970458984375
0.0499999,-10.608707427978516,-1.7405846118927002,-1.1468225717544556,-26.3214111328125,43.4722900390625,11.199951171875
0.0699999,-10.467450141906738,-2.315192937850952,-1.0319008827209473,-26.3519287109375,57.403564453125,-0.48828125
0.08999990000000001,-10.323798179626465,-2.736572504043579,-0.9361328482627869,-30.0140380859375,59.1888427734375,-7.2021484375
0.10999990000000001,-10.158597946166992,-2.9951462745666504,-0.6991068720817566,-36.4227294921875,59.6466064453125,-2.2125244140625
0.1299999,-9.93593692779541,-3.1196448802948,-0.3495534360408783,-37.1246337890625,64.14794921875,-3.6468505859375
0.14999990000000002,-9.703699111938477,-3.117250680923462,-0.0933738648891449,-37.5213623046875,55.2978515625,-17.181396484375
0.1699999,-9.461885452270508,-3.069366693496704,0.11252748221158981,-37.445068359375,48.8739013671875,-19.2108154296875
0.1899999,-9.27034854888916,-2.9520506858825684,0.10773907601833344,-40.7562255859375,48.7823486328125,-7.7056884765625
0.20999990000000002,-9.167398452758789,-2.8634653091430664,-0.09576806426048279,-43.6859130859375,52.30712890625,-2.3956298828125
0.2299999,-9.169792175292969,-2.738966703414917,-0.49799394607543945,-46.9970703125,57.6324462890625,-8.11767578125
0.2499999,-9.153033256530762,-2.7533318996429443,-0.6703764796257019,-41.412353515625,67.8253173828125,-9.765625
0.2699999,-9.026140213012695,-2.655169725418091,-0.47644615173339844,-35.0799560546875,63.3697509765625,-11.444091796875
0.28999990000000003,-8.83699893951416,-2.3127987384796143,-0.1364694982767105,-45.0286865234375,21.453857421875,-12.4053955078125
0.3099999,-8.643068313598633,-1.922544002532959,0.10055647045373917,-45.623779296875,-3.7384033203125,2.8839111328125
0.3299999,-8.513781547546387,-1.5610195398330688,0.038307227194309235,-29.6783447265625,8.0718994140625,10.68115234375
0.34999990000000003,-8.485051155090332,-1.5514427423477173,-0.26096799969673157,-18.7835693359375,20.050048828125,1.373291015625
0.3699999,-8.556877136230469,-1.7477672100067139,-0.6224924325942993,-35.5987548828125,0.2288818359375,-18.8140869140625
0.3899999,-8.695740699768066,-1.9105730056762695,-0.8140285611152649,-34.9273681640625,-18.463134765625,-34.5001220703125
0.40999990000000003,-8.925583839416504,-1.9321208000183105,-0.9720458984375,-25.5584716796875,-17.5018310546875,-21.4385986328125
0.4299999,-9.215282440185547,-1.7884687185287476,-1.1468225717544556,-24.688720703125,-14.068603515625,-12.3748779296875
0.4499999,-9.502586364746094,-1.556231141090393,-1.2689268589019775,-27.2979736328125,-16.4642333984375,-25.9552001953125
0.4699999,-9.691728591918945,-1.41257905960083,-1.259350061416626,-20.7672119140625,-25.0396728515625,-34.5458984375
0.4899999,-9.761159896850586,-1.2952631711959839,-1.1204863786697388,-19.5465087890625,-26.6265869140625,-26.702880859375
0.5099999,-9.765948295593262,-1.0414776802062988,-0.9145850539207458,-13.1683349609375,-27.0233154296875,-28.839111328125
0.5299999,-9.727641105651855,-0.8547300100326538,-0.6655880808830261,-4.3792724609375,-28.6712646484375,-34.8968505859375
0.5499999,-9.682151794433594,-0.646434485912323,-0.2537853717803955,3.021240234375,-30.731201171875,-37.841796875
0.5699999,-9.653421401977539,-0.26815059781074524,0.2513911724090576,12.420654296875,-39.6881103515625,-37.261962890625
0.5899998999999999,-9.66299819946289,0.24181437492370605,0.751779317855835,22.308349609375,-58.9599609375,-17.669677734375
0.6099998999999999,-9.765948295593262,0.6919242739677429,1.0055646896362305,33.6151123046875,-70.6634521484375,3.2958984375
0.6299999,-9.964667320251465,0.9097966551780701,0.9911994934082031,51.1322021484375,-58.65478515625,5.8135986328125
0.6499999,-10.228029251098633,0.9624691009521484,0.7805097699165344,63.1103515625,-40.313720703125,-12.26806640625
0.6699999,-10.467450141906738,0.9481038451194763,0.5195417404174805,63.8427734375,-40.3900146484375,-8.1787109375
0.6899999,-10.60152530670166,1.2306196689605713,0.5027823448181152,75.286865234375,-41.168212890625,16.29638671875
0.7099999,-10.627861022949219,1.3407529592514038,0.3711012601852417,83.0230712890625,-47.027587890625,40.679931640625
0.7299998999999999,-10.60152530670166,1.0342950820922852,0.1364694982767105,81.4361572265625,-34.1644287109375,35.858154296875
0.7499998999999999,-10.618284225463867,0.49559974670410156,-0.3902548849582672,77.0416259765625,-9.3994140625,-8.819580078125
0.7699999,-10.63743782043457,-0.1604115068912506,-0.993593692779541,78.55224609375,11.871337890625,-24.3988037109375
0.7899999,-10.599130630493164,-0.17238251864910126,-1.455674648284912,82.672119140625,21.728515625,-12.969970703125
0.8099999,-10.57040023803711,0.2298433631658554,-1.800439715385437,85.906982421875,16.9219970703125,9.918212890625
0.8299999,-10.536881446838379,0.5339069962501526,-2.1164743900299072,79.1168212890625,19.2718505859375,31.1279296875
0.8499998999999999,-10.527304649353027,0.37828385829925537,-2.38462495803833,72.7691650390625,43.64013671875,20.6298828125
0.8699998999999999,-10.469843864440918,-0.21308395266532898,-2.5115175247192383,63.2476806640625,58.89892578125,-1.52587890625
0.8899999,-10.32858657836914,-0.7972691655158997,-2.360682964324951,52.978515625,46.875,-9.674072265625
0.9099999,-10.15141487121582,-0.9672574996948242,-2.0638017654418945,46.4324951171875,26.3824462890625,4.6539306640625
0.9299999,-10.029311180114746,-0.7469909191131592,-1.8100165128707886,50.96435546875,25.9246826171875,26.2451171875
0.9499999,-9.96945571899414,-0.6967126727104187,-1.7405846118927002,51.3916015625,38.6505126953125,42.1142578125
0.9699998999999999,-9.921571731567383,-1.039083480834961,-1.742978811264038,43.39599609375,43.8385009765625,29.6783447265625
0.9899998999999999,-9.873687744140625,-1.6041151285171509,-1.8483237028121948,29.1290283203125,28.13720703125,2.2125244140625
1.0099999,-9.837775230407715,-2.1284453868865967,-1.9536685943603516,23.6358642578125,22.369384765625,3.47900390625
1.0299999,-9.86889934539795,-2.389413356781006,-2.3080103397369385,22.9644775390625,29.7088623046875,27.28271484375
1.0499999,-9.8784761428833,-2.741360902786255,-2.631227731704712,14.404296875,39.337158203125,40.7257080078125
1.0699999,-9.856928825378418,-3.205836057662964,-3.1028854846954346,-7.4920654296875,28.6407470703125,21.881103515625
1.0899999,-9.737217903137207,-3.9169139862060547,-3.4548330307006836,-27.801513671875,21.3775634765625,6.6375732421875
1.1099999,-9.583989143371582,-4.458003520965576,-3.6942532062530518,-36.1175537109375,35.552978515625,10.7879638671875
1.1299999,-9.421183586120605,-4.568136692047119,-3.734954595565796,-36.865234375,46.6461181640625,15.4571533203125
1.1499999,-9.184157371520996,-4.7836151123046875,-3.3016040325164795,-41.900634765625,46.295166015625,24.0936279296875
1.1699998999999999,-8.932766914367676,-5.061342239379883,-2.669534921646118,-66.192626953125,29.571533203125,8.3160400390625
1.1899998999999999,-8.698134422302246,-5.384559631347656,-1.8579005002975464,-76.7364501953125,26.2908935546875,-24.4140625
1.2099999,-8.595184326171875,-5.552153587341309,-1.1180921792984009,-70.6787109375,33.4930419921875,-28.4423828125
1.2299999,-8.81784439086914,-5.327098846435547,0.06224924325942993,-63.2781982421875,23.2696533203125,-6.7901611328125
1.2499999,-9.045293807983398,-5.25527286529541,0.5219359993934631,-81.4971923828125,9.857177734375,-34.1033935546875
1.2699999,-9.320627212524414,-5.12119722366333,0.8978256583213806,-82.4127197265625,-2.25830078125,-60.6689453125
1.2899999,-9.59835433959961,-4.774038314819336,0.9241618514060974,-73.516845703125,-2.532958984375,-38.6505126953125
1.3099999,-9.847352027893066,-4.151545524597168,0.751779317855835,-63.1103515625,0.1983642578125,-17.8375244140625
1.3299999,-10.002974510192871,-3.6320040225982666,0.4884171485900879,-63.1256103515625,0.4119873046875,-24.59716796875
1.3499999,-10.0580415725708,-3.4117374420166016,0.2082955539226532,-72.1282958984375,-9.5062255859375,-43.9300537109375
1.3699999,-10.010157585144043,-3.2968156337738037,0.06224924325942993,-65.2923583984375,-6.927490234375,-52.4444580078125
1.3899999,-9.907206535339355,-2.9448680877685547,-0.028730420395731926,-52.886962890625,-5.5999755859375,-49.072265625
1.4099999,-9.739612579345703,-2.4133553504943848,0.028730420395731926,-46.8597412109375,-13.153076171875,-33.38623046875
1.4299998999999999,-9.536105155944824,-1.9991583824157715,0.14604631066322327,-48.4771728515625,-28.6712646484375,-21.7132568359375
1.4499999,-9.361329078674316,-1.7956513166427612,0.24420857429504395,-46.661376953125,-37.0330810546875,-34.8358154296875
1.4699999,-9.308655738830566,-1.680729627609253,0.21547815203666687,-34.7747802734375,-32.7301025390625,-57.5408935546875
1.4899999,-9.394847869873047,-1.455674648284912,0.1364694982767105,-22.8118896484375,-26.06201171875,-56.1981201171875
1.5099999,-9.500192642211914,-0.9552865028381348,0.26096799969673157,-12.4053955078125,-22.6593017578125,-37.29248046875
1.5299999,-9.493009567260742,-0.45250412821769714,0.6368576288223267,-11.7340087890625,-35.8428955078125,-21.6827392578125
1.5499999,-9.423578262329102,0.028730420395731926,1.091755986213684,-6.011962890625,-58.5784912109375,-27.4505615234375
1.5699999,-9.387664794921875,0.2849099934101105,1.338358759880066,7.598876953125,-67.5811767578125,-27.8778076171875
1.5899999,-9.552865028381348,0.6392518281936646,1.2066776752471924,18.9056396484375,-56.7474365234375,-7.7056884765625
1.6099999,-9.818621635437012,0.8571242094039917,0.9433154463768005,29.449462890625,-40.8477783203125,20.9808349609375
1.6299999,-10.122684478759766,0.47165772318840027,0.43095630407333374,19.4091796875,-46.93603515625,34.9578857421875
1.6499999,-10.3549222946167,-0.2106897532939911,0.023942016065120697,20.3094482421875,-38.51318359375,-9.58251953125
1.6699999,-10.503362655639648,-0.9169792532920837,-0.26815059781074524,32.7301025390625,-6.53076171875,-57.4798583984375
1.6899998999999999,-10.611102104187012,-0.8906430602073669,-0.2801215946674347,44.6624755859375,10.833740234375,-47.8057861328125
1.7099999,-10.615890502929688,0.031124621629714966,0.08379705995321274,49.560546875,-3.4942626953125,0.8392333984375
1.7299999,-10.457873344421387,1.3766659498214722,0.849941611289978,65.4449462890625,-23.1170654296875,36.62109375
1.7499999,-10.228029251098633,2.1811177730560303,1.4915876388549805,74.2340087890625,-38.3758544921875,50.6591796875
1.7699999,-10.070012092590332,2.293645143508911,1.7549498081207275,77.606201171875,-38.055419921875,38.116455078125
1.7899999,-10.141838073730469,2.006340980529785,1.4221558570861816,90.2252197265625,-26.3519287109375,22.94921875
1.8099999,-10.383652687072754,1.5753847360610962,0.7637503147125244,105.28564453125,-8.6822509765625,36.07177734375
1.8299999,-10.6709566116333,1.1204863786697388,0.028730420395731926,112.0452880859375,1.7852783203125,59.051513671875
1.8499999,-10.92953109741211,0.5410895943641663,-0.7230489253997803,100.311279296875,-3.9215087890625,50.445556640625
1.8699999,-11.094730377197266,-0.21547815203666687,-1.3431471586227417,92.498779296875,7.0953369140625,24.8565673828125
1.8899999,-11.202469825744629,-0.9145850539207458,-1.9369091987609863,98.0682373046875,33.2183837890625,8.5906982421875
1.9099999,-11.233593940734863,-1.292868971824646,-2.3343467712402344,96.466064453125,47.9736328125,13.153076171875
1.9299998999999999,-11.128249168395996,-1.5131354331970215,-2.406172752380371,90.911865234375,46.1883544921875,20.8587646484375
1.9499999,-10.922348022460938,-1.5729905366897583,-2.3080103397369385,77.1331787109375,32.4554443359375,14.6331787109375
1.9699999,-10.66137981414795,-1.7501614093780518,-2.1356279850006104,67.9473876953125,31.2957763671875,9.918212890625
1.9899999,-10.438719749450684,-1.8531121015548706,-2.145204782485962,63.0645751953125,39.9322509765625,13.0615234375
2.0099999,-10.292673110961914,-1.9823989868164062,-2.293645143508911,56.060791015625,46.5545654296875,21.209716796875
2.0299999,-10.15141487121582,-2.209848165512085,-2.3582887649536133,44.9676513671875,49.468994140625,23.468017578125
2.0499999,-10.02452278137207,-2.4612393379211426,-2.367865562438965,30.914306640625,43.853759765625,13.12255859375
2.0699999,-9.928754806518555,-2.650381326675415,-2.387019157409668,17.39501953125,34.5306396484375,10.589599609375
2.0899999,-9.885659217834473,-2.7437551021575928,-2.449268341064453,10.7269287109375,38.665771484375,22.705078125
2.1099999,-9.880870819091797,-2.8802247047424316,-2.5977089405059814,3.082275390625,46.3409423828125,33.3404541015625
2.1299999,-9.849745750427246,-3.205836057662964,-2.669534921646118,-11.810302734375,45.83740234375,20.9197998046875
2.1499999,-9.763554573059082,-3.5242648124694824,-2.5330653190612793,-26.1688232421875,39.6728515625,-2.1820068359375
2.1699999,-9.636661529541016,-3.6176388263702393,-2.3080103397369385,-36.407470703125,30.517578125,-2.2735595703125
2.1899999,-9.569623947143555,-3.550601005554199,-2.1571757793426514,-42.9840087890625,27.7862548828125,21.484375
2.2099999,-9.545681953430176,-3.8953661918640137,-2.252943754196167,-54.9774169921875,39.306640625,27.6641845703125
2.2299999,-9.473855972290039,-4.400542736053467,-2.229001760482788,-63.2476806640625,67.19970703125,-27.4200439453125
2.2499999,-9.308655738830566,-4.908113479614258,-1.9249382019042969,-73.9593505859375,65.2313232421875,-70.2362060546875
2.2699999,-9.045293807983398,-4.7836151123046875,-1.3311761617660522,-81.0699462890625,33.0352783203125,-45.318603515625
2.2899999,-8.803479194641113,-4.084507942199707,-0.7158663272857666,-82.4127197265625,7.7056884765625,2.3193359375
2.3099999,-8.592789649963379,-3.584120035171509,-0.20350714027881622,-78.460693359375,18.00537109375,14.0380859375
2.3299999,-8.518569946289062,-3.488351821899414,-0.002394201699644327,-83.4503173828125,20.9197998046875,-25.57373046875
2.3499999,-8.537723541259766,-3.7277719974517822,0.11971008777618408,-87.371826171875,6.0577392578125,-50.1251220703125
2.3699999,-8.647856712341309,-3.8738183975219727,0.17956513166427612,-84.65576171875,-6.622314453125,-30.6243896484375
2.3899999,-8.834604263305664,-3.9240965843200684,0.07422025501728058,-77.1484375,-4.974365234375,-16.41845703125
2.4099999,-9.040505409240723,-3.928884983062744,-0.12928688526153564,-69.8394775390625,8.056640625,-44.8150634765625
2.4299999,-9.198522567749023,-3.892971992492676,-0.17956513166427612,-61.431884765625,13.4429931640625,-79.9560546875
2.4499999,-9.306262016296387,-3.581725835800171,-0.05027823522686958,-57.2052001953125,-2.5177001953125,-72.235107421875
2.4699999,-9.366117477416992,-2.942473888397217,0.15801730751991272,-61.431884765625,-20.99609375,-37.5213623046875
2.4899999,-9.385271072387695,-2.2242133617401123,0.28969839215278625,-51.6510009765625,-17.7001953125,-30.82275390625
2.5099999,-9.332598686218262,-1.824381709098816,0.27054479718208313,-39.825439453125,-9.4757080078125,-46.112060546875
2.5299999,-9.23443603515625,-1.6352397203445435,0.21547815203666687,-34.393310546875,-15.472412109375,-57.92236328125
2.5499999,-9.167398452758789,-1.4173674583435059,0.2537853717803955,-32.1197509765625,-30.2276611328125,-47.698974609375
2.5699999,-9.181763648986816,-1.05105459690094,0.31124621629714966,-31.79931640625,-38.6199951171875,-24.1546630859375
2.5899999,-9.294290542602539,-0.7015010714530945,0.26575639843940735,-25.81787109375,-36.31591796875,-9.857177734375
2.6099999,-9.437943458557129,-0.6272808313369751,0.19153612852096558,-13.1988525390625,-25.6805419921875,-12.0849609375
2.6299999,-9.586383819580078,-0.7757213711738586,0.10055647045373917,-6.3018798828125,-25.482177734375,-23.6358642578125
2.6499999,-9.782708168029785,-0.8188169598579407,0.043095629662275314,0.42724609375,-31.3720703125,-28.6407470703125
2.6699999,-9.95748519897461,-0.7541735172271729,-0.004788403399288654,4.5623779296875,-30.3802490234375,-6.5460205078125
2.6899999,-10.11550235748291,-0.6727706789970398,-0.0694318488240242,6.40869140625,-23.529052734375,11.6729736328125
2.7099999,-10.218452453613281,-0.6129156351089478,-0.1173158809542656,17.15087890625,-20.8282470703125,-7.5225830078125
2.7299999,-10.299856185913086,-0.5530605912208557,-0.021547814831137657,29.8004150390625,-22.88818359375,-24.2919921875
2.7499999,-10.553641319274902,-0.22744916379451752,0.12449848651885986,28.7933349609375,-39.4134521484375,16.0369873046875
2.7699999,-10.697293281555176,-0.17956513166427612,0.06703764945268631,48.4161376953125,-23.13232421875,7.99560546875
2.7899999,-10.771512985229492,-0.2944868206977844,-0.040701430290937424,58.4564208984375,-7.568359375,-14.678955078125
2.8099999,-10.83855152130127,-0.30885201692581177,-0.043095629662275314,60.1043701171875,-14.801025390625,-26.824951171875
2.8299999,-10.893617630004883,-0.22266076505184174,-0.05267243832349777,56.7474365234375,-29.8004150390625,-3.5400390625
2.8499999,-10.96304988861084,-0.090979665517807,-0.12928688526153564,62.3321533203125,-22.5677490234375,13.9007568359375
2.8699999,-11.010933876037598,-0.08379705995321274,-0.5554547905921936,57.8765869140625,-5.6304931640625,-0.0762939453125
2.8899999,-11.022904396057129,-0.2322375625371933,-1.0462661981582642,54.01611328125,12.939453125,-20.9197998046875
2.9099999,-10.939107894897461,-0.3519476354122162,-1.5275006294250488,54.13818359375,24.200439453125,-15.56396484375
2.9299999,-10.797849655151367,-0.16998831927776337,-1.843535304069519,61.9354248046875,26.9622802734375,4.0435791015625
2.9499999,-10.582371711730957,0.1412578970193863,-1.9991583824157715,72.5250244140625,29.8919677734375,17.4407958984375
2.9699999,-10.335768699645996,0.35913026332855225,-2.027888774871826,77.606201171875,30.0445556640625,23.6053466796875
2.9899999,-10.089165687561035,0.22505496442317963,-2.030282974243164,77.056884765625,24.871826171875,30.853271484375
3.0099999,-9.921571731567383,-0.11252748221158981,-2.0614075660705566,74.859619140625,19.7601318359375,33.6761474609375
3.0299999,-9.864110946655273,-0.6057330369949341,-2.231395959854126,73.4100341796875,20.01953125,35.614013671875
3.0499999,-9.892841339111328,-1.1899182796478271,-2.4827871322631836,73.3489990234375,29.1900634765625,38.63525390625
3.0699999,-9.962273597717285,-1.6160861253738403,-2.6671407222747803,68.2220458984375,39.1845703125,33.0352783203125
3.0899999,-10.02452278137207,-1.9153614044189453,-2.7006595134735107,63.41552734375,36.56005859375,29.1900634765625
3.1099999,-10.070012092590332,-2.078166961669922,-2.6455929279327393,58.685302734375,27.862548828125,34.2559814453125
3.1299999,-10.086771965026855,-2.1284453868865967,-2.5546131134033203,54.412841796875,32.3944091796875,35.6903076171875
3.1499999,-10.022128105163574,-2.212242364883423,-2.456450939178467,48.919677734375,44.891357421875,27.557373046875
3.1699999,-9.880870819091797,-2.279279947280884,-2.3942017555236816,39.703369140625,44.0673828125,17.3187255859375
3.1899999,-9.646238327026367,-2.3582887649536133,-2.185906171798706,33.538818359375,37.506103515625,13.092041015625
3.2099999,-9.411606788635254,-2.346317768096924,-2.0590133666992188,29.083251953125,31.036376953125,12.847900390625
3.2299999,-9.232041358947754,-2.4612393379211426,-1.9943699836730957,24.23095703125,34.9578857421875,15.3656005859375
3.2499999,-9.117119789123535,-2.7772738933563232,-2.183511972427368,14.3585205078125,40.5120849609375,11.8408203125
3.2699999,-9.016563415527344,-3.426102638244629,-2.4468741416931152,-0.335693359375,40.2984619140625,2.1209716796875
3.2899999,-8.884882926940918,-4.242525577545166,-2.695871114730835,-13.2904052734375,37.109375,-12.6953125
3.3099999,-8.738836288452148,-5.051765441894531,-2.808398485183716,-29.754638671875,26.67236328125,-15.7623291015625
3.3299999000000002,-8.643068313598633,-5.552153587341309,-2.832340717315674,-42.938232421875,14.404296875,-17.7154541015625
3.3499999,-8.56645393371582,-5.9735331535339355,-2.7772738933563232,-55.145263671875,11.688232421875,-10.528564453125
3.3699999,-8.497021675109863,-6.260837554931641,-2.5929205417633057,-67.8863525390625,14.6331787109375,-15.5181884765625
3.3899999,-8.432378768920898,-6.433219909667969,-2.31758713722229,-80.596923828125,5.859375,-32.623291015625
3.4099999,-8.403648376464844,-6.308721542358398,-1.9560627937316895,-87.0208740234375,-7.049560546875,-33.966064453125
3.4299999,-8.44434928894043,-6.033388137817383,-1.577778935432434,-86.5325927734375,-11.3525390625,-13.8702392578125
3.4499999,-8.556877136230469,-5.765237808227539,-1.2330138683319092,-86.12060546875,-7.9498291015625,-5.035400390625
3.4699999,-8.712499618530273,-5.635950565338135,-0.9744400978088379,-97.1527099609375,-12.5732421875,-22.4761962890625
3.4899999,-8.887276649475098,-5.458779811859131,-0.608127236366272,-97.0458984375,-17.76123046875,-40.771484375
3.5099999,-9.102754592895508,-4.991910457611084,-0.2777273952960968,-90.9271240234375,-28.5186767578125,-25.93994140625
3.5299999,-9.330204010009766,-4.3191399574279785,0.07182604819536209,-83.9385986328125,-34.698486328125,5.0506591796875
3.5499999,-9.543288230895996,-3.622427225112915,0.33758243918418884,-85.8306884765625,-36.9720458984375,10.6353759765625
3.5699999,-9.696516990661621,-3.177105665206909,0.40222588181495667,-86.2579345703125,-42.3126220703125,-7.62939453125
3.5899999,-9.706093788146973,-2.9951462745666504,0.4165911078453064,-79.65087890625,-37.6739501953125,-11.5814208984375
3.6099999,-9.59596061706543,-2.846705913543701,0.3495534360408783,-73.211669921875,-33.8134765625,-9.979248046875
3.6299999,-9.435548782348633,-2.5665841102600098,0.3064578175544739,-73.0743408203125,-37.8570556640625,-13.73291015625
3.6499999,-9.253589630126953,-2.2912509441375732,0.3256114423274994,-73.4100341796875,-41.290283203125,-15.838623046875
3.6699999,-9.14585018157959,-1.965639591217041,0.40940847992897034,-67.19970703125,-38.9556884765625,-16.357421875
3.6899999,-9.155426979064941,-1.6184803247451782,0.4692635238170624,-59.3109130859375,-38.6810302734375,-18.646240234375
3.7099999,-9.220070838928223,-1.4317326545715332,0.5123591423034668,-55.6182861328125,-36.6363525390625,-14.70947265625
3.7299999,-9.275136947631836,-1.3096283674240112,0.569819986820221,-54.1534423828125,-31.7840576171875,-20.477294921875
3.7499999,-9.289502143859863,-1.158793568611145,0.6607996821403503,-47.9888916015625,-31.4788818359375,-32.40966796875
3.7699999,-9.241618156433105,-0.9864110946655273,0.8690952062606812,-37.9791259765625,-35.186767578125,-29.571533203125
3.7899999,-9.220070838928223,-0.6560112833976746,1.1468225717544556,-30.1971435546875,-42.6177978515625,-23.37646484375
3.8099999,-9.279925346374512,-0.22505496442317963,1.4508862495422363,-23.6053466796875,-48.8739013671875,-21.2249755859375
3.8299999000000002,-9.39245319366455,0.10055647045373917,1.7381904125213623,-17.27294921875,-51.94091796875,-12.451171875
3.8499999,-9.576807022094727,0.40462008118629456,1.8291701078414917,-13.3056640625,-60.1043701171875,-10.1776123046875
3.8699999,-9.785101890563965,0.5578489899635315,1.8267759084701538,-2.8533935546875,-57.4493408203125,-15.93017578125
3.8899999,-10.007762908935547,0.8834604024887085,1.9560627937316895,15.31982421875,-41.0003662109375,-26.275634765625
3.9099999,-10.268731117248535,1.4915876388549805,2.2146365642547607,34.5001220703125,-43.792724609375,-20.172119140625
3.9299999,-10.493785858154297,2.3127987384796143,2.734178304672241,50.933837890625,-61.981201171875,16.7694091796875
3.9499999,-10.623072624206543,3.0573954582214355,3.3494882583618164,74.4171142578125,-73.2421875,44.4488525390625
3.9699999,-10.714052200317383,3.064578056335449,3.514688014984131,86.5478515625,-77.69775390625,48.1109619140625
3.9899999,-10.769119262695312,2.4157495498657227,3.224989652633667,86.700439453125,-59.234619140625,18.2342529296875
4.0099999,-10.862493515014648,1.4077905416488647,2.5043349266052246,97.0611572265625,-22.735595703125,-16.78466796875
4.029999900000001,-10.92953109741211,0.5985504388809204,1.647210717201233,100.8453369140625,-4.0435791015625,-19.317626953125
4.0499999,-10.862493515014648,0.4429273009300232,1.0869675874710083,109.0240478515625,0.7476806640625,-13.4429931640625
4.069999900000001,-10.613495826721191,0.7374141216278076,1.072602391242981,121.7803955078125,-1.77001953125,-4.119873046875
4.0899999000000005,-10.321403503417969,1.256955862045288,1.3623007535934448,129.6234130859375,-19.3634033203125,6.0577392578125
4.1099999,-10.153809547424316,1.6615760326385498,1.7286136150360107,134.796142578125,-34.210205078125,19.6990966796875
4.1299999000000005,-10.251971244812012,1.7046716213226318,1.8291701078414917,143.1732177734375,-30.5633544921875,32.71484375
4.1499999,-10.584765434265137,1.1276689767837524,1.501164436340332,141.2506103515625,-15.960693359375,39.2608642578125
4.1699999000000005,-10.975020408630371,0.023942016065120697,0.8882488012313843,126.251220703125,1.28173828125,22.15576171875
4.1899999,-11.288661003112793,-1.3479355573654175,0.16759411990642548,107.4066162109375,15.716552734375,-5.06591796875
4.209999900000001,-11.429919242858887,-2.3918075561523438,-0.47644615173339844,89.9658203125,28.778076171875,-24.0325927734375
4.2299999,-11.374852180480957,-2.806004285812378,-0.8020575642585754,83.1146240234375,46.93603515625,-20.8587646484375
4.249999900000001,-11.15697956085205,-2.557007312774658,-0.8020575642585754,78.4912109375,52.490234375,-7.5836181640625
4.2699999,-10.766724586486816,-2.0805611610412598,-0.4141969084739685,69.3511962890625,43.4722900390625,4.974365234375
4.289999900000001,-9.983820915222168,-1.280897855758667,0.47884035110473633,48.8128662109375,15.3961181640625,12.786865234375
4.3099999,-9.835380554199219,-1.1755530834197998,0.5267243981361389,43.1365966796875,24.71923828125,25.3753662109375
4.329999900000001,-9.84256362915039,-1.41257905960083,0.3280056416988373,32.5775146484375,38.0096435546875,33.111572265625
4.3499999,-9.943120002746582,-1.8770540952682495,-0.040701430290937424,11.322021484375,35.552978515625,28.839111328125
4.369999900000001,-10.036493301391602,-2.4372973442077637,-0.3232172429561615,-6.6986083984375,32.28759765625,19.561767578125
4.3899999,-10.08198356628418,-2.8419175148010254,-0.5770025849342346,-21.2554931640625,36.163330078125,22.03369140625
4.409999900000001,-10.113107681274414,-2.827552318572998,-0.7254431247711182,-28.4423828125,42.694091796875,34.5001220703125
4.4299999,-10.11550235748291,-2.5522189140319824,-0.7350199222564697,-36.2396240234375,41.748046875,56.3201904296875
4.449999900000001,-10.08198356628418,-2.2002713680267334,-0.5746083855628967,-44.1741943359375,36.6668701171875,73.5321044921875
4.4699999,-10.007762908935547,-2.070984363555908,-0.2537853717803955,-50.78125,34.5458984375,81.2530517578125
4.489999900000001,-9.909601211547852,-2.229001760482788,0.06703764945268631,-57.220458984375,33.843994140625,82.51953125
4.5099999,-9.75637149810791,-2.736572504043579,0.4357447028160095,-64.422607421875,30.9600830078125,75.653076171875
4.529999900000001,-9.603142738342285,-3.2082302570343018,0.6727706789970398,-75.1495361328125,22.5982666015625,59.4024658203125
4.5499999,-9.509769439697266,-3.5194764137268066,0.7445967197418213,-84.8846435546875,16.90673828125,47.1343994140625
4.569999900000001,-9.560047149658203,-3.56017804145813,0.545877993106842,-86.9140625,27.984619140625,48.6907958984375
4.5899999000000005,-9.801861763000488,-3.734954595565796,0.028730420395731926,-89.996337890625,48.095703125,47.8363037109375
4.609999900000001,-10.134655952453613,-3.936067581176758,-0.2992752194404602,-90.39306640625,84.7320556640625,7.4310302734375
4.6299999000000005,-10.433931350708008,-4.034229755401611,-0.11971008777618408,-93.2159423828125,100.555419921875,-41.168212890625
4.6499999,-10.615890502929688,-3.4548330307006836,0.629675030708313,-98.388671875,74.4781494140625,-47.4395751953125
4.6699999000000005,-10.711658477783203,-2.4660277366638184,1.5705963373184204,-106.4910888671875,40.83251953125,-6.0577392578125
4.6899999,-10.742782592773438,-1.2425906658172607,2.274491548538208,-104.766845703125,42.6788330078125,7.8887939453125
4.709999900000001,-10.687716484069824,-0.3663128614425659,2.583343744277954,-90.2557373046875,63.5528564453125,-28.2745361328125
4.7299999,-10.493785858154297,0.18914192914962769,2.6384103298187256,-84.320068359375,57.373046875,-51.177978515625
4.749999900000001,-10.113107681274414,0.7015010714530945,2.736572504043579,-85.3118896484375,29.541015625,-37.04833984375
4.7699999,-9.591172218322754,1.137245774269104,2.8419175148010254,-84.503173828125,5.035400390625,-13.397216796875
4.789999900000001,-9.050082206726074,1.3766659498214722,2.8634653091430664,-75.4547119140625,-3.662109375,-23.345947265625
4.8099999,-8.604761123657227,1.2880805730819702,2.8419175148010254,-63.018798828125,-9.8724365234375,-53.8787841796875
4.829999900000001,-8.317456245422363,1.1851298809051514,2.8610711097717285,-54.3975830078125,-28.80859375,-71.1822509765625
4.8499999,-8.248024940490723,1.3407529592514038,2.9089550971984863,-53.3447265625,-56.4727783203125,-60.6842041015625
4.869999900000001,-8.348581314086914,1.7070658206939697,2.96162748336792,-56.70166015625,-71.10595703125,-40.771484375
4.8899999,-8.564059257507324,2.0829553604125977,2.806004285812378,-49.31640625,-71.8231201171875,-41.0003662109375
4.909999900000001,-8.813055992126465,2.274491548538208,2.5546131134033203,-38.3758544921875,-66.9403076171875,-55.0384521484375
4.9299999,-9.01895809173584,2.382230758666992,2.3535003662109375,-24.2767333984375,-59.112548828125,-61.8743896484375
4.949999900000001,-9.198522567749023,2.6575639247894287,2.3511061668395996,-10.0250244140625,-59.722900390625,-56.0760498046875
4.9699999,-9.320627212524414,3.1675288677215576,2.5761611461639404,7.9803466796875,-68.8629150390625,-40.802001953125
4.989999900000001,-9.337387084960938,3.337517261505127,3.0310592651367188,28.3660888671875,-77.2857666015625,-15.0146484375
5.0099999,-9.246406555175781,3.155557870864868,3.464409828186035,46.1578369140625,-86.578369140625,-23.1781005859375
5.029999900000001,-9.227252960205078,2.8993782997131348,3.7277719974517822,59.0057373046875,-92.34619140625,-56.2744140625
5.0499999,-9.361329078674316,2.741360902786255,3.5889084339141846,65.032958984375,-89.630126953125,-45.2880859375
5.069999900000001,-9.619902610778809,2.873042106628418,3.335123062133789,82.8704833984375,-62.713623046875,-3.47900390625
5.0899999000000005,-9.86889934539795,2.964021682739258,3.0334534645080566,93.26171875,-43.3349609375,9.979248046875
5.109999900000001,-9.943120002746582,2.80361008644104,2.9951462745666504,91.949462890625,-43.5791015625,-13.48876953125
5.1299999000000005,-9.861717224121094,2.3798365592956543,3.222595453262329,95.27587890625,-45.0286865234375,-30.94482421875
5.1499999,-9.80904483795166,2.1787235736846924,3.466804027557373,103.240966796875,-42.6788330078125,-23.712158203125
5.1699999000000005,-9.835380554199219,2.2673089504241943,3.5889084339141846,114.4561767578125,-35.308837890625,-7.6446533203125
5.1899999,-9.895236015319824,2.31758713722229,3.5889084339141846,123.291015625,-24.9481201171875,2.3956298828125
5.209999900000001,-9.916783332824707,2.1068975925445557,3.426102638244629,118.3929443359375,-28.25927734375,-8.36181640625
5.2299999,-9.93354320526123,1.6304513216018677,3.1531636714935303,112.030029296875,-26.763916015625,-28.0914306640625
5.249999900000001,-10.08198356628418,1.2832920551300049,2.7437551021575928,110.931396484375,-14.8773193359375,-38.360595703125
5.2699999,-10.395624160766602,1.2401964664459229,2.2409727573394775,118.2098388671875,4.8065185546875,-26.092529296875
5.289999900000001,-10.680533409118652,1.2090718746185303,1.9967641830444336,122.7264404296875,23.284912109375,0.091552734375
5.3099999,-10.886435508728027,1.0654197931289673,1.8914192914962769,113.76953125,17.364501953125,0.67138671875
5.329999900000001,-10.989385604858398,0.5961562395095825,1.7980455160140991,94.757080078125,3.11279296875,-15.655517578125
5.3499999,-11.034875869750977,-0.0454898327589035,1.6519991159439087,90.2557373046875,22.39990234375,-18.6309814453125
5.369999900000001,-11.128249168395996,-0.5123591423034668,1.2521674633026123,82.9315185546875,47.54638671875,-10.0250244140625
5.3899999,-11.140220642089844,-0.9720458984375,0.9193734526634216,66.0552978515625,54.779052734375,0.030517578125
5.409999900000001,-11.037269592285156,-1.4077905416488647,0.7661445140838623,46.0968017578125,49.8199462890625,-5.2947998046875
5.4299999,-10.898406028747559,-1.7573440074920654,0.6919242739677429,32.7606201171875,42.0684814453125,-21.8505859375
5.449999900000001,-10.824186325073242,-1.920149803161621,0.6153098344802856,28.1829833984375,49.01123046875,-17.51708984375
5.4699999,-10.836156845092773,-1.8531121015548706,0.4429273009300232,19.683837890625,55.7098388671875,2.9754638671875
5.489999900000001,-10.903194427490234,-1.9560627937316895,0.1364694982767105,-0.79345703125,49.0875244140625,17.425537109375
5.5099999,-10.991780281066895,-2.4612393379211426,-0.33758243918418884,-31.280517578125,43.9910888671875,2.3040771484375
5.529999900000001,-11.061211585998535,-2.786850690841675,-0.706289529800415,-43.212890625,64.666748046875,-33.3404541015625
5.5499999,-11.025299072265625,-2.6647465229034424,-0.6153098344802856,-37.7044677734375,73.7152099609375,-22.2930908203125
5.569999900000001,-10.898406028747559,-1.764526605606079,0.011971008032560349,-34.8968505859375,37.7044677734375,37.0941162109375
5.5899999000000005,-10.647014617919922,-0.8427590131759644,1.0007762908935547,-57.342529296875,-15.5487060546875,94.23828125
5.609999900000001,-10.398017883300781,-0.5554547905921936,1.6400281190872192,-80.535888671875,-29.6173095703125,96.7559814453125
5.6299999000000005,-10.225635528564453,-1.2545616626739502,1.7094600200653076,-76.1260986328125,9.1705322265625,56.732177734375
5.6499999,-10.108319282531738,-2.2673089504241943,1.403002142906189,-71.2432861328125,48.4619140625,19.4091796875
5.6699999000000005,-9.883264541625977,-2.3582887649536133,1.534683346748352,-55.0079345703125,54.38232421875,4.0435791015625
5.6899999,-9.457097053527832,-2.0805611610412598,2.0661959648132324,-67.535400390625,11.7034912109375,59.2193603515625
5.709999900000001,-8.98543930053711,-1.5873557329177856,2.5977089405059814,-100.52490234375,-27.130126953125,100.3570556640625
5.7299999,-8.631096839904785,-1.5490485429763794,2.7222073078155518,-94.207763671875,-2.8076171875,53.7261962890625
5.749999900000001,-8.437167167663574,-2.118868589401245,2.5450363159179688,-77.7435302734375,44.43359375,1.3427734375
5.7699999,-8.391676902770996,-2.427720546722412,2.410961151123047,-74.4476318359375,48.4161376953125,-20.0042724609375
5.789999900000001,-8.38449478149414,-2.188300371170044,2.715024709701538,-77.0111083984375,19.439697265625,-6.6070556640625
5.8099999,-8.523358345031738,-0.8667010068893433,3.160346269607544,-69.915771484375,10.284423828125,-3.5247802734375
5.829999900000001,-8.633491516113281,-0.6153098344802856,2.9017724990844727,-56.3507080078125,37.04833984375,-25.177001953125
5.8499999,-8.652645111083984,-0.5578489899635315,2.6839001178741455,-50.84228515625,42.9229736328125,-48.27880859375
5.869999900000001,-8.681375503540039,-0.28730419278144836,2.4827871322631836,-50.35400390625,18.585205078125,-61.3861083984375
5.8899999,-8.78193187713623,-0.05746084079146385,2.3080103397369385,-55.938720703125,4.9896240234375,-40.435791015625
5.909999900000001,-9.100360870361328,0.07422025501728058,1.9297266006469727,-65.7958984375,21.820068359375,-21.05712890625
5.9299999,-9.579200744628906,-0.002394201699644327,1.4101848602294922,-64.5294189453125,45.379638671875,-46.2799072265625
5.949999900000001,-9.986215591430664,-0.2059013396501541,1.113303780555725,-60.5621337890625,49.4537353515625,-66.497802734375
5.9699999,-10.105925559997559,-0.20350714027881622,1.290474772453308,-54.9468994140625,34.5306396484375,-51.300048828125
5.989999900000001,-9.93593692779541,0.27054479718208313,1.8076223134994507,-50.201416015625,8.1787109375,-22.3388671875
6.0099999,-9.548076629638672,0.8212111592292786,2.449268341064453,-45.95947265625,-14.1754150390625,1.2664794921875
6.029999900000001,-9.117119789123535,1.0007762908935547,2.8131868839263916,-44.86083984375,-28.25927734375,7.9345703125
6.0499999,-8.81784439086914,0.6991068720817566,2.7964274883270264,-47.2259521484375,-31.5093994140625,-9.27734375
6.069999900000001,-8.65743350982666,0.1173158809542656,2.6001031398773193,-44.7845458984375,-17.425537109375,-35.4766845703125
6.0899999000000005,-8.719682693481445,-0.11013327538967133,2.3989901542663574,-34.2254638671875,-11.04736328125,-49.957275390625
6.109999900000001,-8.858546257019043,-0.004788403399288654,2.4420857429504395,-27.2979736328125,-22.5830078125,-37.0635986328125
6.1299999000000005,-9.074024200439453,0.5363011956214905,2.784456491470337,-18.37158203125,-28.9459228515625,-22.552490234375
6.149999900000001,-9.313444137573242,1.0821791887283325,3.1962592601776123,-14.801025390625,-35.3546142578125,-20.416259765625
6.1699999000000005,-9.445125579833984,1.3263877630233765,3.5170822143554688,-14.4805908203125,-37.59765625,-22.5830078125
6.1899999,-9.53849983215332,1.3742717504501343,3.514688014984131,-14.1448974609375,-40.5731201171875,-34.4696044921875
6.209999900000001,-9.600749015808105,1.1971008777618408,3.3470940589904785,-9.063720703125,-29.296875,-38.1011962890625
6.2299999,-9.713275909423828,1.0797849893569946,3.0885202884674072,1.8463134765625,-10.467529296875,-42.8924560546875
6.249999900000001,-9.885659217834473,1.115697979927063,2.8826189041137695,9.1400146484375,0.4425048828125,-38.1317138671875
6.2699999,-9.988609313964844,1.1851298809051514,2.889801502227783,15.4571533203125,5.035400390625,-26.4129638671875
6.289999900000001,-10.017339706420898,1.3958195447921753,2.9927520751953125,29.937744140625,7.1868896484375,-27.099609375
6.3099999,-9.974244117736816,1.5083470344543457,3.1220390796661377,39.886474609375,3.5400390625,-28.01513671875
6.329999900000001,-9.955090522766113,1.522712230682373,3.2992098331451416,53.0548095703125,5.9814453125,-18.768310546875
6.3499999,-10.050858497619629,1.6041151285171509,3.160346269607544,57.92236328125,0.762939453125,-9.3536376953125
6.369999900000001,-10.134655952453613,1.525106430053711,2.959233283996582,64.788818359375,5.0048828125,-0.6866455078125
6.3899999,-10.170568466186523,1.3886369466781616,2.5498247146606445,76.47705078125,11.53564453125,-3.5552978515625
6.409999900000001,-10.20887565612793,1.2330138683319092,2.073378562927246,79.89501953125,4.119873046875,-14.739990234375
6.4299999,-10.299856185913086,1.1803414821624756,1.6496049165725708,86.6851806640625,3.0975341796875,-11.199951171875
6.449999900000001,-10.467450141906738,1.2952631711959839,1.2976573705673218,98.5565185546875,11.41357421875,7.843017578125
6.4699999,-10.615890502929688,1.3623007535934448,1.072602391242981,103.5919189453125,12.939453125,25.4364013671875
6.489999900000001,-10.72602367401123,1.0414776802062988,0.7374141216278076,93.475341796875,2.9144287109375,24.139404296875
6.5099999,-10.795455932617188,0.524330198764801,0.3208230137825012,83.740234375,7.2174072265625,0.7781982421875
6.529999900000001,-10.869675636291504,-0.0694318488240242,-0.1149216815829277,93.7042236328125,36.651611328125,-12.75634765625
6.5499999,-10.96544361114502,-0.3519476354122162,-0.4812345504760742,92.4224853515625,47.332763671875,0.518798828125
6.569999900000001,-10.99896240234375,-0.33039984107017517,-0.5027823448181152,85.1593017578125,39.8406982421875,19.2718505859375
6.5899999000000005,-10.948684692382812,-0.24899697303771973,-0.30885201692581177,75.7598876953125,28.4576416015625,26.7181396484375
6.609999900000001,-10.83855152130127,-0.33039984107017517,-0.10534487664699554,66.34521484375,28.1982421875,27.0843505859375
6.6299999000000005,-10.793061256408691,-0.4908113479614258,-0.05267243832349777,63.65966796875,38.787841796875,22.27783203125
6.649999900000001,-10.802638053894043,-0.7038952708244324,-0.20111294090747833,54.290771484375,43.76220703125,29.60205078125
6.6699999000000005,-10.757147789001465,-1.0558429956436157,-0.33039984107017517,44.342041015625,47.393798828125,41.4276123046875
6.6899999,-10.596736907958984,-1.3862427473068237,-0.4357447028160095,34.3170166015625,43.8079833984375,31.1126708984375
6.709999900000001,-10.304644584655762,-1.6352397203445435,-0.45250412821769714,28.961181640625,37.109375,14.3890380859375
6.7299999,-9.96945571899414,-1.623268723487854,-0.545877993106842,25.1617431640625,29.0374755859375,19.34814453125
6.749999900000001,-9.655815124511719,-1.455674648284912,-0.6560112833976746,20.2178955078125,26.0772705078125,40.679931640625
6.7699999,-9.39245319366455,-1.3527239561080933,-0.8307880163192749,11.5203857421875,21.636962890625,45.71533203125
6.789999900000001,-9.251194953918457,-1.381454348564148,-1.0869675874710083,-3.173828125,9.21630859375,30.364990234375
6.8099999,-9.23682975769043,-1.656787633895874,-1.3527239561080933,-17.9290771484375,7.62939453125,28.0914306640625
6.829999900000001,-9.464279174804688,-1.7357962131500244,-1.7286136150360107,-28.5797119140625,16.4642333984375,34.8663330078125
6.8499999,-9.792284965515137,-2.0877439975738525,-1.9823989868164062,-35.1409912109375,33.935546875,50.140380859375
6.869999900000001,-10.096348762512207,-2.7461493015289307,-2.1045033931732178,-52.42919921875,41.7327880859375,40.2679443359375
6.8899999,-10.33098030090332,-3.3446998596191406,-2.0015525817871094,-68.939208984375,44.525146484375,-5.8135986328125
6.909999900000001,-10.448296546936035,-3.6750996112823486,-1.6352397203445435,-72.0672607421875,56.57958984375,-15.5181884765625
6.9299999,-10.472238540649414,-3.5721490383148193,-1.0295066833496094,-68.145751953125,62.530517578125,13.7939453125
6.949999900000001,-10.45547866821289,-3.222595453262329,-0.4189853072166443,-77.056884765625,49.957275390625,27.6641845703125
6.9699999,-10.402806282043457,-2.985569477081299,0.10055647045373917,-91.6900634765625,40.3594970703125,2.8076171875
6.989999900000001,-10.366893768310547,-2.851494312286377,0.35673606395721436,-90.39306640625,53.2073974609375,-19.6990966796875
7.0099999,-10.369287490844727,-2.7246015071868896,0.45250412821769714,-80.74951171875,67.3065185546875,-9.3536376953125
7.029999900000001,-10.319009780883789,-2.434903144836426,0.6392518281936646,-79.2236328125,65.1397705078125,-0.579833984375
7.0499999,-10.160991668701172,-2.145204782485962,0.9959878921508789,-83.49609375,44.189453125,-15.0299072265625
7.069999900000001,-9.871294021606445,-2.078166961669922,1.3623007535934448,-89.874267578125,24.749755859375,-26.4129638671875
7.0899999000000005,-9.509769439697266,-2.10210919380188,1.6208745241165161,-88.5772705078125,22.9034423828125,-34.271240234375
7.109999900000001,-9.165003776550293,-1.9369091987609863,1.7310078144073486,-78.2470703125,24.383544921875,-49.3621826171875
7.1299999000000005,-8.860940933227539,-1.6304513216018677,1.8387469053268433,-71.59423828125,7.171630859375,-52.0782470703125
7.149999900000001,-8.674192428588867,-1.0797849893569946,1.9297266006469727,-67.44384765625,-18.9208984375,-46.0052490234375
7.1699999000000005,-8.676587104797363,-0.48602294921875,1.9057846069335938,-59.5855712890625,-31.0516357421875,-40.5426025390625
7.1899999,-8.858546257019043,-0.1364694982767105,1.6112977266311646,-57.1441650390625,-24.6734619140625,-35.0341796875
7.209999900000001,-9.14345645904541,0.009576806798577309,1.1755530834197998,-51.513671875,-13.61083984375,-51.08642578125
7.2299999,-9.41400146484375,0.035913024097681046,0.8427590131759644,-44.891357421875,-14.0533447265625,-64.6514892578125
7.249999900000001,-9.667786598205566,0.4357447028160095,0.6009446382522583,-35.0189208984375,-26.9775390625,-60.6842041015625
7.2699999,-9.801861763000488,0.8930372595787048,0.7158663272857666,-14.7857666015625,-23.98681640625,-32.2418212890625
7.289999900000001,-9.90241813659668,1.2832920551300049,0.7541735172271729,-12.14599609375,-24.078369140625,-15.106201171875
7.3099999,-10.012551307678223,1.4724340438842773,0.849941611289978,-5.645751953125,-20.9197998046875,-47.332763671875
7.329999900000001,-10.093954086303711,1.800439715385437,0.871489405632019,0.5340576171875,-16.0980224609375,-27.008056640625
7.3499999,-10.194510459899902,2.425326347351074,0.8858546018600464,2.01416015625,-16.387939453125,5.9967041015625
7.369999900000001,-10.299856185913086,3.2561142444610596,0.9145850539207458,5.8441162109375,-19.6380615234375,17.9290771484375
7.3899999,-10.362105369567871,3.9384617805480957,0.933738648891449,13.6260986328125,-17.0440673828125,13.2904052734375
7.409999900000001,-10.429142951965332,4.553771495819092,1.0319008827209473,25.1922607421875,-9.9945068359375,16.998291015625
7.4299999,-10.517727851867676,5.0685248374938965,1.1851298809051514,39.7491455078125,-11.8560791015625,29.3731689453125
7.449999900000001,-10.60391902923584,5.317522048950195,1.3431471586227417,45.2423095703125,-17.0135498046875,36.224365234375
7.4699999,-10.72841739654541,5.382165431976318,1.4077905416488647,44.98291015625,-9.9029541015625,20.0958251953125
7.489999900000001,-10.81460952758789,5.099649429321289,1.4101848602294922,50.3997802734375,5.92041015625,7.904052734375
7.5099999,-10.90558910369873,4.8937482833862305,1.3287819623947144,70.1141357421875,11.4288330078125,5.7525634765625
7.529999900000001,-10.915165901184082,4.683058738708496,1.3838485479354858,87.249755859375,9.613037109375,16.5863037109375
7.5499999,-10.881647109985352,4.46518611907959,1.3982137441635132,100.4791259765625,7.7972412109375,27.679443359375
7.569999900000001,-10.78587818145752,4.048594951629639,1.357512354850769,116.1041259765625,14.8162841796875,26.4739990234375
7.5899999000000005,-10.611102104187012,3.354276657104492,1.2665326595306396,131.5765380859375,29.2816162109375,25.0091552734375
7.609999900000001,-10.338163375854492,2.4396915435791016,1.1971008777618408,137.3748779296875,29.632568359375,23.2696533203125
7.6299999000000005,-10.005369186401367,1.5897499322891235,1.2114660739898682,136.71875,17.974853515625,21.7132568359375
7.649999900000001,-9.66539192199707,0.8619126081466675,1.3694833517074585,144.83642578125,7.7362060546875,29.4342041015625
7.6699999000000005,-9.41639518737793,0.12449848651885986,1.4844050407409668,148.1475830078125,-5.7373046875,52.8564453125
7.6899999,-9.342175483703613,-0.8379706144332886,1.314416766166687,138.3056640625,-23.62060546875,62.4847412109375
7.709999900000001,-9.461885452270508,-2.1978771686553955,0.6727706789970398,126.1444091796875,-23.4832763671875,44.036865234375
7.7299999,-9.641449928283691,-4.0533833503723145,-0.3687070608139038,109.7564697265625,0.79345703125,18.768310546875
7.749999900000001,-9.785101890563965,-5.959167957305908,-1.5658079385757446,90.4388427734375,29.815673828125,-13.1072998046875
7.7699999,-9.701305389404297,-7.692570209503174,-2.4899697303771973,67.44384765625,35.8428955078125,-37.933349609375
7.789999900000001,-9.370905876159668,-8.992621421813965,-2.8443117141723633,39.73388671875,20.3857421875,-55.8929443359375
7.8099999,-8.959102630615234,-9.761159896850586,-2.8419175148010254,12.2833251953125,-0.946044921875,-67.0318603515625
7.829999900000001,-8.588001251220703,-10.347740173339844,-2.6024973392486572,-20.44677734375,-12.4664306640625,-66.22314453125
7.8499999,-8.422801971435547,-10.754754066467285,-2.3511061668395996,-56.182861328125,-15.472412109375,-75.3173828125
7.869999900000001,-8.47786808013916,-10.96304988861084,-2.1164743900299072,-81.84814453125,-24.627685546875,-98.6175537109375
7.8899999,-8.655038833618164,-10.955866813659668,-1.702277421951294,-103.240966796875,-35.4461669921875,-96.405029296875
7.909999900000001,-8.971074104309082,-10.412383079528809,-1.3024457693099976,-131.4239501953125,-52.6123046875,-80.9173583984375
7.9299999,-9.287108421325684,-9.646238327026367,-0.8978256583213806,-159.36279296875,-59.8297119140625,-62.774658203125
7.949999900000001,-9.512163162231445,-8.755595207214355,-0.395043283700943,-178.466796875,-47.2869873046875,-54.7943115234375
7.9699999,-9.583989143371582,-7.783549785614014,0.2513911724090576,-189.2242431640625,-45.83740234375,-64.849853515625
7.989999900000001,-9.555258750915527,-6.550535678863525,1.0223240852355957,-200.5157470703125,-61.5692138671875,-60.1806640625
8.0099999,-9.528923034667969,-4.862623691558838,1.8842366933822632,-197.479248046875,-68.0084228515625,-42.724609375
8.0299999,-9.552865028381348,-2.868253707885742,2.889801502227783,-175.201416015625,-54.19921875,-19.1497802734375
8.049999900000001,-9.727641105651855,-0.8379706144332886,3.976768970489502,-160.2630615234375,-60.5316162109375,-2.0294189453125
8.069999900000001,-10.268731117248535,1.1180921792984009,4.745307922363281,-159.11865234375,-85.968017578125,2.3956298828125
8.0899999,-11.171344757080078,3.428496837615967,5.365406036376953,-123.504638671875,-55.2520751953125,-8.331298828125
8.1099999,-12.169727325439453,5.832275390625,5.837063789367676,-70.9075927734375,9.4146728515625,14.1448974609375
8.129999900000001,-12.988544464111328,8.307879447937012,6.404489517211914,-41.534423828125,20.3704833984375,49.835205078125
8.149999900000001,-13.481749534606934,10.615890502929688,6.739677906036377,-15.7928466796875,-23.101806640625,53.2989501953125
8.1699999,-13.529633522033691,11.834539413452148,6.9024834632873535,28.228759765625,-17.7764892578125,68.5272216796875
8.1899999,-13.448230743408203,12.102689743041992,6.18182897567749,70.2362060546875,27.618408203125,76.934814453125
8.2099999,-13.196839332580566,11.494562149047852,5.274426460266113,98.8616943359375,65.887451171875,62.7899169921875
8.229999900000001,-12.715604782104492,10.333374977111816,4.661510944366455,118.682861328125,65.4754638671875,51.9561767578125
8.2499999,-12.090718269348145,9.026140213012695,4.616020679473877,139.0533447265625,32.867431640625,64.51416015625
8.2699999,-11.446678161621094,7.637503623962402,5.003881454467773,167.2821044921875,21.6827392578125,85.357666015625
8.2899999,-10.922348022460938,5.980715751647949,5.317522048950195,186.370849609375,27.2979736328125,88.104248046875
8.309999900000001,-10.508151054382324,4.19224739074707,5.446808815002441,193.05419921875,28.289794921875,64.849853515625
8.3299999,-10.125079154968262,2.183511972427368,5.39174222946167,198.2421875,19.9737548828125,59.3109130859375
8.3499999,-9.739612579345703,0.11252748221158981,4.98472785949707,199.9359130859375,1.4495849609375,73.1353759765625
8.3699999,-9.346963882446289,-2.0925323963165283,4.077325344085693,196.5484619140625,-3.4942626953125,63.0645751953125
8.389999900000001,-8.918401718139648,-4.534617900848389,2.741360902786255,186.0809326171875,11.7034912109375,22.3541259765625
8.4099999,-8.401253700256348,-7.259219646453857,1.1683704853057861,157.3486328125,16.632080078125,-15.6097412109375
8.4299999,-7.8745293617248535,-9.634267807006836,-0.21308395266532898,121.185302734375,4.8980712890625,-46.4324951171875
8.4499999,-7.532158374786377,-11.674127578735352,-1.3766659498214722,86.456298828125,-16.510009765625,-49.01123046875
8.469999900000001,-7.481880187988281,-13.204022407531738,-2.293645143508911,47.2564697265625,-17.0135498046875,-44.9371337890625
8.4899999,-7.73087739944458,-14.314931869506836,-2.9664158821105957,10.009765625,0.8544921875,-56.427001953125
8.5099999,-8.085219383239746,-15.018827438354492,-3.2752678394317627,-30.914306640625,-1.007080078125,-64.239501953125
8.5299999,-8.38688850402832,-15.150507926940918,-3.1938650608062744,-71.685791015625,-22.0947265625,-59.539794921875
8.549999900000001,-8.552088737487793,-14.695610046386719,-2.782062292098999,-111.5570068359375,-37.872314453125,-47.5006103515625
8.569999900000001,-8.576030731201172,-13.843274116516113,-2.0925323963165283,-139.6942138671875,-29.083251953125,-44.3115234375
8.5899999,-8.528146743774414,-12.521675109863281,-1.1803414821624756,-163.1011962890625,-23.62060546875,-54.2144775390625
8.6099999,-8.44195556640625,-11.022904396057129,0.035913024097681046,-183.0596923828125,-38.9404296875,-53.40576171875
8.629999900000001,-8.358158111572266,-9.17697525024414,1.3718775510787964,-201.0498046875,-66.070556640625,-43.39599609375
8.649999900000001,-8.367734909057617,-7.108384609222412,2.6791117191314697,-207.427978515625,-73.9593505859375,-29.96826171875
8.6699999,-8.607154846191406,-4.896142482757568,3.598485231399536,-210.8612060546875,-74.615478515625,-16.754150390625
8.6899999,-8.992621421813965,-3.0765492916107178,4.426878929138184,-210.51025390625,-60.3485107421875,-6.3323974609375
8.709999900000001,-9.591172218322754,-1.094150185585022,5.056553840637207,-207.1533203125,-51.788330078125,-28.13720703125
8.729999900000001,-10.290278434753418,1.1085153818130493,5.868188381195068,-186.58447265625,-49.1790771484375,-49.835205078125
8.7499999,-11.109095573425293,3.869029998779297,6.552929878234863,-150.726318359375,-58.319091796875,-18.5546875
8.7699999,-11.947066307067871,6.821080684661865,6.916848659515381,-120.91064453125,-76.446533203125,38.665771484375
8.7899999,-12.78503704071045,9.009381294250488,6.75883150100708,-99.4110107421875,-71.0296630859375,66.6961669921875
8.809999900000001,-13.5870943069458,10.78587818145752,6.323086738586426,-63.96484375,-26.1993408203125,15.8233642578125
8.8299999,-14.228740692138672,12.052411079406738,5.868188381195068,-16.4031982421875,13.336181640625,-11.6424560546875
8.8499999,-14.468160629272461,13.67807388305664,5.928043365478516,73.0133056640625,26.092529296875,74.8291015625
8.8699999,-13.886369705200195,13.37161636352539,6.095637321472168,104.339599609375,28.1829833984375,59.3109130859375
8.889999900000001,-12.957419395446777,11.887211799621582,6.088454723358154,132.4615478515625,38.726806640625,43.701171875
8.9099999,-11.944672584533691,9.897629737854004,6.0405707359313965,157.318115234375,46.9207763671875,44.8455810546875
8.9299999,-11.099518775939941,7.819462776184082,6.042964935302734,175.994873046875,36.529541015625,60.5010986328125
8.9499999,-10.515334129333496,5.719748020172119,6.189011573791504,188.90380859375,20.111083984375,77.2552490234375
8.969999900000001,-10.216058731079102,3.646369218826294,6.339846134185791,198.2269287109375,14.2974853515625,75.469970703125
8.9899999,-10.168174743652344,1.6041151285171509,6.27280855178833,200.68359375,16.05224609375,68.511962890625
9.0099999,-10.273519515991211,-0.6248866319656372,5.892130374908447,198.883056640625,19.927978515625,76.8585205078125
9.0299999,-10.438719749450684,-3.203441858291626,4.967968463897705,186.2640380859375,32.0281982421875,71.3653564453125
9.049999900000001,-10.47942066192627,-5.760449409484863,3.957615375518799,185.6536865234375,73.2421875,18.8446044921875
9.069999900000001,-10.14902114868164,-8.085219383239746,2.80361008644104,172.3785400390625,82.305908203125,-18.06640625
9.0899999,-9.3828763961792,-10.201693534851074,1.7621324062347412,122.2381591796875,35.5682373046875,11.016845703125
9.1099999,-8.35097599029541,-12.105083465576172,0.5602431893348694,66.375732421875,-11.749267578125,36.773681640625
9.129999900000001,-7.328651428222656,-13.979743957519531,-1.0271124839782715,16.1895751953125,-20.0042724609375,3.0364990234375
9.149999900000001,-6.584054470062256,-15.686809539794922,-2.6192567348480225,-16.0980224609375,16.5863037109375,-49.2401123046875
9.1699999,-6.145915985107422,-16.733076095581055,-3.957615375518799,-54.7637939453125,23.01025390625,-69.3206787109375
9.1899999,-6.033388137817383,-16.745046615600586,-4.4292731285095215,-97.625732421875,-11.2762451171875,-69.915771484375
9.209999900000001,-6.2416839599609375,-15.727511405944824,-4.170699596405029,-138.00048828125,-43.15185546875,-80.6732177734375
9.229999900000001,-6.813898086547852,-14.140154838562012,-3.4308910369873047,-168.6859130859375,-46.234130859375,-87.554931640625
9.2499999,-7.7428483963012695,-12.284648895263672,-2.4899697303771973,-188.1866455078125,-30.7769775390625,-83.3892822265625
9.2699999,-8.796297073364258,-10.122684478759766,-1.1779472827911377,-201.507568359375,-19.1192626953125,-90.9576416015625
9.2899999,-9.708487510681152,-8.13789176940918,0.5051765441894531,-211.73095703125,-34.0576171875,-90.0115966796875
9.309999900000001,-10.484209060668945,-6.054935932159424,2.319981336593628,-227.8289794921875,-59.0972900390625,-84.259033203125
9.3299999,-11.133037567138672,-3.6559460163116455,4.036623954772949,-220.8251953125,-59.5855712890625,-90.423583984375
9.3499999,-11.659762382507324,-1.213860273361206,5.513846397399902,-192.4285888671875,-40.1458740234375,-72.57080078125
9.3699999,-12.188880920410156,1.3335703611373901,6.6630635261535645,-168.182373046875,-41.595458984375,-60.4095458984375
9.389999900000001,-12.804190635681152,4.108449935913086,7.6566572189331055,-141.693115234375,-55.694580078125,-75.164794921875
9.4099999,-13.625401496887207,7.0772600173950195,8.339004516601562,-97.6715087890625,-56.4727783203125,-66.0247802734375
9.4299999,-14.61660099029541,9.849745750427246,8.40843677520752,-55.1605224609375,-50.750732421875,-0.18310546875
9.4499999,-15.55512809753418,11.81299114227295,7.711723804473877,-18.61572265625,-31.0821533203125,48.6907958984375
9.469999900000001,-16.062698364257812,12.631808280944824,6.452373504638672,12.5274658203125,4.8828125,31.1737060546875
9.4899999,-15.94777774810791,12.212822914123535,5.020640850067139,39.6270751953125,31.67724609375,12.0391845703125
9.5099999,-15.327679634094238,11.173739433288574,3.883395195007324,71.380615234375,37.7197265625,37.2161865234375
9.5299999,-14.372392654418945,9.95748519897461,3.421314239501953,96.0235595703125,33.7371826171875,70.5108642578125
9.549999900000001,-13.381193161010742,8.547300338745117,3.3925838470458984,114.1204833984375,25.6195068359375,75.6378173828125
9.569999900000001,-12.495338439941406,6.892906665802002,3.641580820083618,128.0670166015625,25.1007080078125,60.72998046875
9.5899999,-11.841721534729004,5.1595048904418945,3.909731388092041,146.0418701171875,37.6434326171875,52.398681640625
9.6099999,-11.437101364135742,3.581725835800171,4.137180328369141,159.576416015625,42.1905517578125,61.0504150390625
9.629999900000001,-11.185709953308105,2.1475989818573,4.278438568115234,162.353515625,35.5987548828125,76.263427734375
9.649999900000001,-10.955866813659668,0.790086567401886,4.376600742340088,162.2314453125,31.4178466796875,79.1473388671875
9.6699999,-10.6709566116333,-0.5363011956214905,4.331110954284668,165.069580078125,30.0445556640625,75.0579833984375
9.6899999,-10.314221382141113,-1.7764976024627686,4.07014274597168,168.182373046875,22.8271484375,80.657958984375
9.709999900000001,-9.885659217834473,-3.0550012588500977,3.7181951999664307,168.4112548828125,15.2130126953125,96.00830078125
9.729999900000001,-9.452308654785156,-4.99669885635376,2.8203697204589844,155.9906005859375,-0.3509521484375,100.616455078125
9.7499999,-8.96389102935791,-7.194576263427734,1.5514427423477173,123.9166259765625,3.47900390625,49.25537109375
9.7699999,-8.42040729522705,-9.751583099365234,-0.07182604819536209,85.1898193359375,28.350830078125,-10.6201171875
9.7899999,-7.812280178070068,-11.72201156616211,-1.623268723487854,53.436279296875,35.1409912109375,-35.7818603515625
9.809999900000001,-7.168240070343018,-12.847286224365234,-2.655169725418091,28.5491943359375,23.0255126953125,-34.0576171875
9.8299999,-6.584054470062256,-13.208810806274414,-3.07415509223938,-8.9569091796875,-1.190185546875,-31.951904296875
9.8499999,-6.18182897567749,-13.12261962890625,-3.071760892868042,-48.3245849609375,-21.5911865234375,-41.4581298828125
9.8699999,-6.081272125244141,-12.847286224365234,-2.9927520751953125,-84.0606689453125,-31.18896484375,-55.3131103515625
9.889999900000001,-6.224924564361572,-12.361263275146484,-2.765302896499634,-110.1226806640625,-24.59716796875,-71.4111328125
9.9099999,-6.507440090179443,-11.647790908813477,-2.293645143508911,-130.9661865234375,-23.8800048828125,-88.8671875
9.9299999,-6.914454460144043,-10.563218116760254,-1.5682021379470825,-151.79443359375,-47.8668212890625,-101.7608642578125
9.9499999,-7.474697589874268,-9.318233489990234,-0.6847416758537292,-173.9959716796875,-69.8089599609375,-97.8851318359375
9.969999900000001,-8.267178535461426,-7.8745293617248535,0.13407529890537262,-187.8509521484375,-71.6400146484375,-95.0164794921875
9.9899999,-9.2033109664917,-6.555324077606201,0.9911994934082031,-195.159912109375,-59.50927734375,-86.181640625
10.0099999,-10.113107681274414,-5.458779811859131,1.9728221893310547,-209.381103515625,-63.1561279296875,-81.1767578125
10.0299999,-10.955866813659668,-4.086902141571045,3.380612850189209,-215.6524658203125,-78.826904296875,-93.8720703125
10.049999900000001,-11.693281173706055,-2.145204782485962,5.0254292488098145,-199.920654296875,-91.5069580078125,-83.892822265625
10.069999900000001,-12.380416870117188,0.026336219161748886,6.452373504638672,-179.901123046875,-95.5963134765625,-33.111572265625
10.0899999,-13.050793647766113,2.5905263423919678,7.682993412017822,-151.885986328125,-72.2198486328125,-22.2625732421875
10.1099999,-13.682862281799316,5.2911858558654785,8.528146743774414,-102.7984619140625,-38.604736328125,-51.6357421875
10.129999900000001,-14.202404022216797,7.872135162353516,9.05247688293457,-44.464111328125,-26.153564453125,-40.46630859375
10.149999900000001,-14.592658996582031,10.251971244812012,9.344569206237793,14.801025390625,-16.2811279296875,11.810302734375
10.1699999,-14.767436027526855,11.769895553588867,9.002198219299316,61.7218017578125,-7.5836181640625,50.7965087890625
10.1899999,-14.578293800354004,11.911153793334961,8.291120529174805,98.5870361328125,10.7421875,55.023193359375
10.209999900000001,-14.087482452392578,10.84094524383545,7.297526836395264,128.60107421875,23.7884521484375,48.309326171875
10.229999900000001,-13.421895027160645,9.232041358947754,6.495469093322754,153.1982421875,22.0489501953125,61.737060546875
10.2499999,-12.797008514404297,7.620744228363037,6.0836663246154785,173.095703125,12.664794921875,96.7864990234375
10.2699999,-12.337321281433105,6.038176536560059,5.882553577423096,189.88037109375,5.0048828125,122.8485107421875
10.2899999,-12.097901344299316,4.268861770629883,5.556941986083984,199.27978515625,14.739990234375,112.9302978515625
10.309999900000001,-11.920730590820312,2.346317768096924,5.169081687927246,203.9337158203125,49.7283935546875,78.7506103515625
10.3299999,-11.683704376220703,0.7637503147125244,4.795586109161377,205.5511474609375,73.8372802734375,50.6591796875
10.3499999,-11.312602996826172,-0.24660277366638184,4.7189717292785645,206.146240234375,67.8558349609375,59.5703125
10.3699999,-10.347740173339844,-1.2234370708465576,4.9799394607543945,203.2470703125,33.1878662109375,105.5145263671875
10.389999900000001,-9.832986831665039,-2.3535003662109375,4.841075897216797,199.2034912109375,27.2674560546875,90.9576416015625
10.4099999,-9.390059471130371,-3.93367338180542,4.20421838760376,180.0689697265625,7.4310302734375,51.5289306640625
10.4299999,-8.89445972442627,-5.944802761077881,3.3207578659057617,145.08056640625,-3.7384033203125,39.7491455078125
10.4499999,-8.497021675109863,-8.154650688171387,1.987187385559082,99.9603271484375,-18.280029296875,39.3524169921875
10.469999900000001,-8.224082946777344,-10.515334129333496,0.30885201692581177,50.59814453125,-23.13232421875,2.960205078125
10.4899999,-8.02536392211914,-12.739546775817871,-1.3000515699386597,11.627197265625,8.1939697265625,-59.75341796875
10.5099999,-7.805097579956055,-14.429853439331055,-2.2673089504241943,-16.4794921875,37.7960205078125,-96.49658203125
10.5299999,-7.489062786102295,-15.018827438354492,-2.449268341064453,-57.5408935546875,13.4124755859375,-101.4404296875
10.549999900000001,-7.067683219909668,-14.556746482849121,-1.6903064250946045,-89.996337890625,-26.8402099609375,-95.1690673828125
10.569999900000001,-6.67982292175293,-13.33809757232666,-0.706289529800415,-114.2578125,-51.08642578125,-96.2677001953125
10.5899999,-6.471527099609375,-11.978191375732422,0.22744916379451752,-120.4071044921875,-50.567626953125,-102.9205322265625
10.6099999,-6.607996463775635,-10.632649421691895,0.8667010068893433,-132.659912109375,-53.7109375,-104.8126220703125
10.629999900000001,-7.187393665313721,-9.397241592407227,1.3910311460494995,-154.72412109375,-61.8743896484375,-103.4393310546875
10.649999900000001,-8.068459510803223,-8.31985092163086,1.821987509727478,-188.90380859375,-72.5250244140625,-98.2818603515625
10.6699999,-9.105149269104004,-7.283161640167236,2.4420857429504395,-212.1124267578125,-63.7054443359375,-97.3968505859375
10.6899999,-10.141838073730469,-6.203376770019531,3.3734302520751953,-218.5211181640625,-58.3648681640625,-98.8922119140625
10.709999900000001,-11.12346076965332,-4.742913722991943,4.69024133682251,-225.433349609375,-76.6754150390625,-102.020263671875
10.729999900000001,-12.124237060546875,-2.691082715988159,6.205770969390869,-213.31787109375,-89.9200439453125,-93.658447265625
10.7499999,-13.132196426391602,0.1388636976480484,7.565677165985107,-178.192138671875,-75.25634765625,-71.2890625
10.7699999,-14.046781539916992,3.529053211212158,8.592789649963379,-131.5155029296875,-51.849365234375,-37.7349853515625
10.7899999,-14.690821647644043,6.964732646942139,9.220070838928223,-86.5325927734375,-45.41015625,-0.030517578125
10.809999900000001,-15.002067565917969,10.005369186401367,9.493009567260742,-41.9158935546875,-51.8798828125,31.494140625
10.8299999,-15.12417221069336,11.999738693237305,9.246406555175781,8.4075927734375,-47.5311279296875,65.7196044921875
10.8499999,-15.162479400634766,12.746729850769043,8.329427719116211,53.3905029296875,-22.0184326171875,88.4246826171875
10.8699999,-15.0355863571167,12.174515724182129,7.139509677886963,94.1162109375,22.979736328125,91.4764404296875
10.889999900000001,-14.63814926147461,10.615890502929688,6.064512729644775,122.9705810546875,50.1556396484375,89.599609375
10.9099999,-14.00368595123291,8.892065048217773,5.537788391113281,141.754150390625,42.7703857421875,89.78271484375
10.9299999,-13.28063678741455,7.462726593017578,5.664681434631348,169.9676513671875,35.7818603515625,112.762451171875
10.9499999,-12.691662788391113,6.3973069190979,6.050147533416748,197.81494140625,36.895751953125,154.815673828125
10.969999900000001,-12.239158630371094,5.228936672210693,6.581660270690918,214.5538330078125,42.510986328125,179.0008544921875
10.9899999,-11.841721534729004,3.4787750244140625,6.88332986831665,215.362548828125,39.3524169921875,166.229248046875
11.0099999,-11.439496040344238,1.2952631711959839,6.821080684661865,209.7015380859375,32.5927734375,122.833251953125
11.0299999,-11.010933876037598,-0.9074024558067322,6.387730121612549,207.2296142578125,49.8199462890625,92.10205078125
11.049999900000001,-10.596736907958984,-2.6240451335906982,5.781997203826904,203.30810546875,66.0247802734375,89.111328125
11.069999900000001,-10.196905136108398,-3.732560396194458,5.109226226806641,193.0084228515625,48.52294921875,99.7314453125
11.0899999,-9.806650161743164,-4.702212333679199,4.3622355461120605,168.3349609375,-0.9002685546875,110.198974609375
11.1099999,-9.385271072387695,-6.191405773162842,3.3638534545898438,138.0462646484375,-21.7437744140625,104.400634765625
11.129999900000001,-9.040505409240723,-8.494627952575684,1.6112977266311646,87.6922607421875,-17.4560546875,54.9468994140625
11.149999900000001,-8.753201484680176,-10.955866813659668,-0.38546648621559143,34.423828125,15.4876708984375,-35.5072021484375
11.1699999,-8.461109161376953,-13.204022407531738,-2.145204782485962,-1.77001953125,42.96875,-86.4715576171875
11.1899999,-8.149862289428711,-14.329297065734863,-3.1004912853240967,-41.19873046875,36.68212890625,-106.201171875
11.209999900000001,-7.845798969268799,-14.173673629760742,-3.0550012588500977,-83.9996337890625,17.4102783203125,-124.755859375
11.229999900000001,-7.5848307609558105,-13.110648155212402,-2.073378562927246,-114.7308349609375,5.67626953125,-134.6435546875
11.2499999,-7.445967197418213,-11.671732902526855,-0.545877993106842,-144.927978515625,-15.3350830078125,-136.16943359375
11.2699999,-7.65186882019043,-9.785101890563965,0.9361328482627869,-171.7071533203125,-50.8880615234375,-143.12744140625
11.2899999,-8.135497093200684,-8.04930591583252,2.2194249629974365,-193.817138671875,-67.3980712890625,-126.8463134765625
11.309999900000001,-8.892065048217773,-6.584054470062256,2.892195701599121,-212.432861328125,-62.07275390625,-100.372314453125
11.3299999,-9.794678688049316,-5.4013190269470215,3.220201253890991,-228.6529541015625,-53.8330078125,-100.830078125
11.3499999,-10.551246643066406,-4.55616569519043,3.5003228187561035,-244.5220947265625,-53.436279296875,-105.0262451171875
11.3699999,-11.197681427001953,-3.734954595565796,4.003105163574219,-245.54443359375,-56.640625,-99.4720458984375
11.389999900000001,-11.784260749816895,-2.473210334777832,4.876988887786865,-225.2960205078125,-52.886962890625,-101.104736328125
11.4099999,-12.397176742553711,-0.5315127968788147,5.959167957305908,-202.4688720703125,-48.5687255859375,-93.0328369140625
11.4299999,-13.086706161499023,1.941697597503662,7.053318023681641,-177.06298828125,-54.74853515625,-56.6558837890625
11.4499999,-13.771448135375977,4.862623691558838,7.9846625328063965,-137.5579833984375,-54.7943115234375,-20.7061767578125
11.469999900000001,-14.377181053161621,7.94635534286499,8.520963668823242,-79.6051025390625,-42.7398681640625,1.52587890625
11.4899999,-14.875175476074219,10.632649421691895,8.540117263793945,-9.7503662109375,-24.9176025390625,27.9693603515625
11.5099999,-15.12417221069336,12.476184844970703,8.233659744262695,55.8013916015625,1.953125,48.3551025390625
11.5299999,-15.143325805664062,13.21359920501709,7.615955829620361,94.6197509765625,22.5830078125,52.1240234375
11.549999900000001,-14.894329071044922,12.914323806762695,6.806715488433838,114.1357421875,30.1513671875,51.483154296875
11.569999900000001,-14.417882919311523,11.78665542602539,6.112396717071533,142.0440673828125,49.7283935546875,64.910888671875
11.5899999,-13.850457191467285,10.333374977111816,5.571307182312012,168.3197021484375,58.7158203125,89.0655517578125
11.6099999,-13.251906394958496,8.78193187713623,5.5114521980285645,183.28857421875,57.9071044921875,111.4959716796875
11.629999900000001,-12.67011547088623,7.005434036254883,5.942408561706543,194.915771484375,51.1932373046875,139.09912109375
11.649999900000001,-12.196063041687012,5.233725070953369,6.53377628326416,203.79638671875,31.341552734375,152.2064208984375
11.6699999,-11.88002872467041,3.265691041946411,7.003039836883545,208.770751953125,23.0255126953125,161.895751953125
11.6899999,-11.717223167419434,1.1899182796478271,7.12035608291626,207.4737548828125,25.2227783203125,167.205810546875
11.709999900000001,-11.602301597595215,-1.192312479019165,6.806715488433838,197.0062255859375,21.0723876953125,158.2794189453125
11.729999900000001,-11.492168426513672,-3.557783842086792,5.983109951019287,185.394287109375,9.765625,119.5068359375
11.7499999,-11.281478881835938,-5.858611583709717,4.747702121734619,174.1180419921875,11.0015869140625,83.984375
11.7699999,-10.977415084838867,-7.702147006988525,3.112462282180786,155.609130859375,17.6544189453125,69.0155029296875
11.7899999,-10.579977035522461,-9.078812599182129,1.400607943534851,117.00439453125,19.744873046875,55.8624267578125
11.809999900000001,-10.067618370056152,-9.974244117736816,-0.05746084079146385,67.4591064453125,15.869140625,30.029296875
11.8299999,-9.423578262329102,-10.563218116760254,-0.9768342971801758,26.947021484375,11.077880859375,1.1749267578125
11.8499999,-8.736441612243652,-10.946290016174316,-1.434126853942871,-8.575439453125,-0.4119873046875,-13.824462890625
11.8699999,-8.142680168151855,-11.204863548278809,-1.7118542194366455,-47.0123291015625,-14.2364501953125,-30.6549072265625
11.889999900000001,-7.422025203704834,-11.868058204650879,-2.0231003761291504,-123.2757568359375,5.0201416015625,-108.0169677734375
11.9099999,-7.314286231994629,-11.726799964904785,-1.8052281141281128,-152.9693603515625,5.889892578125,-160.125732421875
11.9299999,-7.350199222564697,-11.075576782226562,-1.2761094570159912,-190.7501220703125,-15.5029296875,-173.15673828125
11.9499999,-7.536946773529053,-9.677363395690918,-0.2537853717803955,-215.2099609375,-18.6004638671875,-161.2396240234375
11.969999900000001,-7.948749542236328,-7.496245384216309,0.9528923034667969,-221.98486328125,-21.8353271484375,-164.4134521484375
11.9899999,-8.528146743774414,-5.260061264038086,2.300827741622925,-229.278564453125,-43.0450439453125,-150.5584716796875
12.0099999,-9.41639518737793,-2.8610711097717285,3.8355112075805664,-232.48291015625,-64.6514892578125,-127.9754638671875
12.0299999,-10.773907661437988,-0.5147533416748047,5.161899089813232,-232.1014404296875,-86.639404296875,-105.1177978515625
12.049999900000001,-12.646173477172852,2.1930887699127197,6.378153324127197,-206.1920166015625,-74.1119384765625,-85.44921875
12.069999900000001,-14.633360862731934,5.106832027435303,7.338228225708008,-164.093017578125,-32.4249267578125,-51.6815185546875
12.0899999,-16.22311019897461,8.219294548034668,8.248024940490723,-119.81201171875,-2.74658203125,-17.791748046875
12.1099999,-17.039533615112305,11.063606262207031,9.014169692993164,-65.6585693359375,-3.7994384765625,0.701904296875
12.129999900000001,-16.972496032714844,13.12261962890625,9.284713745117188,-14.892578125,-21.087646484375,22.8424072265625
12.149999900000001,-16.359580993652344,13.771448135375977,8.858546257019043,36.07177734375,-11.8560791015625,56.6253662109375
12.1699999,-15.535974502563477,13.151350021362305,7.647080421447754,72.479248046875,10.7269287109375,65.3839111328125
12.1899999,-14.640542984008789,11.544840812683105,6.169857978820801,96.9696044921875,35.614013671875,53.924560546875
12.209999900000001,-13.725957870483398,9.583989143371582,5.092466831207275,118.621826171875,42.6483154296875,61.09619140625
12.229999900000001,-12.895170211791992,7.9415669441223145,4.697423934936523,140.625,29.1900634765625,89.3707275390625
12.2499999,-12.263101577758789,6.763619899749756,4.898536682128906,162.78076171875,11.0321044921875,121.7803955078125
12.2699999,-11.894393920898438,5.686229228973389,5.274426460266113,180.6640625,6.195068359375,146.0113525390625
12.289999900000002,-11.769895553588867,4.350264549255371,5.494692802429199,190.7501220703125,15.594482421875,151.580810546875
12.309999900000001,-11.769895553588867,2.585737943649292,5.353435039520264,196.96044921875,27.4200439453125,137.939453125
12.3299999,-11.72201156616211,0.6847416758537292,4.948814868927002,197.601318359375,36.0870361328125,114.288330078125
12.3499999,-11.492168426513672,-1.091755986213684,4.422090530395508,196.6552734375,40.6646728515625,100.8148193359375
12.3699999,-11.034875869750977,-2.4684219360351562,3.845088005065918,200.5157470703125,33.294677734375,98.7701416015625
12.389999900000001,-10.357316970825195,-3.5051112174987793,3.270479440689087,192.87109375,16.90673828125,94.3603515625
12.4099999,-9.524134635925293,-4.436455726623535,2.585737943649292,156.8756103515625,-5.157470703125,81.817626953125
12.4299999,-8.643068313598633,-5.4252610206604,1.6424223184585571,112.945556640625,-20.233154296875,62.0574951171875
12.4499999,-7.7883381843566895,-6.45476770401001,0.5291185975074768,84.259033203125,-14.984130859375,30.548095703125
12.469999900000001,-7.06528902053833,-7.436390399932861,-0.790086567401886,58.7921142578125,-10.0555419921875,0.5950927734375
12.4899999,-6.517016887664795,-8.59997272491455,-2.1068975925445557,26.885986328125,-6.0272216796875,-15.2435302734375
12.5099999,-6.143521785736084,-9.560047149658203,-2.985569477081299,-5.767822265625,15.228271484375,-57.7392578125
12.5299999,-5.980715751647949,-10.26394271850586,-3.337517261505127,-40.6494140625,15.5792236328125,-102.0355224609375
12.549999900000001,-6.028599739074707,-10.445901870727539,-2.9664158821105957,-75.0732421875,-4.425048828125,-111.5264892578125
12.569999900000001,-6.349422931671143,-10.18493366241455,-2.169146776199341,-111.419677734375,-29.876708984375,-97.4884033203125
12.5899999,-6.976703643798828,-9.701305389404297,-1.3239935636520386,-146.2249755859375,-38.6962890625,-98.602294921875
12.6099999,-7.833827972412109,-9.615114212036133,-0.689530074596405,-176.8646240234375,-29.1748046875,-121.0174560546875
12.629999900000001,-8.741230010986328,-9.603142738342285,0.11013327538967133,-198.2574462890625,-10.25390625,-160.5987548828125
12.649999900000001,-9.521739959716797,-9.222464561462402,1.1899182796478271,-226.715087890625,-21.7132568359375,-181.5185546875
12.6699999,-10.108319282531738,-8.070854187011719,2.604891538619995,-249.2523193359375,-56.94580078125,-168.243408203125
12.6899999,-10.498574256896973,-6.232107162475586,4.220977783203125,-246.4447021484375,-72.1893310546875,-140.07568359375
12.709999900000001,-10.919954299926758,-4.173093795776367,5.817910194396973,-230.6365966796875,-64.483642578125,-136.1846923828125
12.729999900000001,-11.63342571258545,-1.8746598958969116,7.343016624450684,-224.7314453125,-78.7811279296875,-151.5045166015625
12.7499999,-12.854469299316406,0.8236053586006165,8.520963668823242,-214.78271484375,-109.344482421875,-129.974365234375
12.7699999,-14.391546249389648,3.883395195007324,9.435548782348633,-180.8624267578125,-107.1929931640625,-58.65478515625
12.789999900000002,-16.012420654296875,7.297526836395264,9.672574996948242,-129.7760009765625,-76.35498046875,-5.523681640625
12.809999900000001,-17.1999454498291,10.053253173828125,9.478644371032715,-76.019287109375,-52.1392822265625,17.08984375
12.8299999,-17.764976501464844,11.717223167419434,8.796297073364258,-30.1666259765625,-41.3055419921875,28.6407470703125
12.8499999,-17.74582290649414,12.191274642944336,7.7763671875,14.83154296875,-20.2178955078125,35.15625
12.8699999,-17.221492767333984,11.408370971679688,6.519411087036133,53.497314453125,17.8985595703125,48.736572265625
12.889999900000001,-16.338031768798828,9.837775230407715,5.329493045806885,77.423095703125,50.3387451171875,47.1954345703125
12.9099999,-15.255853652954102,7.9631147384643555,4.479551315307617,93.719482421875,57.2357177734375,33.02001953125
12.9299999,-14.082694053649902,6.081272125244141,4.134786128997803,111.0687255859375,57.9071044921875,40.5426025390625
12.9499999,-12.986149787902832,4.438849925994873,4.211400985717773,125.4425048828125,66.986083984375,61.126708984375
12.969999900000001,-12.078747749328613,3.1938650608062744,4.3861775398254395,137.51220703125,74.2645263671875,57.18994140625
12.9899999,-11.30063247680664,2.0805611610412598,4.642356872558594,149.4598388671875,79.9713134765625,52.6580810546875
13.0099999,-10.649409294128418,1.094150185585022,4.790797710418701,157.1044921875,78.155517578125,62.3931884765625
13.0299999,-10.077195167541504,0.10773907601833344,4.829104900360107,158.447265625,74.1729736328125,76.019287109375
13.049999900000001,-9.53849983215332,-0.9074024558067322,4.671087741851807,157.135009765625,70.86181640625,74.4781494140625
13.069999900000001,-8.98543930053711,-1.9991583824157715,4.266467571258545,153.9306640625,61.4166259765625,68.023681640625
13.0899999,-8.367734909057617,-3.155557870864868,3.687070608139038,152.34375,50.4302978515625,72.3114013671875
13.1099999,-7.694964408874512,-4.443638324737549,2.7700912952423096,142.5018310546875,31.1737060546875,75.8056640625
13.129999900000001,-6.921637058258057,-6.01423454284668,1.5634137392044067,115.875244140625,8.636474609375,65.582275390625
13.149999900000001,-6.119579315185547,-8.123526573181152,0.10773907601833344,78.91845703125,-7.4920654296875,37.9486083984375
13.1699999,-5.420472621917725,-10.393229484558105,-1.6328455209732056,33.7066650390625,-17.8985595703125,-9.063720703125
13.1899999,-4.941632270812988,-12.507309913635254,-3.3423056602478027,-6.439208984375,-12.3443603515625,-51.6510009765625
13.209999900000001,-4.778826713562012,-14.214375495910645,-4.63517427444458,-43.9605712890625,1.46484375,-74.89013671875
13.229999900000001,-4.967968463897705,-15.236700057983398,-5.190629482269287,-91.796875,-8.36181640625,-94.8333740234375
13.2499999,-5.4659624099731445,-15.61019515991211,-4.73573112487793,-138.97705078125,-28.717041015625,-124.9237060546875
13.2699999,-6.358999729156494,-15.10262393951416,-3.758896589279175,-179.412841796875,-50.0030517578125,-144.378662109375
13.289999900000002,-7.5201873779296875,-13.994109153747559,-2.2409727573394775,-197.75390625,-35.3851318359375,-137.115478515625
13.309999900000001,-8.75080680847168,-12.200851440429688,-0.5147533416748047,-200.9429931640625,-9.9639892578125,-136.2762451171875
13.3299999,-9.813833236694336,-10.050858497619629,1.5514427423477173,-208.282470703125,-25.5126953125,-134.5367431640625
13.3499999,-10.65898609161377,-7.275979042053223,3.7397429943084717,-212.432861328125,-66.0400390625,-115.2496337890625
13.3699999,-11.396400451660156,-4.141968727111816,5.7341132164001465,-197.0672607421875,-91.5679931640625,-63.9190673828125
13.389999900000001,-12.196063041687012,-1.0295066833496094,6.983886241912842,-175.8880615234375,-88.0584716796875,-2.227783203125
13.4099999,-13.951013565063477,4.666299343109131,7.757213592529297,-114.3035888671875,-50.079345703125,0.0152587890625
13.4299999,-14.76264762878418,7.19936466217041,7.797914981842041,-68.9697265625,-50.3082275390625,36.407470703125
13.4499999,-15.504850387573242,9.466673851013184,7.55131196975708,-22.2015380859375,-48.6297607421875,85.7391357421875
13.469999900000001,-16.084247589111328,10.876858711242676,6.900089263916016,23.8494873046875,-15.4266357421875,103.45458984375
13.4899999,-16.28536033630371,11.166556358337402,6.141127586364746,69.580078125,41.0919189453125,81.1309814453125
13.5099999,-16.045940399169922,10.651803016662598,5.494692802429199,101.37939453125,64.788818359375,66.95556640625
13.5299999,-15.418659210205078,9.86650562286377,5.499481201171875,129.486083984375,53.8177490234375,92.529296875
13.549999900000001,-14.745888710021973,9.39245319366455,5.892130374908447,163.0859375,40.802001953125,138.97705078125
13.569999900000001,-14.2431058883667,8.461109161376953,6.13633918762207,193.4051513671875,43.6248779296875,184.7991943359375
13.5899999,-13.75468921661377,6.543353080749512,6.248866558074951,219.8486328125,83.2366943359375,185.05859375
13.6099999,-13.175292015075684,4.036623954772949,6.0836663246154785,230.621337890625,107.452392578125,114.31884765625
13.629999900000001,-12.392388343811035,1.4293384552001953,5.78678560256958,228.2867431640625,91.30859375,69.7479248046875
13.649999900000001,-11.401188850402832,-0.6177040338516235,5.430049419403076,225.6317138671875,80.3985595703125,101.62353515625
13.6699999,-10.35252857208252,-1.9967641830444336,4.759673118591309,225.2960205078125,78.43017578125,132.4310302734375
13.6899999,-9.251194953918457,-3.7205893993377686,3.8307228088378906,215.6982421875,63.232421875,128.509521484375
13.709999900000001,-8.085219383239746,-6.081272125244141,2.4013843536376953,178.7872314453125,21.820068359375,83.7249755859375
13.729999900000001,-6.878541469573975,-9.430760383605957,0.42616790533065796,117.85888671875,-10.6658935546875,36.376953125
13.7499999,-5.853823184967041,-12.715604782104492,-1.9943699836730957,55.4351806640625,-12.4359130859375,-14.9383544921875
13.7699999,-5.207388877868652,-15.547945976257324,-4.422090530395508,13.61083984375,0.9918212890625,-51.1322021484375
13.789999900000002,-5.023035049438477,-17.19036865234375,-6.2392897605896,-30.4412841796875,1.373291015625,-74.798583984375
13.809999900000001,-5.20978307723999,-17.659631729125977,-6.739677906036377,-79.3914794921875,-4.425048828125,-91.064453125
13.8299999,-5.664681434631348,-17.01559066772461,-5.992686748504639,-122.8790283203125,-15.106201171875,-110.5194091796875
13.8499999,-6.301538944244385,-15.559916496276855,-4.49870491027832,-164.1387939453125,-36.5142822265625,-133.7890625
13.8699999,-7.122750282287598,-13.448230743408203,-3.069366693496704,-191.3299560546875,-46.1883544921875,-144.256591796875
13.889999900000001,-7.9846625328063965,-11.374852180480957,-1.656787633895874,-195.2056884765625,-16.8914794921875,-130.1727294921875
13.9099999,-8.822632789611816,-9.437943458557129,-0.31124621629714966,-218.719482421875,-2.5482177734375,-130.5694580078125
13.9299999,-9.576807022094727,-7.587224960327148,1.3934253454208374,-250.18310546875,-39.48974609375,-160.614013671875
13.9499999,-10.402806282043457,-5.473145008087158,3.584120035171509,-272.857666015625,-89.0350341796875,-162.04833984375
13.969999900000001,-11.619060516357422,-2.209848165512085,5.793968200683594,-256.2408447265625,-107.879638671875,-137.054443359375
13.9899999,-13.318943977355957,2.209848165512085,7.558494567871094,-224.273681640625,-110.4888916015625,-81.9091796875
14.0099999,-15.385140419006348,7.462726593017578,8.820239067077637,-169.036865234375,-91.3848876953125,-22.003173828125
14.0299999,-17.362751007080078,12.528857231140137,9.299078941345215,-102.0050048828125,-75.958251953125,32.1502685546875
14.049999900000001,-18.83518409729004,16.40985870361328,9.184157371520996,-26.5655517578125,-46.9512939453125,67.962646484375
14.069999900000001,-19.50316619873047,18.684350967407227,8.56645393371582,46.9207763671875,-2.8533935546875,80.841064453125
14.0899999,-19.254169464111328,18.94292449951172,7.671022415161133,104.705810546875,29.9530029296875,99.273681640625
14.1099999,-18.21987533569336,17.56147003173828,6.847416877746582,140.19775390625,35.400390625,123.4893798828125
14.129999900000001,-16.680402755737305,15.121777534484863,6.390124320983887,166.6107177734375,32.3486328125,139.7857666015625
14.149999900000001,-15.023615837097168,12.12902545928955,6.244078159332275,190.6280517578125,26.0467529296875,154.8919677734375
14.1699999,-13.534421920776367,8.911218643188477,6.337451934814453,209.5489501953125,20.0042724609375,174.37744140625
14.1899999,-12.373234748840332,5.623979568481445,6.313509941101074,219.4061279296875,8.880615234375,175.8575439453125
14.209999900000001,-11.535264015197754,2.3104045391082764,5.937620162963867,215.4998779296875,1.4190673828125,156.890869140625
14.229999900000001,-10.910377502441406,-0.9002198576927185,5.0014872550964355,206.9244384765625,2.7008056640625,125.79345703125
14.2499999,-10.3549222946167,-3.643975019454956,3.557783842086792,194.854736328125,12.6800537109375,100.52490234375
14.2699999,-9.720458984375,-5.849034786224365,1.9273324012756348,185.1654052734375,15.869140625,84.8541259765625
14.289999900000002,-8.949525833129883,-7.568071365356445,0.38307225704193115,163.787841796875,1.220703125,70.37353515625
14.309999900000001,-8.092401504516602,-8.983044624328613,-0.9145850539207458,119.56787109375,-24.47509765625,44.0826416015625
14.3299999,-7.319074630737305,-10.393229484558105,-1.965639591217041,74.7833251953125,-42.2821044921875,18.0816650390625
14.3499999,-6.866570472717285,-11.681309700012207,-3.047818660736084,30.5633544921875,-55.1910400390625,-8.9569091796875
14.3699999,-6.825869083404541,-12.868834495544434,-4.10366153717041,-8.7127685546875,-50.6134033203125,-32.1502685546875
14.389999900000001,-7.144298076629639,-13.64216136932373,-4.903325080871582,-47.027587890625,-27.3895263671875,-59.478759765625
14.4099999,-7.615955829620361,-13.75708293914795,-5.197812080383301,-87.7685546875,-17.76123046875,-91.12548828125
14.4299999,-8.018181800842285,-13.24472427368164,-4.642356872558594,-123.6114501953125,-23.6663818359375,-105.499267578125
14.4499999,-8.346187591552734,-11.841721534729004,-3.5003228187561035,-163.4063720703125,-42.633056640625,-114.6087646484375
14.469999900000001,-8.631096839904785,-9.988609313964844,-1.9728221893310547,-192.657470703125,-50.689697265625,-115.53955078125
14.4899999,-9.033323287963867,-7.948749542236328,-0.2992752194404602,-199.951171875,-33.2489013671875,-116.02783203125
14.5099999,-9.75397777557373,-5.3582234382629395,1.7190368175506592,-185.60791015625,-22.9034423828125,-144.47021484375
14.5299999,-10.78348445892334,-2.0901381969451904,3.869029998779297,-177.734375,-48.980712890625,-133.6212158203125
14.549999900000001,-12.066776275634766,1.5155296325683594,5.829881191253662,-168.8232421875,-81.0699462890625,-55.633544921875
14.569999900000001,-13.33570384979248,4.95120906829834,6.92881965637207,-140.9759521484375,-75.5157470703125,1.6937255859375
14.5899999,-14.214375495910645,7.132327079772949,6.835445880889893,-107.4371337890625,-32.989501953125,-1.7547607421875
14.6099999,-14.508862495422363,7.757213592529297,5.729324817657471,-89.7674560546875,-4.5318603515625,-28.3355712890625
14.629999900000001,-14.247894287109375,7.1251444816589355,4.000710964202881,-88.37890625,-8.9569091796875,-36.102294921875
14.649999900000001,-13.694833755493164,5.980715751647949,2.054224967956543,-89.3402099609375,-13.3056640625,-22.7813720703125
14.6699999,-13.144166946411133,4.841075897216797,0.14844051003456116,-86.517333984375,10.1776123046875,-17.059326171875
14.6899999,-12.67250919342041,3.9001545906066895,-1.3215993642807007,-83.8165283203125,46.6766357421875,-17.974853515625
14.709999900000001,-12.212822914123535,3.2082302570343018,-2.1092917919158936,-89.813232421875,57.6171875,-13.24462890625
14.729999900000001,-11.760318756103516,2.96162748336792,-2.030282974243164,-94.085693359375,48.7060546875,-8.0413818359375
14.7499999,-11.353304862976074,3.31118106842041,-1.3335703611373901,-89.447021484375,47.1038818359375,3.8604736328125
14.7699999,-11.073183059692383,3.890577793121338,-0.3974374830722809,-71.96044921875,59.02099609375,30.853271484375
14.789999900000002,-10.910377502441406,4.146757125854492,0.7350199222564697,-60.6536865234375,68.634033203125,56.21337890625
14.809999900000001,-10.855310440063477,4.496310710906982,1.7118542194366455,-54.01611328125,57.769775390625,33.2489013671875
14.8299999,-10.78348445892334,4.4939165115356445,2.5905263423919678,-44.647216796875,41.2139892578125,31.1431884765625
14.8499999,-10.773907661437988,4.824316501617432,2.9903578758239746,-22.6593017578125,35.5987548828125,63.323974609375
14.8699999,-10.6925048828125,4.912901878356934,3.203441858291626,6.622314453125,40.374755859375,97.5494384765625
14.889999900000001,-10.60391902923584,4.865017890930176,2.9065608978271484,23.8189697265625,33.233642578125,91.4306640625
14.9099999,-10.484209060668945,4.352658748626709,2.494758129119873,28.8238525390625,23.4527587890625,70.281982421875
14.9299999,-10.390835762023926,3.804386615753174,1.9081788063049316,44.8455810546875,33.935546875,74.005126953125
14.9499999,-10.134655952453613,2.801215887069702,1.1899182796478271,65.673828125,35.1104736328125,89.599609375
14.969999900000001,-9.859322547912598,2.3558945655822754,1.2258312702178955,62.7593994140625,9.2315673828125,66.2384033203125
14.9899999,-9.481039047241211,1.9369091987609863,1.4772224426269531,66.40625,-7.1563720703125,66.619873046875
15.0099999,-9.14585018157959,1.886630892753601,1.7070658206939697,74.3255615234375,-19.378662109375,79.52880859375
15.0299999,-8.880094528198242,1.7693150043487549,1.9847931861877441,80.7037353515625,-34.1033935546875,98.81591796875
15.049999900000001,-8.71728801727295,1.259350061416626,2.0470423698425293,76.995849609375,-63.65966796875,91.0797119140625
15.069999900000001,-8.707711219787598,0.5554547905921936,1.9560627937316895,84.16748046875,-70.9381103515625,42.17529296875
15.0899999,-8.939949035644531,-0.038307227194309235,1.6687586307525635,106.3079833984375,-50.811767578125,8.5296630859375
15.1099999,-9.344569206237793,-0.12210428714752197,1.400607943534851,116.790771484375,-38.3758544921875,26.5655517578125
15.129999900000001,-9.794678688049316,0.2801215946674347,1.3335703611373901,114.3341064453125,-49.652099609375,58.074951171875
15.149999900000001,-10.010157585144043,0.3974374830722809,1.6041151285171509,109.43603515625,-67.2607421875,68.572998046875
15.1699999,-10.02452278137207,0.14365209639072418,1.8124107122421265,111.1602783203125,-80.078125,38.1317138671875
15.1899999,-9.962273597717285,-0.3447650372982025,1.800439715385437,116.0888671875,-78.61328125,5.3863525390625
15.209999900000001,-9.938331604003906,-0.9241618514060974,1.680729627609253,122.2076416015625,-64.2547607421875,10.3607177734375
15.229999900000001,-9.979032516479492,-1.3335703611373901,1.4293384552001953,111.297607421875,-70.7244873046875,17.3492431640625
15.2499999,-10.014945983886719,-1.6400281190872192,1.2090718746185303,95.367431640625,-87.310791015625,-3.9825439453125
15.2699999,-10.038887977600098,-1.9632453918457031,0.8451532125473022,87.8448486328125,-89.019775390625,-25.6195068359375
15.289999900000002,-10.08198356628418,-2.0829553604125977,0.23942017555236816,78.2928466796875,-72.4945068359375,-27.52685546875
15.309999900000001,-10.158597946166992,-2.1715409755706787,-0.4189853072166443,72.998046875,-47.5311279296875,-25.2227783203125
15.3299999,-10.247182846069336,-2.099714994430542,-1.070208191871643,56.9000244140625,-40.3289794921875,-36.68212890625
15.3499999,-10.261548042297363,-2.1499931812286377,-1.5275006294250488,36.163330078125,-43.5028076171875,-48.492431640625
15.3699999,-10.199298858642578,-2.1116859912872314,-1.8698714971542358,19.0887451171875,-35.858154296875,-51.513671875
15.389999900000001,-10.036493301391602,-1.9488801956176758,-2.0590133666992188,17.3187255859375,-20.08056640625,-51.4984130859375
15.4099999,-9.718064308166504,-1.764526605606079,-2.0183119773864746,5.3253173828125,-10.9100341796875,-49.9267578125
15.4299999,-9.330204010009766,-1.50355863571167,-1.900996208190918,-13.7786865234375,-26.2908935546875,-58.4869384765625
15.4499999,-8.990227699279785,-1.3982137441635132,-1.5873557329177856,-20.2484130859375,-30.2581787109375,-69.1680908203125
15.469999900000001,-8.971074104309082,-1.1516109704971313,-1.5729905366897583,-35.6292724609375,-33.3099365234375,-76.6143798828125
15.4899999,-9.35654067993164,-0.7948749661445618,-1.802833914756775,-54.3975830078125,-31.4483642578125,-70.8465576171875
15.5099999,-10.046070098876953,-0.3495534360408783,-2.33913516998291,-67.6727294921875,-19.4244384765625,-56.8389892578125
15.5299999,-10.812214851379395,-0.040701430290937424,-3.1028854846954346,-83.465576171875,-6.011962890625,-45.8221435546875
15.549999900000001,-11.398794174194336,0.13168109953403473,-3.5745432376861572,-96.221923828125,16.9830322265625,-51.2237548828125
15.569999900000001,-11.726799964904785,0.40940847992897034,-3.6727054119110107,-108.978271484375,22.2625732421875,-55.84716796875
15.5899999,-11.798625946044922,0.8810662031173706,-3.335123062133789,-119.62890625,5.37109375,-31.18896484375
15.6099999,-11.717223167419434,1.5107412338256836,-2.911349296569824,-122.13134765625,-2.25830078125,1.3580322265625
15.629999900000001,-11.477803230285645,1.699883222579956,-2.535459518432617,-123.779296875,16.571044921875,4.08935546875
15.649999900000001,-11.224017143249512,1.5705963373184204,-2.4205379486083984,-131.0577392578125,39.215087890625,-35.858154296875
15.6699999,-10.955866813659668,1.2641384601593018,-2.126051187515259,-133.36181640625,50.8575439453125,-66.2841796875
15.6899999,-10.807426452636719,1.5514427423477173,-1.647210717201233,-126.64794921875,43.487548828125,-51.0101318359375
15.709999900000001,-10.843339920043945,2.1787235736846924,-1.2856862545013428,-123.5504150390625,22.3846435546875,-2.9144287109375
15.729999900000001,-11.063606262207031,2.2433669567108154,-1.1444283723831177,-126.2054443359375,30.6243896484375,29.1900634765625
15.7499999,-11.4849853515625,2.013523578643799,-1.4173674583435059,-148.9410400390625,55.4656982421875,-11.2457275390625
15.7699999,-11.911153793334961,2.0015525817871094,-1.3215993642807007,-149.139404296875,85.0677490234375,-42.7398681640625
15.789999900000002,-12.069170951843262,2.315192937850952,-0.6224924325942993,-142.822265625,66.0400390625,34.6221923828125
15.809999900000001,-11.84650993347168,3.1004912853240967,0.8212111592292786,-138.7176513671875,14.129638671875,113.2354736328125
15.8299999,-11.322179794311523,3.7445313930511475,2.1308395862579346,-137.3748779296875,-24.139404296875,96.527099609375
15.8499999,-10.740388870239258,3.7876269817352295,3.0190882682800293,-114.92919921875,-7.2021484375,60.5316162109375
15.869999900000002,-10.307038307189941,3.6152446269989014,3.2130186557769775,-84.7625732421875,23.7579345703125,68.359375
15.889999900000001,-9.983820915222168,3.4332852363586426,3.177105665206909,-63.4613037109375,22.52197265625,98.236083984375
15.9099999,-9.615114212036133,3.177105665206909,3.265691041946411,-54.718017578125,4.7760009765625,89.5843505859375
15.9299999,-9.248801231384277,2.920926094055176,3.3854012489318848,-45.95947265625,-7.1563720703125,49.3316650390625
15.9499999,-8.975862503051758,2.647987127304077,3.4524388313293457,-20.4315185546875,-0.7781982421875,45.7611083984375
15.969999900000001,-8.911218643188477,2.695871114730835,3.3901896476745605,7.8887939453125,7.8277587890625,60.1043701171875
15.9899999,-9.009381294250488,2.8443117141723633,3.380612850189209,34.3017578125,9.0179443359375,57.6629638671875
16.0099999,-9.136273384094238,2.956839084625244,3.265691041946411,53.985595703125,-3.265380859375,35.2020263671875
16.0299999,-9.191340446472168,2.650381326675415,3.294421434402466,68.603515625,-4.21142578125,27.8472900390625
16.0499999,-9.253589630126953,2.650381326675415,3.066972494125366,75.958251953125,-5.8746337890625,16.9219970703125
16.0699999,-9.308655738830566,2.7748796939849854,3.004723072052002,92.864990234375,-5.2642822265625,21.6522216796875
16.089999900000002,-9.332598686218262,2.801215887069702,2.9305028915405273,105.04150390625,-18.9971923828125,49.3011474609375
16.109999900000002,-9.32541561126709,2.650381326675415,2.7533318996429443,101.776123046875,-40.9088134765625,51.3458251953125
16.1299999,-9.32302188873291,1.9847931861877441,2.3942017555236816,106.0943603515625,-32.806396484375,23.6358642578125
16.1499999,-9.344569206237793,1.3766659498214722,2.0374655723571777,118.9422607421875,-5.3558349609375,-1.5716552734375
16.1699999,-9.378087997436523,1.0773907899856567,1.9081788063049316,131.2408447265625,-5.9051513671875,8.5296630859375
16.1899999,-9.370905876159668,0.8044517636299133,2.049436569213867,122.8485107421875,-45.8831787109375,50.4150390625
16.2099999,-9.394847869873047,0.6416460275650024,2.2577321529388428,115.1885986328125,-66.7724609375,40.802001953125
16.2299999,-9.495404243469238,0.4596867263317108,2.3798365592956543,125.152587890625,-45.074462890625,2.6397705078125
16.249999900000002,-9.730035781860352,0.09576806426048279,2.343923568725586,132.01904296875,-33.5845947265625,17.730712890625
16.269999900000002,-10.012551307678223,-0.07661445438861847,2.255337953567505,123.5809326171875,-56.9610595703125,47.9888916015625
16.2899999,-10.14902114868164,-0.36152446269989014,2.2385785579681396,111.0076904296875,-80.322265625,50.78125
16.3099999,-10.08198356628418,-0.8690952062606812,2.03507137298584,114.4561767578125,-84.930419921875,27.313232421875
16.3299999,-9.84256362915039,-1.4628572463989258,1.5945383310317993,115.753173828125,-78.399658203125,10.9710693359375
16.3499999,-9.509769439697266,-2.10210919380188,1.0630255937576294,106.14013671875,-74.5086669921875,8.148193359375
16.3699999,-9.17697525024414,-2.4612393379211426,0.5267243981361389,96.5576171875,-79.132080078125,-12.6800537109375
16.3899999,-8.899248123168945,-2.5522189140319824,0.11252748221158981,90.3778076171875,-86.4410400390625,-36.346435546875
16.4099999,-8.710105895996094,-2.5282769203186035,-0.33758243918418884,86.2579345703125,-90.3778076171875,-36.956787109375
16.429999900000002,-8.700529098510742,-2.451662540435791,-0.8523358106613159,73.486328125,-87.9669189453125,-37.567138671875
16.4499999,-8.911218643188477,-2.4372973442077637,-1.4197616577148438,55.5572509765625,-79.0863037109375,-58.41064453125
16.4699999,-9.706093788146973,-2.765302896499634,-2.676717519760132,8.48388671875,-47.6226806640625,-88.3331298828125
16.4899999,-10.194510459899902,-2.6360161304473877,-2.985569477081299,-5.5389404296875,-27.2369384765625,-95.6573486328125
16.5099999,-10.642226219177246,-2.343923568725586,-2.918531894683838,-26.4129638671875,-25.4058837890625,-90.6829833984375
16.5299999,-11.111490249633789,-1.8794482946395874,-2.451662540435791,-50.4150390625,-33.1878662109375,-79.2083740234375
16.5499999,-11.60708999633789,-1.3120225667953491,-1.9105730056762695,-80.5511474609375,-44.7998046875,-64.9566650390625
16.5699999,-12.126631736755371,-0.6799532771110535,-1.4915876388549805,-100.2960205078125,-43.2281494140625,-41.4581298828125
16.589999900000002,-12.574347496032715,-0.016759412363171577,-1.4772224426269531,-117.034912109375,-36.0260009765625,-8.636474609375
16.609999900000002,-12.820950508117676,0.49559974670410156,-1.6543933153152466,-131.9580078125,-18.768310546875,23.37646484375
16.6299999,-12.76109504699707,0.8331822156906128,-2.0877439975738525,-143.707275390625,-7.3394775390625,32.379150390625
16.6499999,-12.342109680175781,0.7852981686592102,-2.276885747909546,-148.162841796875,12.451171875,29.35791015625
16.6699999,-11.765107154846191,0.7398083209991455,-2.3056161403656006,-153.778076171875,30.4107666015625,13.824462890625
16.6899999,-11.231200218200684,0.9744400978088379,-1.9967641830444336,-154.5867919921875,41.1529541015625,-2.9449462890625
16.7099999,-10.833763122558594,1.4437036514282227,-1.4245500564575195,-148.4222412109375,52.642822265625,3.41796875
16.7299999,-10.63743782043457,1.9752163887023926,-0.9457096457481384,-148.1475830078125,54.3365478515625,6.103515625
16.749999900000002,-10.572794914245605,2.3487119674682617,-0.3734954595565796,-142.7154541015625,61.5234375,-14.3585205078125
16.769999900000002,-10.625467300415039,3.0406360626220703,0.33518823981285095,-126.5869140625,61.798095703125,-42.2821044921875
16.7899999,-10.687716484069824,3.7636849880218506,1.3623007535934448,-107.818603515625,38.665771484375,-10.8795166015625
16.8099999,-10.733205795288086,4.352658748626709,2.343923568725586,-102.9205322265625,0.2593994140625,41.32080078125
16.8299999,-10.759542465209961,4.54419469833374,2.734178304672241,-110.321044921875,-10.284423828125,27.130126953125
16.8499999,-10.764330863952637,4.400542736053467,2.7988216876983643,-90.9423828125,41.900634765625,-22.4456787109375
16.8699999,-10.845733642578125,4.501099109649658,2.674323320388794,-56.884765625,74.554443359375,-22.4151611328125
16.8899999,-10.888829231262207,4.857835292816162,3.0765492916107178,-37.1856689453125,41.0308837890625,41.2139892578125
16.9099999,-10.867281913757324,5.104437828063965,3.5051112174987793,-46.2646484375,-12.6495361328125,82.183837890625
16.929999900000002,-10.730812072753906,4.649539470672607,3.5170822143554688,-51.971435546875,-10.1470947265625,49.49951171875
16.9499999,-10.529699325561523,3.8283286094665527,3.0861260890960693,-26.153564453125,53.8177490234375,5.6610107421875
16.9699999,-10.295066833496094,3.1890766620635986,2.499546527862549,-2.25830078125,76.507568359375,16.4947509765625
16.9899999,-9.964667320251465,2.58813214302063,2.5761611461639404,-0.91552734375,42.5567626953125,66.3909912109375
17.0099999,-9.627084732055664,2.183511972427368,2.8850131034851074,-21.2554931640625,-1.3580322265625,54.7943115234375
17.0299999,-9.289502143859863,1.455674648284912,3.2848446369171143,-10.7879638671875,8.5906982421875,3.96728515625
17.0499999,-9.028534889221191,0.8259995579719543,3.2992098331451416,9.1705322265625,36.9415283203125,-8.3160400390625
17.0699999,-8.772355079650879,0.5937620401382446,3.378218650817871,15.7928466796875,33.7677001953125,7.38525390625
17.089999900000002,-8.47786808013916,0.8164227604866028,3.624821424484253,16.17431640625,-1.46484375,14.8162841796875
17.109999900000002,-8.154650688171387,0.8906430602073669,3.8379054069519043,20.93505859375,-32.4249267578125,7.904052734375
17.1299999,-7.994239330291748,0.7805097699165344,3.8786067962646484,42.4957275390625,-22.216796875,-5.950927734375
17.1499999,-8.152256965637207,0.6272808313369751,3.399766445159912,57.1746826171875,-9.429931640625,-19.7906494140625
17.1699999,-8.573636054992676,0.38546648621559143,2.9257144927978516,66.9097900390625,-4.21142578125,-6.072998046875
17.1899999,-9.07641887664795,0.18914192914962769,2.513911724090576,73.211669921875,-10.07080078125,4.2877197265625
17.2099999,-9.521739959716797,-0.05027823522686958,2.434903144836426,84.5489501953125,-13.3056640625,-4.6539306640625
17.2299999,-9.8784761428833,-0.5099649429321289,2.3750481605529785,98.9532470703125,-12.7105712890625,-14.4805908203125
17.249999900000002,-10.249577522277832,-0.7637503147125244,2.2194249629974365,106.3385009765625,-5.31005859375,-21.728515625
17.269999900000002,-10.60152530670166,-0.950498104095459,2.145204782485962,118.804931640625,16.7236328125,-13.7481689453125
17.2899999,-10.824186325073242,-0.9696516990661621,2.1547815799713135,130.2337646484375,24.383544921875,4.45556640625
17.3099999,-10.795455932617188,-0.9672574996948242,2.434903144836426,134.7808837890625,8.3465576171875,12.02392578125
17.3299999,-10.524910926818848,-1.0630255937576294,2.9233202934265137,144.561767578125,-6.2103271484375,12.6800537109375
17.3499999,-10.156203269958496,-1.2114660739898682,3.2776620388031006,150.2227783203125,-18.06640625,22.1405029296875
17.3699999,-9.768342971801758,-1.5921441316604614,3.383007049560547,146.9879150390625,-25.115966796875,41.259765625
17.3899999,-9.452308654785156,-1.8986018896102905,3.19865345954895,144.4549560546875,-25.87890625,42.90771484375
17.409999900000003,-9.07641887664795,-2.4684219360351562,2.8347349166870117,141.4642333984375,-30.8685302734375,39.459228515625
17.429999900000002,-8.674192428588867,-2.978386878967285,2.365471363067627,135.1165771484375,-40.0390625,31.9976806640625
17.4499999,-8.305485725402832,-3.579331636428833,1.6424223184585571,121.7803955078125,-52.490234375,20.8892822265625
17.4699999,-8.008605003356934,-4.216189384460449,0.6727706789970398,103.9276123046875,-48.675537109375,1.556396484375
17.4899999,-7.910442352294922,-4.829104900360107,-0.5841852426528931,81.3446044921875,-29.23583984375,-31.829833984375
17.5099999,-8.123526573181152,-4.874594688415527,-1.8076223134994507,66.6046142578125,-12.908935546875,-65.093994140625
17.5299999,-8.554482460021973,-4.587290287017822,-2.7509377002716064,49.6978759765625,-9.8876953125,-56.976318359375
17.5499999,-9.17936897277832,-3.93367338180542,-3.2968156337738037,26.6876220703125,-17.974853515625,-34.942626953125
17.5699999,-9.9000244140625,-3.3710360527038574,-3.6990416049957275,-9.0789794921875,-29.1595458984375,-37.1551513671875
17.589999900000002,-10.611102104187012,-2.9927520751953125,-4.043806552886963,-33.721923828125,-16.1590576171875,-53.4515380859375
17.609999900000002,-11.243170738220215,-2.782062292098999,-4.422090530395508,-48.919677734375,5.7373046875,-52.7191162109375
17.6299999,-11.765107154846191,-2.4468741416931152,-4.711789131164551,-68.4356689453125,11.688232421875,-30.6243896484375
17.6499999,-12.078747749328613,-1.920149803161621,-4.692635536193848,-82.305908203125,10.8184814453125,-11.9476318359375
17.6699999,-12.124237060546875,-1.4987702369689941,-4.426878929138184,-91.2628173828125,5.5084228515625,5.4168701171875
17.6899999,-11.870451927185059,-1.4221558570861816,-4.019864559173584,-107.72705078125,-1.3580322265625,12.359619140625
17.7099999,-11.48259162902832,-1.647210717201233,-3.5649664402008057,-127.99072265625,0.946044921875,-7.5836181640625
17.7299999,-11.08754825592041,-1.8339585065841675,-3.1866824626922607,-145.050048828125,6.04248046875,-45.4559326171875
17.749999900000002,-10.78587818145752,-1.4915876388549805,-2.7078421115875244,-148.9105224609375,17.333984375,-63.232421875
17.769999900000002,-10.613495826721191,-0.5386953949928284,-2.070984363555908,-143.890380859375,17.852783203125,-45.5322265625
17.7899999,-10.623072624206543,1.072602391242981,-1.5729905366897583,-140.5487060546875,-3.7384033203125,-25.69580078125
17.8099999,-10.65898609161377,2.4133553504943848,-1.1971008777618408,-135.498046875,-9.002685546875,-7.659912109375
17.8299999,-10.781089782714844,3.3016040325164795,-0.9050082564353943,-122.74169921875,16.9525146484375,-1.9378662109375
17.8499999,-11.027692794799805,3.8091750144958496,-0.8164227604866028,-122.955322265625,18.341064453125,-7.2174072265625
17.8699999,-11.322179794311523,3.9217023849487305,-0.38307225704193115,-116.2109375,21.1334228515625,10.9710693359375
17.8899999,-11.69806957244873,4.050989151000977,-0.047884032130241394,-108.45947265625,26.4739990234375,34.5611572265625
17.909999900000003,-11.985373497009277,3.9671921730041504,0.1149216815829277,-107.2998046875,42.6483154296875,49.530029296875
17.929999900000002,-12.030863761901855,3.840299606323242,0.49559974670410156,-81.8939208984375,89.4012451171875,45.1507568359375
17.9499999,-11.741165161132812,3.6080620288848877,1.115697979927063,-58.3343505859375,95.489501953125,46.6461181640625
17.9699999,-11.233593940734863,3.5051112174987793,1.8770540952682495,-64.6209716796875,44.8455810546875,60.9893798828125
17.9899999,-10.096348762512207,3.1938650608062744,2.169146776199341,-36.8194580078125,47.18017578125,78.2623291015625
18.0099999,-9.47146224975586,2.279279947280884,1.7860745191574097,-4.69970703125,99.8382568359375,58.16650390625
18.0299999,-8.822632789611816,1.3718775510787964,1.843535304069519,15.106201171875,95.6573486328125,-2.3345947265625
18.0499999,-8.310274124145508,0.9816226959228516,2.207453966140747,-25.238037109375,-0.42724609375,-31.3568115234375
18.0699999,-8.154650688171387,1.3718775510787964,2.8131868839263916,-31.7230224609375,-40.4815673828125,17.242431640625
18.089999900000002,-8.470685958862305,2.185906171798706,2.851494312286377,-7.8125,-10.8642578125,69.0460205078125
18.109999900000002,-9.033323287963867,2.7724854946136475,2.3535003662109375,-2.471923828125,3.8299560546875,60.699462890625
18.1299999,-9.579200744628906,2.8610711097717285,1.9967641830444336,7.659912109375,2.8533935546875,20.294189453125
18.1499999,-9.926360130310059,2.913743495941162,1.9584569931030273,22.27783203125,-11.444091796875,10.5438232421875
18.1699999,-10.091560363769531,3.313575267791748,2.255337953567505,45.6390380859375,-26.55029296875,43.8079833984375
18.1899999,-10.103530883789062,3.670311212539673,2.734178304672241,72.0977783203125,-32.501220703125,78.2318115234375
18.2099999,-10.043676376342773,3.579331636428833,2.9041666984558105,91.4154052734375,-41.6259765625,64.1632080078125
18.2299999,-9.974244117736816,2.8131868839263916,2.738966703414917,104.705810546875,-38.1622314453125,26.42822265625
18.249999900000002,-9.923966407775879,1.7812861204147339,2.2840683460235596,119.8272705078125,-13.1683349609375,10.1165771484375
18.269999900000002,-9.928754806518555,1.091755986213684,1.9345149993896484,135.986328125,0.7781982421875,18.402099609375
18.2899999,-9.921571731567383,0.8858546018600464,1.9704279899597168,144.9432373046875,-15.869140625,38.726806640625
18.3099999,-9.835380554199219,0.8858546018600464,2.5067291259765625,144.5465087890625,-49.6063232421875,59.6771240234375
18.3299999,-9.718064308166504,0.6967126727104187,3.1435868740081787,146.5301513671875,-75.9735107421875,68.756103515625
18.3499999,-9.619902610778809,-0.033518824726343155,3.397372245788574,147.2320556640625,-87.646484375,61.4471435546875
18.3699999,-9.603142738342285,-0.9696516990661621,3.19865345954895,159.271240234375,-70.404052734375,27.923583984375
18.3899999,-9.552865028381348,-2.118868589401245,2.6168625354766846,158.0657958984375,-55.9539794921875,10.19287109375
18.409999900000003,-9.366117477416992,-3.066972494125366,1.941697597503662,148.8800048828125,-53.9703369140625,-0.3814697265625
18.429999900000002,-9.002198219299316,-3.507505416870117,1.4460978507995605,145.111083984375,-55.60302734375,-22.5982666015625
18.4499999,-8.485051155090332,-3.7181951999664307,1.2545616626739502,141.815185546875,-60.85205078125,-29.449462890625
18.4699999,-8.08282470703125,-3.550601005554199,1.1851298809051514,126.0833740234375,-82.3822021484375,-22.186279296875
18.4899999,-7.994239330291748,-3.31118106842041,1.1755530834197998,104.9652099609375,-103.6376953125,-13.6871337890625
18.5099999,-8.233659744262695,-3.1268274784088135,0.9313444495201111,83.6181640625,-115.753173828125,-10.0555419921875
18.5299999,-8.688557624816895,-3.138798475265503,0.5171475410461426,72.6318359375,-113.1591796875,-15.19775390625
18.5499999,-9.313444137573242,-3.3063924312591553,-0.11971008777618408,52.8411865234375,-116.3330078125,-26.06201171875
18.5699999,-10.070012092590332,-3.337517261505127,-0.9959878921508789,14.16015625,-123.016357421875,-39.825439453125
18.589999900000002,-10.939107894897461,-3.754108190536499,-2.387019157409668,-8.5601806640625,-108.5052490234375,-31.7230224609375
18.609999900000002,-11.860875129699707,-4.02465295791626,-3.8067808151245117,-24.0936279296875,-30.2581787109375,-56.732177734375
18.6299999,-12.701239585876465,-4.19224739074707,-5.0685248374938965,-40.557861328125,27.313232421875,-92.1783447265625
18.6499999,-13.321338653564453,-3.821146011352539,-5.394136428833008,-60.6231689453125,39.337158203125,-90.7745361328125
18.6699999,-13.759477615356445,-2.9448680877685547,-4.955997467041016,-87.188720703125,13.885498046875,-46.7681884765625
18.6899999,-14.075511932373047,-1.900996208190918,-4.125209331512451,-114.593505859375,-1.129150390625,-2.3956298828125
18.7099999,-14.271836280822754,-1.0079588890075684,-3.663128614425659,-137.26806640625,12.664794921875,2.227783203125
18.7299999,-14.214375495910645,-0.5267243981361389,-3.648763418197632,-147.0794677734375,46.966552734375,-1.4190673828125
18.749999900000002,-13.833697319030762,-0.27054479718208313,-3.885789394378662,-149.4598388671875,75.9735107421875,4.0130615234375
18.769999900000002,-13.079524040222168,-0.1867477297782898,-4.082113742828369,-158.75244140625,83.2366943359375,4.547119140625
18.7899999,-12.081141471862793,-0.3064578175544739,-4.060565948486328,-162.5823974609375,88.0126953125,-17.5628662109375
18.8099999,-11.001357078552246,-0.3519476354122162,-3.600879430770874,-156.524658203125,98.6328125,-55.3741455078125
18.8299999,-10.007762908935547,-0.1173158809542656,-2.626439332962036,-146.2860107421875,92.6055908203125,-67.535400390625
18.8499999,-9.318233489990234,0.6943184733390808,-1.3886369466781616,-146.331787109375,47.36328125,-47.4090576171875
18.8699999,-9.093177795410156,1.5418659448623657,-0.2992752194404602,-148.5137939453125,10.4827880859375,-19.8516845703125
18.8899999,-9.41400146484375,2.2601263523101807,0.038307227194309235,-148.956298828125,21.8658447265625,-20.32470703125
18.909999900000003,-10.11789608001709,2.6240451335906982,0.1412578970193863,-125.3814697265625,81.6192626953125,-40.924072265625
18.929999900000002,-10.81460952758789,2.7317841053009033,0.5386953949928284,-102.325439453125,105.4840087890625,-35.2935791015625
18.9499999,-11.293449401855469,3.2369606494903564,1.4867992401123047,-106.3995361328125,46.0662841796875,-12.969970703125
18.9699999,-11.489773750305176,3.624821424484253,2.4612393379211426,-110.0311279296875,-9.613037109375,25.20751953125
18.9899999,-11.504138946533203,3.928884983062744,2.7485435009002686,-90.5303955078125,14.007568359375,41.6259765625
19.0099999,-11.396400451660156,3.56017804145813,2.4157495498657227,-62.6220703125,74.554443359375,31.951904296875
19.0299999,-11.092336654663086,3.00711727142334,1.8339585065841675,-55.7861328125,80.13916015625,5.9967041015625
19.0499999,-10.582371711730957,2.4684219360351562,1.4724340438842773,-58.10546875,39.215087890625,-2.4871826171875
19.0699999,-10.022128105163574,2.0398597717285156,1.1659762859344482,-44.3115234375,31.2957763671875,14.9078369140625
19.089999900000002,-9.569623947143555,1.8746598958969116,1.048660397529602,-5.0201416015625,80.352783203125,5.4473876953125
19.109999900000002,-9.318233489990234,1.8531121015548706,1.3000515699386597,31.280517578125,100.9521484375,-21.331787109375
19.1299999,-9.279925346374512,2.0159177780151367,1.9081788063049316,24.0325927734375,38.0706787109375,-15.2587890625
19.1499999,-9.349357604980469,2.343923568725586,2.8419175148010254,15.7928466796875,-10.284423828125,23.9715576171875
19.1699999,-9.59596061706543,2.82515811920166,3.227383852005005,39.2303466796875,-8.6822509765625,38.787841796875
19.1899999,-9.93593692779541,2.875436305999756,2.9161376953125,66.1468505859375,9.613037109375,43.548583984375
19.2099999,-10.247182846069336,2.604891538619995,2.209848165512085,85.75439453125,20.08056640625,37.5518798828125
19.2299999,-10.398017883300781,2.070984363555908,1.577778935432434,91.30859375,10.8489990234375,37.8570556640625
19.249999900000002,-10.33098030090332,1.4628572463989258,1.3024457693099976,101.0589599609375,0.8392333984375,52.398681640625
19.269999900000002,-10.156203269958496,1.1755530834197998,1.3910311460494995,116.851806640625,-12.0697021484375,64.3310546875
19.2899999,-10.036493301391602,1.0414776802062988,1.800439715385437,129.21142578125,-33.9813232421875,91.8426513671875
19.3099999,-10.067618370056152,0.6655880808830261,2.1715409755706787,128.448486328125,-64.9871826171875,133.23974609375
19.3299999,-10.237606048583984,0.05027823522686958,2.43011474609375,138.1988525390625,-73.822021484375,133.6822509765625
19.3499999,-10.47702693939209,-1.256955862045288,2.2002713680267334,148.3001708984375,-68.8323974609375,106.75048828125
19.3699999,-10.65898609161377,-2.7724854946136475,1.577778935432434,153.3203125,-53.375244140625,69.2138671875
19.3899999,-10.699687004089355,-4.122815132141113,0.8786720037460327,159.24072265625,-27.2674560546875,33.63037109375
19.409999900000003,-10.60152530670166,-4.81473970413208,0.363918662071228,154.11376953125,-17.8070068359375,18.310546875
19.429999900000002,-10.357316970825195,-4.807557106018066,0.33997663855552673,148.2086181640625,-27.5421142578125,23.712158203125
19.4499999,-9.967061996459961,-4.434061527252197,0.7206547260284424,135.2996826171875,-52.3529052734375,41.839599609375
19.4699999,-9.569623947143555,-3.912125587463379,1.1875240802764893,123.59619140625,-80.2154541015625,42.2210693359375
19.4899999,-9.210494041442871,-3.667917013168335,1.4867992401123047,112.884521484375,-99.5941162109375,37.017822265625
19.5099999,-9.002198219299316,-4.141968727111816,0.5889736413955688,82.9620361328125,-114.3646240234375,18.890380859375
19.5299999,-9.11233139038086,-4.702212333679199,-0.47644615173339844,76.0498046875,-100.860595703125,-7.6751708984375
19.5499999,-9.315838813781738,-5.051765441894531,-1.6831238269805908,66.3909912109375,-85.4949951171875,-36.92626953125
19.5699999,-9.548076629638672,-5.080495834350586,-2.7724854946136475,44.219970703125,-77.178955078125,-47.18017578125
19.589999900000002,-9.84256362915039,-4.941632270812988,-3.581725835800171,22.613525390625,-71.807861328125,-39.85595703125
19.609999900000002,-10.24239444732666,-4.477157115936279,-4.151545524597168,6.7596435546875,-59.4940185546875,-50.872802734375
19.6299999,-10.716446876525879,-4.05817174911499,-4.5394062995910645,-19.317626953125,-45.5474853515625,-58.135986328125
19.6499999,-11.221623420715332,-3.5936968326568604,-4.771644115447998,-44.5098876953125,-29.8614501953125,-52.6885986328125
19.6699999,-11.650185585021973,-3.141192674636841,-4.817133903503418,-69.4427490234375,-20.69091796875,-45.074462890625
19.6899999,-11.963826179504395,-2.6623523235321045,-4.6471452713012695,-91.5985107421875,-16.510009765625,-40.496826171875
19.7099999,-12.102689743041992,-2.365471363067627,-4.448426723480225,-117.1875,-18.7225341796875,-33.14208984375
19.7299999,-12.083536148071289,-2.161964178085327,-4.153939723968506,-137.1307373046875,-7.2784423828125,-32.1044921875
19.749999900000002,-11.918335914611816,-1.8746598958969116,-3.9217023849487305,-148.956298828125,7.87353515625,-44.525146484375
19.769999900000002,-11.602301597595215,-1.5442601442337036,-3.6391866207122803,-157.6080322265625,16.7083740234375,-47.149658203125
19.7899999,-11.240777015686035,-0.9816226959228516,-3.315969467163086,-160.3851318359375,24.0936279296875,-49.49951171875
19.8099999,-10.864887237548828,-0.2537853717803955,-2.801215887069702,-157.6690673828125,32.3028564453125,-54.931640625
19.8299999,-10.582371711730957,0.5722141861915588,-2.185906171798706,-148.1170654296875,30.5328369140625,-56.4727783203125
19.8499999,-10.450690269470215,1.3311761617660522,-1.6328455209732056,-147.52197265625,11.474609375,-43.8079833984375
19.8699999,-10.529699325561523,1.8148049116134644,-1.3287819623947144,-145.5230712890625,5.859375,-28.2745361328125
