# Time (seconds),Accel_X,Accel_Y,Accel_Z,Gyro_X,Gyro_Y,Gyro_Z
0.0099999,3.114856481552124,-0.6153098344802856,9.284713745117188,-1.9989013671875,1.3885498046875,1.251220703125
0.029999900000000003,3.1196448802948,-0.6536170840263367,9.255983352661133,0.732421875,-0.152587890625,3.3111572265625
0.0499999,3.1244332790374756,-0.629675030708313,9.246406555175781,-0.0457763671875,1.52587890625,0.946044921875
0.0699999,3.1292216777801514,-0.6033388376235962,9.17936897277832,-3.1585693359375,2.8228759765625,0.91552734375
0.08999990000000001,3.1268274784088135,-0.5961562395095825,9.124302864074707,-5.035400390625,6.622314453125,3.4637451171875
0.10999990000000001,3.1220390796661377,-0.5793967843055725,9.062053680419922,-6.8511962890625,9.6282958984375,1.52587890625
0.1299999,3.1076738834381104,-0.6584054827690125,9.028534889221191,-7.1563720703125,12.26806640625,0.335693359375
0.14999990000000002,3.0837318897247314,-0.7158663272857666,9.057265281677246,-5.3558349609375,15.13671875,-3.4332275390625
0.1699999,3.0526070594787598,-0.727837324142456,9.083600997924805,-4.7607421875,15.5487060546875,-5.5389404296875
0.1899999,3.0142998695373535,-0.8092401623725891,9.155426979064941,-7.1563720703125,16.4947509765625,0.0152587890625
0.20999990000000002,2.9688100814819336,-0.849941611289978,9.210494041442871,-5.2337646484375,18.5699462890625,-4.9591064453125
0.2299999,2.911349296569824,-0.8954314589500427,9.224859237670898,-5.950927734375,18.2952880859375,-14.3585205078125
0.2499999,2.846705913543701,-0.9050082564353943,9.299078941345215,-5.4931640625,23.101806640625,-12.359619140625
0.2699999,2.784456491470337,-0.8451532125473022,9.351752281188965,-4.6539306640625,22.1710205078125,-7.87353515625
0.28999990000000003,2.736572504043579,-0.7733271718025208,9.370905876159668,-1.9073486328125,17.242431640625,-8.148193359375
0.3099999,2.7054479122161865,-0.790086567401886,9.421183586120605,2.25830078125,22.0489501953125,-11.9171142578125
0.3299999,2.676717519760132,-0.790086567401886,9.41639518737793,1.4495849609375,23.8494873046875,-16.41845703125
0.34999990000000003,2.6360161304473877,-0.8092401623725891,9.397241592407227,-0.30517578125,19.8974609375,-14.862060546875
0.3699999,2.5546131134033203,-0.7781155705451965,9.425971984863281,1.5106201171875,22.5830078125,-12.786865234375
0.3899999,2.427720546722412,-0.6224924325942993,9.476250648498535,-2.3193359375,23.49853515625,-15.594482421875
0.40999990000000003,2.2385785579681396,-0.3663128614425659,9.555258750915527,-4.7149658203125,20.4620361328125,-12.603759765625
0.4299999,1.9704279899597168,0.22026655077934265,9.670180320739746,-7.476806640625,20.01953125,-4.1351318359375
0.4499999,1.6089035272598267,1.3239935636520386,9.718064308166504,5.126953125,23.98681640625,13.519287109375
0.4699999,1.1875240802764893,2.8802247047424316,10.077195167541504,35.888671875,38.6810302734375,47.943115234375
0.4899999,0.7541735172271729,4.541800498962402,10.656591415405273,35.247802734375,25.054931640625,103.8665771484375
0.5099999,0.3734954595565796,6.052541732788086,11.259930610656738,9.3841552734375,-22.186279296875,150.6500244140625
0.5299999,0.0454898327589035,6.593631267547607,11.686098098754883,4.180908203125,-37.7197265625,198.8067626953125
0.5499999,-0.2082955539226532,6.076483726501465,11.54244613647461,9.2010498046875,-28.9306640625,225.9063720703125
0.5699999,-0.2106897532939911,3.0310592651367188,11.018115997314453,13.73291015625,-16.5863037109375,243.2098388671875
0.5899998999999999,0.06224924325942993,-1.0630255937576294,10.089165687561035,-15.7470703125,-28.50341796875,164.642333984375
0.6099998999999999,0.6799532771110535,-5.552153587341309,9.265560150146484,-47.9583740234375,-28.80859375,31.951904296875
0.6299999,1.5203180313110352,-9.600749015808105,8.401253700256348,-21.6217041015625,-12.6495361328125,17.242431640625
0.6499999,2.3511061668395996,-12.064382553100586,7.728483200073242,5.4779052734375,-1.312255859375,-10.4827880859375
0.6699999,2.9281086921691895,-13.366827964782715,7.338228225708008,5.9661865234375,3.72314453125,-79.4219970703125
0.6899999,3.1699230670928955,-13.747506141662598,7.1921820640563965,-5.5389404296875,4.974365234375,-150.0396728515625
0.7099999,3.0095114707946777,-13.316550254821777,7.247248649597168,-6.0272216796875,12.359619140625,-183.441162109375
0.7299998999999999,2.427720546722412,-11.889605522155762,7.292738437652588,2.3193359375,23.1170654296875,-218.902587890625
0.7499998999999999,1.501164436340332,-9.165003776550293,7.445967197418213,5.5999755859375,39.794921875,-267.181396484375
0.7699999,0.5099649429321289,-5.305551052093506,8.063671112060547,7.6751708984375,58.4869384765625,-260.498046875
0.7899999,-0.43095630407333374,-0.7422025203704834,8.884882926940918,7.6141357421875,42.8314208984375,-176.6204833984375
0.8099999,-1.0773907899856567,3.861847400665283,9.979032516479492,-8.087158203125,19.95849609375,-111.2518310546875
0.8299999,-1.41257905960083,7.663839817047119,10.87446403503418,-12.2528076171875,19.9127197265625,-80.9783935546875
0.8499998999999999,-1.5275006294250488,10.285490036010742,11.544840812683105,0.0152587890625,25.4364013671875,-42.29736328125
0.8699998999999999,-1.5610195398330688,12.076353073120117,11.858481407165527,9.2620849609375,5.5999755859375,24.3988037109375
0.8899999,-1.745373010635376,13.469779014587402,11.616666793823242,0.9765625,-33.2794189453125,162.872314453125
0.9099999,-2.03507137298584,13.050793647766113,10.919954299926758,10.1470947265625,-21.1181640625,224.3499755859375
0.9299999,-2.3774423599243164,11.27190113067627,10.098742485046387,25.0091552734375,-1.28173828125,290.6494140625
0.9499999,-2.3798365592956543,6.907271862030029,9.63187313079834,29.754638671875,3.3721923828125,316.864013671875
0.9699998999999999,-1.8938134908676147,1.3407529592514038,9.418789863586426,0,-19.4549560546875,206.6497802734375
0.9899998999999999,-0.8259995579719543,-4.8051629066467285,9.655815124511719,-36.07177734375,-28.076171875,80.6732177734375
1.0099999,0.608127236366272,-10.218452453613281,9.694122314453125,-20.69091796875,-24.5513916015625,79.620361328125
1.0299999,1.9800047874450684,-13.52005672454834,9.550470352172852,-0.4730224609375,-17.4560546875,47.3175048828125
1.0499999,2.9664158821105957,-15.267824172973633,9.29189682006836,1.8157958984375,-4.3182373046875,-26.7791748046875
1.0699999,3.4811692237854004,-15.775395393371582,8.911218643188477,-0.823974609375,-4.6539306640625,-86.334228515625
1.0899999,3.552995204925537,-15.19120979309082,8.571242332458496,-8.087158203125,-9.6588134765625,-124.053955078125
1.1099999,3.224989652633667,-13.663708686828613,8.154650688171387,-14.312744140625,-7.781982421875,-163.0859375
1.1299999,2.559401512145996,-11.693281173706055,7.785943984985352,-19.3023681640625,7.598876953125,-214.9505615234375
1.1499999,1.5945383310317993,-8.877699851989746,7.443572998046875,-18.9056396484375,22.6593017578125,-268.98193359375
1.1699998999999999,0.5027823448181152,-5.336675643920898,7.687781810760498,-10.7879638671875,40.130615234375,-267.6239013671875
1.1899998999999999,-0.5363011956214905,-0.9097966551780701,8.303091049194336,-9.5672607421875,32.1197509765625,-210.7391357421875
1.2099999,-1.292868971824646,3.579331636428833,9.363722801208496,-16.9830322265625,17.1051025390625,-141.510009765625
1.2299999,-1.6974890232086182,7.515398979187012,10.417171478271484,-20.01953125,10.2996826171875,-89.935302734375
1.2499999,-1.8052281141281128,10.283096313476562,11.288661003112793,-16.5557861328125,8.3770751953125,-47.454833984375
1.2699999,-1.7836803197860718,12.255918502807617,11.695674896240234,-5.859375,-6.805419921875,7.4005126953125
1.2899999,-1.7381904125213623,13.543998718261719,11.903970718383789,-5.0048828125,-16.1285400390625,86.822509765625
1.3099999,-1.8100165128707886,14.298172950744629,11.616666793823242,8.056640625,-26.947021484375,185.5010986328125
1.3299999,-2.073378562927246,14.168885231018066,11.133037567138672,28.7322998046875,-24.7955322265625,264.0228271484375
1.3499999,-2.5019407272338867,12.447454452514648,10.639832496643066,50.8575439453125,-9.5367431640625,330.902099609375
1.3699999,-2.6192567348480225,7.718906402587891,10.651803016662598,56.57958984375,-6.195068359375,365.631103515625
1.3899999,-2.2577321529388428,0.5817909836769104,10.793061256408691,21.026611328125,-42.510986328125,292.8466796875
1.4099999,-1.158793568611145,-6.342240333557129,11.05402946472168,-41.290283203125,-77.9876708984375,74.0814208984375
1.4299998999999999,0.38067805767059326,-12.895170211791992,10.87446403503418,-24.3682861328125,-57.3577880859375,32.7301025390625
1.4499999,1.968033790588379,-16.187198638916016,10.012551307678223,-0.274658203125,-41.015625,27.4810791015625
1.4699999,3.1220390796661377,-17.36993408203125,8.942343711853027,-13.0767822265625,-24.5361328125,-47.18017578125
1.4899999,3.7181951999664307,-17.049110412597656,7.718906402587891,-22.7203369140625,-17.51708984375,-128.2196044921875
1.5099999,3.754108190536499,-15.763423919677734,6.842628479003906,-17.242431640625,0.213623046875,-178.8787841796875
1.5299999,3.265691041946411,-13.493721008300781,6.210559368133545,-17.120361328125,13.61083984375,-215.6219482421875
1.5499999,2.367865562438965,-10.572794914245605,6.028599739074707,-32.867431640625,21.1181640625,-256.500244140625
1.5699999,1.2066776752471924,-7.003039836883545,6.275202751159668,-41.748046875,34.2559814453125,-288.238525390625
1.5899999,0.026336219161748886,-2.8443117141723633,6.995857238769531,-39.2608642578125,49.6978759765625,-275.482177734375
1.6099999,-0.9241618514060974,1.8195933103561401,8.154650688171387,-23.6663818359375,60.302734375,-213.8214111328125
1.6299999,-1.4652514457702637,6.296750545501709,9.62947940826416,-19.5465087890625,50.384521484375,-129.058837890625
1.6499999,-1.601720929145813,9.883264541625977,11.113883972167969,-19.4549560546875,25.665283203125,-53.680419921875
1.6699999,-1.4748282432556152,12.440272331237793,12.358869552612305,-2.6092529296875,3.90625,-5.4779052734375
1.6899998999999999,-1.2976573705673218,13.97016716003418,13.096282958984375,7.2021484375,-11.41357421875,67.2454833984375
1.7099999,-1.235408067703247,14.585476875305176,13.208810806274414,18.1732177734375,-25.2838134765625,177.520751953125
1.7299999,-1.4269442558288574,14.554351806640625,12.6150484085083,35.369873046875,-33.5540771484375,264.984130859375
1.7499999,-1.946485996246338,13.10107135772705,11.657367706298828,55.6793212890625,-17.9901123046875,333.709716796875
1.7699999,-2.434903144836426,9.229647636413574,10.740388870239258,66.95556640625,0.8392333984375,382.354736328125
1.7899999,-2.4636335372924805,2.5306711196899414,10.06043529510498,46.1273193359375,-9.002685546875,349.9755859375
1.8099999,-1.7549498081207275,-4.774038314819336,9.552865028381348,-18.9666748046875,-37.994384765625,163.7115478515625
1.8299999,-0.2992752194404602,-11.712434768676758,9.334992408752441,-39.642333984375,-23.8800048828125,33.966064453125
1.8499999,1.4532804489135742,-16.268600463867188,8.966285705566406,-6.65283203125,-9.0789794921875,30.45654296875
1.8699999,2.913743495941162,-17.92538833618164,8.525752067565918,2.0294189453125,-13.1988525390625,-24.7344970703125
1.8899999,3.7612907886505127,-17.836803436279297,8.20492935180664,-5.5084228515625,-3.11279296875,-106.0943603515625
1.9099999,3.936067581176758,-16.510414123535156,7.898471355438232,-14.95361328125,8.0413818359375,-173.7060546875
1.9299998999999999,3.5003228187561035,-14.125789642333984,7.570465564727783,-13.7939453125,12.939453125,-212.3260498046875
1.9499999,2.6623523235321045,-10.982203483581543,7.486668586730957,-9.8724365234375,22.8424072265625,-236.26708984375
1.9699999,1.577778935432434,-7.266402244567871,7.570465564727783,-14.2669677734375,34.66796875,-249.8931884765625
1.9899999,0.5003881454467773,-3.2537200450897217,7.975085735321045,-30.242919921875,36.773681640625,-254.058837890625
2.0099999,-0.363918662071228,0.9409212470054626,8.695740699768066,-32.2723388671875,38.8031005859375,-216.36962890625
2.0299999,-0.9097966551780701,4.853046894073486,9.59596061706543,-20.20263671875,34.1949462890625,-144.9737548828125
2.0499999,-1.1085153818130493,8.085219383239746,10.522516250610352,-26.0009765625,19.10400390625,-76.873779296875
2.0699999,-1.0869675874710083,10.383652687072754,11.341333389282227,-20.477294921875,8.9874267578125,-34.36279296875
2.0899999,-0.9864110946655273,11.99255657196045,11.863269805908203,-10.68115234375,-7.2174072265625,13.1683349609375
2.1099999,-0.9696516990661621,13.134590148925781,12.136208534240723,-6.7596435546875,-20.721435546875,103.179931640625
2.1299999,-1.1563993692398071,13.886369705200195,12.016498565673828,9.0789794921875,-30.2276611328125,213.3331298828125
2.1499999,-1.6160861253738403,13.776236534118652,11.57357120513916,29.2510986328125,-34.332275390625,294.0826416015625
2.1699999,-2.3319525718688965,12.24155330657959,10.989385604858398,48.4771728515625,-23.86474609375,345.9320068359375
2.1899999,-2.937685489654541,8.508993148803711,10.529699325561523,51.20849609375,-20.050048828125,376.5869140625
2.2099999,-2.9233202934265137,1.7477672100067139,10.271124839782715,28.3660888671875,-33.599853515625,370.8953857421875
2.2299999,-2.145204782485962,-6.2416839599609375,9.911994934082031,-21.8658447265625,-61.767578125,211.883544921875
2.2499999,-0.5770025849342346,-13.275848388671875,9.605537414550781,-46.08154296875,-37.994384765625,-5.8746337890625
2.2699999,1.2186486721038818,-18.45690155029297,8.966285705566406,-5.462646484375,-10.43701171875,-23.92578125
2.2899999,2.698265314102173,-20.092140197753906,8.370129585266113,10.162353515625,-6.0272216796875,-32.3333740234375
2.3099999,3.471592426300049,-19.517532348632812,7.735665798187256,-3.7994384765625,-10.8184814453125,-123.9471435546875
2.3299999,3.514688014984131,-17.697938919067383,7.144298076629639,-14.9383544921875,-0.6256103515625,-206.329345703125
2.3499999,2.911349296569824,-14.990097045898438,6.588842868804932,-12.451171875,23.92578125,-243.6065673828125
2.3699999,1.8483237028121948,-11.322179794311523,6.1770405769348145,-16.3116455078125,39.337158203125,-271.759033203125
2.3899999,0.569819986820221,-7.1251444816589355,6.236895561218262,-17.6849365234375,54.718017578125,-294.189453125
2.4099999,-0.6584054827690125,-2.406172752380371,6.97430944442749,-25.238037109375,67.291259765625,-288.9862060546875
2.4299999,-1.98958158493042,7.137115478515625,10.158597946166992,-27.83203125,37.109375,-140.19775390625
2.4499999,-1.9584569931030273,10.869675636291504,11.834539413452148,-22.552490234375,2.0904541015625,-54.779052734375
2.4699999,-1.6112977266311646,13.366827964782715,13.014880180358887,-11.8255615234375,-15.56396484375,2.38037109375
2.4899999,-1.2042834758758545,14.717158317565918,13.558363914489746,4.8675537109375,-21.759033203125,70.25146484375
2.5099999,-0.9265560507774353,14.994885444641113,13.378799438476562,17.7459716796875,-41.7633056640625,172.7142333984375
2.5299999,-0.9816226959228516,14.52322769165039,12.75870132446289,37.53662109375,-50.506591796875,273.4527587890625
2.5499999,-1.482010841369629,12.914323806762695,11.791443824768066,59.7686767578125,-42.05322265625,347.0001220703125
2.5699999,-2.255337953567505,9.512163162231445,10.891223907470703,76.416015625,-24.84130859375,402.1759033203125
2.5899999,-2.650381326675415,3.3925838470458984,10.307038307189941,63.7664794921875,-24.2919921875,413.543701171875
2.6099999,-2.3965959548950195,-4.991910457611084,9.72285270690918,4.1656494140625,-58.3343505859375,303.2989501953125
2.6299999,-1.2018892765045166,-12.550405502319336,9.138668060302734,-56.2591552734375,-60.11962890625,40.34423828125
2.6499999,0.5027823448181152,-18.65083122253418,8.406042098999023,-28.350830078125,-6.2103271484375,-61.5692138671875
2.6699999,2.1523873805999756,-21.26529884338379,7.632715225219727,15.472412109375,15.716552734375,-49.8809814453125
2.6899999,3.117250680923462,-20.89659309387207,7.036558628082275,-2.01416015625,7.8125,-135.8642578125
2.7099999,3.335123062133789,-18.935741424560547,6.8378400802612305,-20.8282470703125,14.617919921875,-241.8060302734375
2.7299999,2.779668092727661,-15.98129653930664,6.761225700378418,-15.7928466796875,35.15625,-282.5775146484375
2.7499999,1.6496049165725708,-11.863269805908203,6.701370716094971,-24.0020751953125,36.7279052734375,-300.079345703125
2.7699999,0.3232172429561615,-7.0126166343688965,7.082048416137695,-28.900146484375,58.2733154296875,-314.2547607421875
2.7899999,-0.9361328482627869,-1.6280571222305298,7.819462776184082,-24.2919921875,71.075439453125,-295.9747314453125
2.8099999,-1.8171991109848022,3.9432501792907715,9.05247688293457,-23.406982421875,58.2122802734375,-228.82080078125
2.8299999,-2.2146365642547607,8.89445972442627,10.54406452178955,-23.468017578125,35.308837890625,-114.8681640625
2.8499999,-2.1380221843719482,12.667720794677734,11.947066307067871,-24.658203125,9.6282958984375,-28.3966064453125
2.8699999,-1.7884687185287476,14.94460678100586,12.866439819335938,-4.8828125,-12.2833251953125,22.5677490234375
2.8899999,-1.3862427473068237,15.928624153137207,13.311761856079102,11.16943359375,-25.238037109375,94.2535400390625
2.9099999,-1.1827356815338135,15.98129653930664,13.069947242736816,22.186279296875,-44.3572998046875,201.7669677734375
2.9299999,-1.3742717504501343,15.169661521911621,12.36605167388916,37.8570556640625,-50.1708984375,302.3681640625
2.9499999,-1.8962076902389526,12.677297592163086,11.420342445373535,54.534912109375,-37.3687744140625,373.3367919921875
2.9699999,-2.1571757793426514,6.6846113204956055,10.632649421691895,62.1337890625,-22.4609375,411.1785888671875
2.9899999,-1.8938134908676147,-1.7836803197860718,9.730035781860352,20.294189453125,-42.0074462890625,288.7115478515625
3.0099999,-0.7589619159698486,-9.655815124511719,9.07641887664795,-50.079345703125,-45.22705078125,10.6201171875
3.0299999,0.8978256583213806,-16.436195373535156,8.4108304977417,-28.6712646484375,-12.39013671875,-29.510498046875
3.0499999,2.5019407272338867,-19.31641960144043,7.783549785614014,3.8909912109375,-3.692626953125,-15.56396484375
3.0699999,3.552995204925537,-19.31641960144043,7.398083209991455,-4.8980712890625,-8.0108642578125,-118.6981201171875
3.0899999,3.88818359375,-18.011579513549805,7.266402244567871,-23.6663818359375,-4.69970703125,-205.9326171875
3.1099999,3.5482068061828613,-15.222334861755371,7.029376029968262,-37.7197265625,-3.0670166015625,-249.1912841796875
3.1299999,2.7317841053009033,-11.544840812683105,6.9024834632873535,-41.50390625,17.3797607421875,-254.486083984375
3.1499999,1.647210717201233,-7.1921820640563965,6.84981107711792,-34.5458984375,46.0052490234375,-257.0953369140625
3.1699999,0.5482721924781799,-2.7006595134735107,7.275979042053223,-42.17529296875,62.408447265625,-265.7928466796875
3.1899999,-0.3495534360408783,1.8363527059555054,8.255207061767578,-43.6248779296875,60.5316162109375,-237.4114990234375
3.2099999,-0.9145850539207458,6.222530364990234,9.588777542114258,-35.125732421875,42.4957275390625,-159.6221923828125
3.2299999,-1.1755530834197998,9.892841339111328,10.776301383972168,-9.552001953125,24.0936279296875,-57.1441650390625
3.2499999,-1.2186486721038818,13.110648155212402,11.774683952331543,13.61083984375,31.494140625,5.9661865234375
3.2699999,-1.2976573705673218,15.725116729736328,12.466608047485352,22.03369140625,30.4718017578125,80.3375244140625
3.2899999,-1.7381904125213623,17.3603572845459,12.516886711120605,22.918701171875,-10.2081298828125,251.4190673828125
3.3099999,-2.564189910888672,17.42739486694336,12.411541938781738,30.670166015625,-11.04736328125,400.848388671875
3.3299999000000002,-3.4380736351013184,13.929465293884277,12.069170951843262,82.6416015625,22.5982666015625,461.2884521484375
3.3499999,-3.6296098232269287,6.004657745361328,11.81059741973877,91.4764404296875,16.29638671875,400.9552001953125
3.3699999,-2.9041666984558105,-4.050989151000977,11.429919242858887,3.4332275390625,-40.8477783203125,187.07275390625
3.3899999,-1.0821791887283325,-12.701239585876465,11.118672370910645,-71.9146728515625,-54.8858642578125,-41.015625
3.4099999,1.070208191871643,-19.02432632446289,10.309432983398438,-25.2685546875,-32.5775146484375,-16.6168212890625
3.4299999,2.8347349166870117,-20.76251792907715,9.244012832641602,0.732421875,-23.2696533203125,-51.422119140625
3.4499999,3.7828385829925537,-20.226215362548828,8.128314971923828,-24.35302734375,-24.7802734375,-163.6199951171875
3.4699999,3.799597978591919,-18.198328018188477,7.161057472229004,-46.1273193359375,-9.3994140625,-236.724853515625
3.4899999,3.1220390796661377,-14.781801223754883,6.313509941101074,-44.6929931640625,8.60595703125,-273.223876953125
3.5099999,1.9153614044189453,-10.845733642578125,5.75326681137085,-30.1666259765625,39.794921875,-266.815185546875
3.5299999,0.5123591423034668,-6.282385349273682,5.746084213256836,-74.2034912109375,68.3441162109375,-281.4483642578125
3.5499999,-0.7422025203704834,-1.6136919260025024,6.5912370681762695,-107.9254150390625,89.935302734375,-285.8428955078125
3.5699999,-1.6735470294952393,3.1196448802948,8.219294548034668,-65.3839111328125,88.6688232421875,-216.1865234375
3.5899999,-2.140416383743286,7.4316020011901855,10.237606048583984,-29.60205078125,54.290771484375,-105.8502197265625
3.6099999,-2.207453966140747,10.8720703125,12.18409252166748,-18.7835693359375,28.564453125,-26.1688232421875
3.6299999,-2.097320795059204,13.136984825134277,13.536816596984863,-5.18798828125,12.115478515625,21.0113525390625
3.6499999,-2.011129379272461,14.353239059448242,14.271836280822754,10.2996826171875,-6.011962890625,102.23388671875
3.6699999,-2.099714994430542,14.774619102478027,14.314931869506836,15.533447265625,-31.6162109375,212.7532958984375
3.6899999,-2.403778553009033,14.183250427246094,13.872004508972168,40.0848388671875,-41.1529541015625,305.9234619140625
3.7099999,-2.918531894683838,12.29662036895752,13.074735641479492,78.9337158203125,-33.782958984375,348.8922119140625
3.7299999,-3.201047658920288,7.927201747894287,12.437877655029297,102.5238037109375,-28.13720703125,380.5389404296875
3.7499999,-2.920926094055176,0.5961562395095825,12.016498565673828,86.36474609375,-46.4324951171875,371.856689453125
3.7699999,-1.8818424940109253,-7.129932880401611,11.405977249145508,11.993408203125,-97.198486328125,163.2080078125
3.7899999,-0.23942017555236816,-14.235923767089844,10.357316970825195,-55.7708740234375,-96.282958984375,-12.20703125
3.8099999,1.5514427423477173,-19.033903121948242,8.932766914367676,-42.66357421875,-33.782958984375,-9.8114013671875
3.8299999000000002,2.8778305053710938,-20.240581512451172,7.12035608291626,-10.9100341796875,-4.3182373046875,-79.071044921875
3.8499999,3.4979286193847656,-19.61090660095215,5.7772088050842285,-11.5966796875,2.2430419921875,-178.9093017578125
3.8699999,3.335123062133789,-17.515979766845703,5.193023681640625,-31.6009521484375,28.2440185546875,-243.10302734375
3.8899999,2.494758129119873,-13.989320755004883,5.049371242523193,-42.4652099609375,33.538818359375,-291.6412353515625
3.9099999,1.280897855758667,-9.334992408752441,5.523423194885254,-42.78564453125,43.7774658203125,-301.1932373046875
3.9299999,-0.016759412363171577,-3.7493197917938232,6.5696892738342285,-42.755126953125,71.502685546875,-270.1263427734375
3.9499999,-1.6831238269805908,7.338228225708008,10.194510459899902,-17.547607421875,52.642822265625,-121.7193603515625
3.9699999,-1.8602946996688843,11.161767959594727,12.24394702911377,-16.693115234375,9.8876953125,-29.9530029296875
3.9899999,-1.7142484188079834,13.64455509185791,13.725957870483398,-13.8092041015625,-22.0947265625,22.3846435546875
4.0099999,-1.4628572463989258,14.72673511505127,14.511256217956543,2.777099609375,-31.646728515625,89.4775390625
4.029999900000001,-1.3192051649093628,14.702792167663574,14.288596153259277,19.805908203125,-49.713134765625,190.5364990234375
4.0499999,-1.3646949529647827,13.769054412841797,13.37161636352539,26.5045166015625,-64.75830078125,266.571044921875
4.069999900000001,-1.6615760326385498,11.616666793823242,12.042834281921387,49.13330078125,-46.6461181640625,316.0858154296875
4.0899999000000005,-1.9105730056762695,7.491456985473633,10.735600471496582,80.9326171875,-22.03369140625,355.5450439453125
4.1099999,-1.680729627609253,0.6057330369949341,9.828198432922363,82.9315185546875,-15.472412109375,354.8431396484375
4.1299999000000005,-0.8858546018600464,-7.16584587097168,9.124302864074707,22.3541259765625,-41.961669921875,184.8907470703125
4.1499999,0.5434837937355042,-13.893552780151367,8.552088737487793,-51.483154296875,-47.119140625,-34.24072265625
4.1699999000000005,2.1045033931732178,-18.626888275146484,7.869740962982178,-42.0989990234375,-11.749267578125,-30.792236328125
4.1899999,3.3039982318878174,-19.699491500854492,6.9240312576293945,-11.0626220703125,6.3018798828125,-51.5289306640625
4.209999900000001,3.8570590019226074,-18.511966705322266,6.14831018447876,-4.5013427734375,21.514892578125,-147.0794677734375
4.2299999,3.7229835987091064,-16.242263793945312,5.825092792510986,-10.009765625,50.4608154296875,-207.51953125
4.249999900000001,3.026270866394043,-12.746729850769043,5.841852188110352,-14.129638671875,52.1697998046875,-234.954833984375
4.2699999,2.0638017654418945,-8.276755332946777,6.469132900238037,-19.3328857421875,48.8433837890625,-238.525390625
4.289999900000001,1.036689281463623,-3.3423056602478027,7.515398979187012,-20.6756591796875,56.4422607421875,-205.0628662109375
4.3099999,0.14604631066322327,1.656787633895874,8.860940933227539,-10.6658935546875,58.16650390625,-160.491943359375
4.329999900000001,-0.49559974670410156,6.119579315185547,10.32858657836914,-2.8533935546875,43.6248779296875,-110.29052734375
4.3499999,-0.9074024558067322,9.53849983215332,11.60708999633789,-14.9383544921875,12.9547119140625,-41.56494140625
4.369999900000001,-1.1204863786697388,11.942277908325195,12.389993667602539,-15.3961181640625,-10.7269287109375,17.730712890625
4.3899999,-1.1899182796478271,13.400346755981445,12.658143997192383,2.3040771484375,-6.4239501953125,73.577880859375
4.409999900000001,-1.2401964664459229,14.262259483337402,12.552799224853516,31.8603515625,2.410888671875,150.665283203125
4.4299999,-1.460463047027588,14.238317489624023,12.310985565185547,56.0150146484375,-6.805419921875,254.2572021484375
4.449999900000001,-1.8794482946395874,12.983756065368652,12.143390655517578,56.854248046875,-20.416259765625,343.475341796875
4.4699999,-2.1475989818573,8.774748802185059,12.258312225341797,57.159423828125,-19.95849609375,393.768310546875
4.489999900000001,-2.027888774871826,1.316810965538025,11.99255657196045,51.33056640625,-40.9088134765625,339.2333984375
4.5099999,-1.2114660739898682,-6.596025466918945,11.216835021972656,-10.1470947265625,-64.3768310546875,107.940673828125
4.529999900000001,0.181959331035614,-14.183250427246094,10.259154319763184,-56.884765625,-29.4189453125,-9.8724365234375
4.5499999,1.6639702320098877,-18.89504051208496,8.877699851989746,-55.84716796875,-17.7001953125,-13.214111328125
4.569999900000001,2.6815059185028076,-20.41535758972168,7.508216381072998,-42.9534912109375,-32.379150390625,-107.208251953125
4.5899999000000005,3.0190882682800293,-20.061016082763672,6.493074893951416,-36.163330078125,-7.6751708984375,-209.014892578125
4.609999900000001,2.6192567348480225,-18.021156311035156,5.849034786224365,-31.280517578125,28.6712646484375,-272.03369140625
4.6299999000000005,1.6519991159439087,-14.401123046875,5.700594425201416,-40.9393310546875,28.1829833984375,-304.443359375
4.6499999,0.3974374830722809,-9.57201862335205,6.2416839599609375,-74.0966796875,17.364501953125,-307.4798583984375
4.6699999000000005,-0.8259995579719543,-3.9240965843200684,7.364564418792725,-88.592529296875,31.3873291015625,-292.816162109375
4.6899999,-1.7094600200653076,2.1356279850006104,8.78193187713623,-56.121826171875,47.3480224609375,-247.5128173828125
4.709999900000001,-2.0901381969451904,7.603984832763672,10.390835762023926,-24.2919921875,44.342041015625,-144.0887451171875
4.7299999,-1.9512743949890137,11.686098098754883,11.870451927185059,-15.869140625,14.2822265625,-28.7628173828125
4.749999900000001,-1.4915876388549805,14.247894287109375,12.890381813049316,-14.3890380859375,-13.824462890625,25.9857177734375
4.7699999,-0.9744400978088379,15.526397705078125,13.457807540893555,-1.03759765625,-18.9361572265625,79.8797607421875
4.789999900000001,-0.751779317855835,15.552734375,13.357251167297363,32.65380859375,-20.8740234375,204.52880859375
4.8099999,-0.9528923034667969,14.92066478729248,12.926295280456543,56.33544921875,-30.8380126953125,315.9942626953125
4.829999900000001,-1.6424223184585571,12.734758377075195,12.406753540039062,76.4312744140625,-27.435302734375,384.063720703125
4.8499999,-2.2194249629974365,7.486668586730957,12.114660263061523,87.5244140625,-24.2462158203125,425.5828857421875
4.869999900000001,-2.3271639347076416,-1.2737152576446533,11.729193687438965,56.549072265625,-49.1180419921875,384.857177734375
4.8899999,-1.5442601442337036,-10.02691650390625,10.979808807373047,-40.7257080078125,-88.0126953125,95.947265625
4.909999900000001,-0.0694318488240242,-17.62371826171875,9.859322547912598,-79.132080078125,-53.5125732421875,-84.3505859375
4.9299999,1.5682021379470825,-21.52387237548828,8.192957878112793,-33.447265625,-15.0146484375,-51.422119140625
4.949999900000001,2.75812029838562,-21.21741485595703,6.473921298980713,-12.6495361328125,1.6632080078125,-97.2137451171875
4.9699999,3.2800562381744385,-18.6484375,5.25527286529541,-27.2064208984375,22.2320556640625,-181.1065673828125
4.989999900000001,3.1675288677215576,-14.875175476074219,4.565742492675781,-46.112060546875,43.6859130859375,-203.9947509765625
5.0099999,2.6001031398773193,-10.144232749938965,4.46518611907959,-46.32568359375,57.7239990234375,-192.87109375
5.029999900000001,1.8315643072128296,-5.003881454467773,4.960785865783691,-26.8402099609375,77.1484375,-173.1109619140625
5.0499999,1.1300631761550903,0.1388636976480484,6.268020153045654,7.0343017578125,101.9134521484375,-139.8162841796875
5.069999900000001,0.6823474764823914,4.580107688903809,8.271966934204102,17.6544189453125,97.4884033203125,-73.7762451171875
5.0899999000000005,0.5434837937355042,7.364564418792725,10.335768699645996,3.143310546875,42.236328125,11.77978515625
5.109999900000001,0.7398083209991455,8.29590892791748,11.93509578704834,-19.6380615234375,16.357421875,35.7208251953125
5.1299999000000005,1.070208191871643,7.38132381439209,12.524068832397461,-28.0609130859375,39.9017333984375,21.7437744140625
5.1499999,1.3766659498214722,5.348646640777588,12.140996932983398,-26.7333984375,58.563232421875,24.2767333984375
5.1699999000000005,1.5275006294250488,3.2537200450897217,11.197681427001953,-20.904541015625,52.3681640625,38.57421875
5.1899999,1.4867992401123047,1.6974890232086182,10.08437728881836,-27.7557373046875,41.4886474609375,43.0145263671875
5.209999900000001,1.2952631711959839,0.730231523513794,9.148244857788086,-32.28759765625,59.3109130859375,55.23681640625
5.2299999,1.036689281463623,0.1604115068912506,8.513781547546387,-17.730712890625,76.8890380859375,70.4345703125
5.249999900000001,0.7948749661445618,-0.07900865375995636,8.60236644744873,1.5869140625,77.5909423828125,73.974609375
5.2699999,0.6105214357376099,-0.2059013396501541,9.53849983215332,-1.9073486328125,59.7686767578125,72.540283203125
5.289999900000001,0.4572925269603729,-0.10295066982507706,11.051634788513184,-20.7366943359375,27.9388427734375,77.423095703125
5.3099999,0.29209262132644653,0.3256114423274994,12.60547161102295,-32.16552734375,-4.3182373046875,94.635009765625
5.329999900000001,0.1364694982767105,0.4908113479614258,13.785813331604004,-27.740478515625,-24.3988037109375,126.5869140625
5.3499999,0.033518824726343155,-0.23702596127986908,14.195221900939941,-6.500244140625,-30.029296875,141.8609619140625
5.369999900000001,0.08140286058187485,-1.3646949529647827,14.245500564575195,2.6397705078125,-29.4647216796875,88.6993408203125
5.3899999,0.27054479718208313,-3.1435868740081787,14.070723533630371,-19.2108154296875,-44.2657470703125,63.2476806640625
5.409999900000001,0.5291185975074768,-4.6734819412231445,13.955801963806152,-46.0052490234375,-74.7528076171875,70.6787109375
5.4299999,0.7876923680305481,-5.65031623840332,13.848062515258789,-41.778564453125,-89.0350341796875,60.8673095703125
5.449999900000001,0.9648633003234863,-6.260837554931641,13.656526565551758,-23.834228515625,-87.6922607421875,35.3546142578125
5.4699999,1.0438719987869263,-6.67982292175293,13.129801750183105,-34.2254638671875,-103.8818359375,21.392822265625
5.489999900000001,1.048660397529602,-7.2113356590271,11.494562149047852,-30.3955078125,-124.0386962890625,-3.997802734375
5.5099999,1.0319008827209473,-7.496245384216309,10.311826705932617,-14.739990234375,-130.340576171875,-30.21240234375
5.529999900000001,1.1037269830703735,-8.094796180725098,9.141061782836914,-1.312255859375,-122.37548828125,-47.6226806640625
5.5499999,1.2497732639312744,-8.765172004699707,7.905653953552246,1.28173828125,-115.020751953125,-63.4918212890625
5.569999900000001,1.460463047027588,-9.354146003723145,6.655880928039551,-6.591796875,-115.05126953125,-95.76416015625
5.5899999000000005,1.6376339197158813,-9.945513725280762,5.6455278396606445,-7.0648193359375,-98.6328125,-124.908447265625
5.609999900000001,1.678335428237915,-9.923966407775879,4.584896087646484,-7.0648193359375,-90.2099609375,-159.6527099609375
5.6299999000000005,1.5514427423477173,-9.445125579833984,3.6607344150543213,-13.0615234375,-80.8563232421875,-174.3011474609375
5.6499999,1.3120225667953491,-8.341399192810059,2.695871114730835,-8.026123046875,-58.807373046875,-179.0618896484375
5.6699999000000005,1.0247182846069336,-6.878541469573975,1.7166426181793213,2.8533935546875,-30.0140380859375,-182.830810546875
5.6899999,0.8690952062606812,-5.12119722366333,0.9217676520347595,3.570556640625,2.3956298828125,-193.2373046875
5.709999900000001,0.8595184087753296,-3.450044631958008,0.28730419278144836,0.9918212890625,27.0538330078125,-179.4586181640625
5.7299999,0.9720458984375,-1.764526605606079,-0.028730420395731926,-0.5035400390625,52.764892578125,-167.327880859375
5.749999900000001,1.1755530834197998,-0.11013327538967133,0.2082955539226532,-2.838134765625,89.35546875,-164.093017578125
5.7699999,1.3120225667953491,1.1013327836990356,0.8236053586006165,-13.1683349609375,104.949951171875,-139.1448974609375
5.789999900000001,1.3431471586227417,2.4372973442077637,1.9823989868164062,-26.031494140625,110.748291015625,-128.814697265625
5.8099999,1.2306196689605713,3.641580820083618,3.5458126068115234,-20.7061767578125,127.197265625,-105.438232421875
5.829999900000001,0.9888052940368652,4.874594688415527,5.403713226318359,-19.0582275390625,137.725830078125,-66.131591796875
5.8499999,0.7110779285430908,5.853823184967041,7.307103633880615,-28.4423828125,128.23486328125,-30.3802490234375
5.869999900000001,0.43095630407333374,6.335057735443115,9.133879661560059,-37.1246337890625,116.7449951171875,-9.307861328125
5.8899999,0.2849099934101105,6.48828649520874,10.812214851379395,-41.0919189453125,115.9515380859375,-1.52587890625
5.909999900000001,0.24181437492370605,6.191405773162842,12.038045883178711,-42.4652099609375,103.5919189453125,25.5584716796875
5.9299999,0.35913026332855225,5.566518783569336,12.746729850769043,-43.5638427734375,83.6334228515625,56.5643310546875
5.949999900000001,0.6105214357376099,4.841075897216797,13.026851654052734,-31.646728515625,86.9903564453125,59.3414306640625
5.9699999,0.9074024558067322,3.866635799407959,12.983756065368652,-23.529052734375,92.6513671875,60.333251953125
5.989999900000001,1.1755530834197998,3.069366693496704,12.739546775817871,-15.533447265625,78.7506103515625,70.465087890625
6.0099999,1.357512354850769,2.2457611560821533,12.483367919921875,-7.99560546875,59.4940185546875,85.7696533203125
6.029999900000001,1.4772224426269531,1.2210428714752197,12.301408767700195,11.260986328125,64.1632080078125,91.61376953125
6.0499999,1.5466543436050415,0.2585737705230713,12.260706901550293,15.2435302734375,64.9871826171875,57.7392578125
6.069999900000001,1.525106430053711,-0.6392518281936646,12.1194486618042,-11.688232421875,35.552978515625,44.158935546875
6.0899999000000005,1.414973258972168,-0.8595184087753296,11.96861457824707,-26.885986328125,21.7742919921875,55.2978515625
6.109999900000001,1.1827356815338135,-0.6584054827690125,11.69806957244873,-7.7056884765625,37.9486083984375,74.9969482421875
6.1299999000000005,0.8906430602073669,-0.3734954595565796,11.279084205627441,9.3536376953125,42.8314208984375,80.810546875
6.149999900000001,0.6177040338516235,-0.38546648621559143,11.044452667236328,2.655029296875,33.2183837890625,67.87109375
6.1699999000000005,0.4118026793003082,-0.6129156351089478,10.99656867980957,-13.7481689453125,21.0113525390625,56.6253662109375
6.1899999,0.2561795711517334,-0.950498104095459,10.951078414916992,-14.923095703125,11.2762451171875,60.211181640625
6.209999900000001,0.14844051003456116,-1.2066776752471924,10.931924819946289,0.2593994140625,16.17431640625,63.53759765625
6.2299999,0.06703764945268631,-1.2497732639312744,10.855310440063477,1.7242431640625,17.1356201171875,55.328369140625
6.249999900000001,0.011971008032560349,-1.2018892765045166,10.752359390258789,-18.585205078125,4.6234130859375,53.375244140625
6.2699999,-0.011971008032560349,-1.1540051698684692,10.623072624206543,-20.477294921875,-0.06103515625,63.3087158203125
6.289999900000001,-0.016759412363171577,-1.0654197931289673,10.522516250610352,-7.0343017578125,8.9111328125,64.02587890625
6.3099999,-0.004788403399288654,-0.9576807022094727,10.412383079528809,-8.9569091796875,10.2691650390625,55.5572509765625
6.329999900000001,-0.002394201699644327,-0.849941611289978,10.340557098388672,-21.1181640625,1.52587890625,61.553955078125
6.3499999,-0.014365210197865963,-0.7015010714530945,10.347740173339844,-18.2647705078125,-0.0152587890625,72.69287109375
6.369999900000001,-0.06464344263076782,-0.6224924325942993,10.400412559509277,-1.129150390625,5.9661865234375,76.47705078125
6.3899999,-0.12449848651885986,-0.8738836050033569,10.589553833007812,-0.7781982421875,5.645751953125,72.967529296875
6.409999900000001,-0.17956513166427612,-1.1420341730117798,10.977415084838867,-22.216796875,-3.875732421875,62.1185302734375
6.4299999,-0.24899697303771973,-1.580173134803772,11.499350547790527,-31.4788818359375,-18.85986328125,64.1632080078125
6.449999900000001,-0.3423708379268646,-1.7357962131500244,12.083536148071289,-18.5699462890625,-24.9786376953125,66.7572021484375
6.4699999,-0.4836287498474121,-1.9369091987609863,12.648567199707031,-16.571044921875,-29.4342041015625,69.9615478515625
6.489999900000001,-0.6416460275650024,-2.3104045391082764,13.227964401245117,-18.5699462890625,-37.4755859375,72.5250244140625
6.5099999,-0.7948749661445618,-2.7676970958709717,13.848062515258789,-20.9197998046875,-52.6885986328125,56.9610595703125
6.529999900000001,-0.912190854549408,-3.3949780464172363,14.314931869506836,-29.3121337890625,-77.4078369140625,46.8597412109375
6.5499999,-0.9600749015808105,-3.9456443786621094,14.499285697937012,-29.266357421875,-91.064453125,45.7305908203125
6.569999900000001,-0.950498104095459,-4.402936935424805,14.216769218444824,-15.68603515625,-96.527099609375,42.54150390625
6.5899999000000005,-0.8786720037460327,-4.869806289672852,13.51766300201416,-3.84521484375,-101.5777587890625,33.9508056640625
6.609999900000001,-0.7422025203704834,-5.315127849578857,12.629413604736328,-1.068115234375,-107.3455810546875,18.1427001953125
6.6299999000000005,-0.5722141861915588,-5.813121795654297,11.657367706298828,-5.889892578125,-114.56298828125,6.7596435546875
6.649999900000001,-0.38067805767059326,-6.078877925872803,10.771512985229492,-9.429931640625,-118.3929443359375,-4.7607421875
6.6699999000000005,-0.19871874153614044,-6.2847795486450195,9.974244117736816,-7.232666015625,-117.889404296875,-10.7574462890625
6.6899999,-0.011971008032560349,-6.308721542358398,9.320627212524414,-4.241943359375,-116.9281005859375,-18.5394287109375
6.709999900000001,0.1843535304069519,-6.2847795486450195,8.791508674621582,-11.260986328125,-118.10302734375,-30.2581787109375
6.7299999,0.38067805767059326,-6.265625953674316,8.195352554321289,-20.843505859375,-123.870849609375,-38.909912109375
6.749999900000001,0.6153098344802856,-6.224924564361572,7.565677165985107,-16.845703125,-116.9281005859375,-49.835205078125
6.7699999,0.8858546018600464,-6.1052141189575195,6.833051681518555,-7.5836181640625,-104.1107177734375,-65.704345703125
6.789999900000001,1.2090718746185303,-5.940014362335205,6.04775333404541,-9.368896484375,-97.9766845703125,-73.8372802734375
6.8099999,1.558625340461731,-5.762843608856201,5.317522048950195,-12.4664306640625,-90.7745361328125,-81.4056396484375
6.829999900000001,1.8986018896102905,-5.475539207458496,4.680664539337158,-10.1318359375,-77.056884765625,-96.8017578125
6.8499999,2.1954829692840576,-5.212177276611328,4.084507942199707,-8.6212158203125,-63.262939453125,-108.8714599609375
6.869999900000001,2.425326347351074,-4.757278919219971,3.5434184074401855,-11.5509033203125,-52.91748046875,-120.5596923828125
6.8899999,2.6001031398773193,-4.213795185089111,3.0142998695373535,-18.61572265625,-38.543701171875,-126.2664794921875
6.909999900000001,2.7054479122161865,-3.4380736351013184,2.4899697303771973,-22.03369140625,-19.561767578125,-134.9945068359375
6.9299999,2.7772738933563232,-2.4229321479797363,2.0853497982025146,-26.30615234375,1.1444091796875,-142.974853515625
6.949999900000001,2.829946517944336,-1.280897855758667,1.7310078144073486,-32.958984375,16.9830322265625,-135.2691650390625
6.9699999,2.896984100341797,0.009576806798577309,1.5490485429763794,-41.3665771484375,32.6080322265625,-125.2899169921875
6.989999900000001,2.9879636764526367,1.3910311460494995,1.5705963373184204,-48.248291015625,55.023193359375,-115.936279296875
7.0099999,3.045424461364746,2.5234885215759277,1.7597382068634033,-57.6171875,69.580078125,-92.620849609375
7.029999900000001,2.8395233154296875,4.173093795776367,3.1100680828094482,-55.267333984375,106.26220703125,-65.216064453125
7.0499999,2.5905263423919678,4.666299343109131,4.24970817565918,-42.66357421875,123.2452392578125,-45.9747314453125
7.069999900000001,2.319981336593628,4.994304656982422,5.5760955810546875,-39.7186279296875,129.3182373046875,-17.3492431640625
7.0899999000000005,2.0853497982025146,4.987122058868408,6.9910688400268555,-38.7420654296875,129.852294921875,-0.7781982421875
7.109999900000001,1.9584569931030273,4.630385875701904,8.40843677520752,-24.078369140625,134.0484619140625,4.1351318359375
7.1299999000000005,1.9273324012756348,3.8379054069519043,9.782708168029785,-6.6986083984375,137.7410888671875,14.190673828125
7.149999900000001,1.9608511924743652,2.942473888397217,11.006145477294922,-11.4898681640625,124.20654296875,18.49365234375
7.1699999000000005,1.9967641830444336,2.2218191623687744,12.088324546813965,-20.5078125,109.893798828125,17.9595947265625
7.1899999,1.965639591217041,1.8842366933822632,12.883199691772461,-17.0440673828125,106.7352294921875,27.4658203125
7.209999900000001,1.8555063009262085,1.6615760326385498,13.443442344665527,-12.542724609375,102.8594970703125,53.955078125
7.2299999,1.6424223184585571,1.5897499322891235,13.709198951721191,3.2958984375,76.5838623046875,57.708740234375
7.249999900000001,1.381454348564148,1.2401964664459229,13.888764381408691,1.46484375,66.253662109375,50.3387451171875
7.2699999,1.1563993692398071,0.950498104095459,14.099453926086426,0.8392333984375,56.549072265625,38.57421875
7.289999900000001,0.9433154463768005,0.5171475410461426,14.154520034790039,3.021240234375,36.1175537109375,52.9022216796875
7.3099999,0.8068459630012512,0.42377370595932007,14.022839546203613,-7.9803466796875,17.791748046875,62.286376953125
7.329999900000001,0.7541735172271729,0.3734954595565796,13.500903129577637,-17.2576904296875,16.8914794921875,65.1092529296875
7.3499999,0.7709329724311829,0.11013327538967133,12.574347496032715,-12.1307373046875,19.622802734375,77.5604248046875
7.369999900000001,0.8379706144332886,-0.4357447028160095,11.571176528930664,4.852294921875,25.87890625,77.117919921875
7.3899999,0.8882488012313843,-1.1228805780410767,10.752359390258789,6.7138671875,25.1007080078125,56.0455322265625
7.409999900000001,0.8882488012313843,-1.7142484188079834,10.38844108581543,-12.969970703125,19.7601318359375,43.670654296875
7.4299999,0.7589619159698486,-1.9033904075622559,10.211270332336426,-24.322509765625,6.8817138671875,52.1240234375
7.449999900000001,0.5434837937355042,-1.6831238269805908,10.285490036010742,-16.2506103515625,7.7972412109375,64.5751953125
7.4699999,0.31842881441116333,-1.455674648284912,10.33098030090332,-3.96728515625,13.0157470703125,70.159912109375
7.489999900000001,0.14604631066322327,-1.4844050407409668,10.32858657836914,-1.46484375,10.2081298828125,65.7806396484375
7.5099999,0.043095629662275314,-1.6184803247451782,10.247182846069336,-19.683837890625,3.35693359375,50.445556640625
7.529999900000001,-0.011971008032560349,-1.702277421951294,10.050858497619629,-30.731201171875,0.7476806640625,46.2646484375
7.5499999,-0.043095629662275314,-1.6424223184585571,9.861717224121094,-13.1988525390625,11.810302734375,57.8460693359375
7.569999900000001,-0.0933738648891449,-1.5322890281677246,9.68933391571045,5.4931640625,15.93017578125,65.73486328125
7.5899999000000005,-0.1412578970193863,-1.4748282432556152,9.816226959228516,6.34765625,15.289306640625,58.53271484375
7.609999900000001,-0.17477671802043915,-1.6208745241165161,10.163386344909668,-14.2364501953125,5.5999755859375,54.290771484375
7.6299999000000005,-0.19632454216480255,-1.9847931861877441,10.575188636779785,-17.3187255859375,-6.5155029296875,60.48583984375
7.649999900000001,-0.17956513166427612,-2.2433669567108154,11.008539199829102,-5.5084228515625,-5.7830810546875,52.093505859375
7.6699999000000005,-0.15562310814857483,-2.434903144836426,11.233593940734863,-10.3759765625,-9.46044921875,45.2117919921875
7.6899999,-0.1364694982767105,-2.5498247146606445,11.355698585510254,-23.7274169921875,-15.869140625,53.131103515625
7.709999900000001,-0.14365209639072418,-2.580949544906616,11.386823654174805,-23.773193359375,-19.4549560546875,58.441162109375
7.7299999,-0.17477671802043915,-2.6647465229034424,11.513715744018555,-16.204833984375,-18.6920166015625,50.9033203125
7.749999900000001,-0.22026655077934265,-2.911349296569824,11.683704376220703,-14.1754150390625,-26.3214111328125,46.93603515625
7.7699999,-0.2585737705230713,-3.224989652633667,11.93748950958252,-21.8963623046875,-38.6505126953125,44.4488525390625
7.789999900000001,-0.28730419278144836,-3.5170822143554688,12.097901344299316,-27.3284912109375,-48.3245849609375,40.10009765625
7.8099999,-0.304063618183136,-3.732560396194458,12.09550666809082,-27.8167724609375,-53.16162109375,33.966064453125
7.829999900000001,-0.29209262132644653,-3.93367338180542,11.923124313354492,-23.5595703125,-54.7943115234375,32.6995849609375
7.8499999,-0.24660277366638184,-4.084507942199707,11.623848915100098,-18.0511474609375,-58.7615966796875,30.1361083984375
7.869999900000001,-0.17956513166427612,-4.242525577545166,11.298237800598145,-12.6190185546875,-64.727783203125,23.5595703125
7.8899999,-0.06703764945268631,-4.402936935424805,11.0300874710083,-8.453369140625,-67.291259765625,16.0064697265625
7.909999900000001,0.06464344263076782,-4.5825018882751465,10.759542465209961,-8.3465576171875,-72.235107421875,11.7034912109375
7.9299999,0.2059013396501541,-4.742913722991943,10.575188636779785,-9.94873046875,-76.446533203125,7.4005126953125
7.949999900000001,0.36152446269989014,-4.963180065155029,10.45547866821289,-7.4310302734375,-78.5980224609375,0.9613037109375
7.9699999,0.5123591423034668,-5.245696067810059,10.33098030090332,-7.8887939453125,-85.052490234375,-5.67626953125
7.989999900000001,0.6655880808830261,-5.477933406829834,10.153809547424316,-18.1884765625,-92.376708984375,-16.998291015625
8.0099999,0.8140285611152649,-5.688623428344727,9.832986831665039,-26.9317626953125,-93.505859375,-25.0244140625
8.0299999,0.9528923034667969,-5.702988624572754,9.375694274902344,-27.069091796875,-90.2862548828125,-32.379150390625
8.049999900000001,1.0797849893569946,-5.468356609344482,8.846575736999512,-21.0418701171875,-85.113525390625,-39.3829345703125
8.069999900000001,1.2282254695892334,-5.173870086669922,8.391676902770996,-17.0745849609375,-82.1990966796875,-36.1480712890625
8.0899999,1.4101848602294922,-4.9152960777282715,7.977479934692383,-17.7459716796875,-82.977294921875,-33.63037109375
8.1099999,1.644816517829895,-4.764461517333984,7.63989782333374,-27.0538330078125,-82.9010009765625,-46.966552734375
8.129999900000001,1.920149803161621,-4.738125324249268,7.2568254470825195,-36.0260009765625,-80.3375244140625,-56.9000244140625
8.149999900000001,2.2242133617401123,-4.659116744995117,6.864176273345947,-27.923583984375,-71.0601806640625,-63.079833984375
8.1699999,2.5258827209472656,-4.467580318450928,6.5050458908081055,-13.73291015625,-60.11962890625,-64.2852783203125
8.1899999,2.8227639198303223,-4.244919776916504,6.232107162475586,-8.9874267578125,-54.7943115234375,-68.9544677734375
8.2099999,3.1028854846954346,-4.043806552886963,6.090848922729492,-17.9595947265625,-53.375244140625,-76.141357421875
8.229999900000001,3.35667085647583,-3.909731388092041,5.92325496673584,-33.905029296875,-55.572509765625,-85.4339599609375
8.2499999,3.603273630142212,-3.7684733867645264,5.6191911697387695,-36.529541015625,-51.1322021484375,-92.4835205078125
8.2699999,3.8307228088378906,-3.509899616241455,5.123591423034668,-22.5830078125,-34.6221923828125,-97.1527099609375
8.2899999,4.031835556030273,-3.1723172664642334,4.491522312164307,-9.6893310546875,-17.8985595703125,-97.381591796875
8.309999900000001,4.20421838760376,-2.717418909072876,3.88818359375,-3.5858154296875,-4.547119140625,-97.747802734375
8.3299999,4.331110954284668,-2.3367409706115723,3.4596214294433594,-3.41796875,7.5836181640625,-97.7325439453125
8.3499999,4.412513732910156,-1.8962076902389526,3.292027235031128,-3.875732421875,19.6990966796875,-104.248046875
8.3699999,4.446032524108887,-1.4508862495422363,3.3207578659057617,-4.8065185546875,28.350830078125,-105.7891845703125
8.389999900000001,4.426878929138184,-0.8954314589500427,3.4572272300720215,-7.720947265625,36.590576171875,-98.8006591796875
8.4099999,4.381389141082764,-0.27054479718208313,3.60566782951355,-15.167236328125,48.1414794921875,-88.8824462890625
8.4299999,4.302380561828613,0.42616790533065796,3.756502389907837,-19.3328857421875,62.2100830078125,-82.1990966796875
8.4499999,4.173093795776367,1.01753568649292,3.9863457679748535,-17.9290771484375,75.9735107421875,-75.286865234375
8.469999900000001,3.976768970489502,1.5921441316604614,4.3622355461120605,-16.2811279296875,84.1064453125,-66.7266845703125
8.4899999,3.7636849880218506,2.011129379272461,4.900930881500244,-20.99609375,89.019775390625,-55.328369140625
8.5099999,3.514688014984131,2.4444799423217773,5.473145008087158,-31.097412109375,93.8262939453125,-46.6156005859375
8.5299999,3.294421434402466,2.8419175148010254,6.009446144104004,-33.1573486328125,100.8453369140625,-34.515380859375
8.549999900000001,3.114856481552124,3.1244332790374756,6.564900875091553,-16.4794921875,115.1275634765625,-13.36669921875
8.569999900000001,2.8371291160583496,2.717418909072876,7.848193168640137,-2.2125244140625,120.0103759765625,8.270263671875
8.5899999,2.7126305103302,2.0470423698425293,8.640673637390137,-22.1099853515625,114.2730712890625,1.0833740234375
8.6099999,2.5761611461639404,1.5059528350830078,9.514557838439941,-23.0865478515625,112.6861572265625,-2.5634765625
8.629999900000001,2.3798365592956543,1.1180921792984009,10.333374977111816,-8.1024169921875,110.0921630859375,18.798828125
8.649999900000001,2.121262788772583,1.0582371950149536,11.034875869750977,-0.6561279296875,106.8267822265625,31.9061279296875
8.6699999,1.8411411046981812,1.01753568649292,12.02846908569336,-20.4925537109375,110.382080078125,30.853271484375
8.6899999,1.5203180313110352,1.039083480834961,12.536040306091309,-26.42822265625,76.84326171875,28.961181640625
8.709999900000001,1.2401964664459229,1.01753568649292,13.239935874938965,-3.204345703125,64.94140625,39.0777587890625
8.729999900000001,1.0103530883789062,0.8643068075180054,13.522451400756836,21.942138671875,63.2171630859375,52.5665283203125
8.7499999,0.8978256583213806,0.5578489899635315,13.651738166809082,23.7579345703125,53.5736083984375,47.6837158203125
8.7699999,0.871489405632019,0.009576806798577309,13.539210319519043,-5.7220458984375,35.4156494140625,40.4815673828125
8.7899999,0.8858546018600464,-0.43335050344467163,13.196839332580566,-25.726318359375,24.6734619140625,42.144775390625
8.809999900000001,0.8690952062606812,-0.6631938815116882,12.624625205993652,-21.697998046875,25.7720947265625,51.3916015625
8.8299999,0.8044517636299133,-0.8403648138046265,11.985373497009277,-3.4332275390625,29.72412109375,62.8204345703125
8.8499999,0.6919242739677429,-1.05105459690094,11.468226432800293,6.3934326171875,27.7099609375,59.173583984375
8.8699999,0.5650315880775452,-1.3503297567367554,11.200075149536133,-6.7291259765625,16.4031982421875,47.149658203125
8.889999900000001,0.44532153010368347,-1.6735470294952393,11.099518775939941,-13.1683349609375,8.514404296875,46.6461181640625
8.9099999,0.35673606395721436,-1.9632453918457031,11.08754825592041,0.4119873046875,9.307861328125,54.0313720703125
8.9299999,0.29209262132644653,-2.126051187515259,11.044452667236328,10.1776123046875,9.002685546875,48.76708984375
8.9499999,0.23702596127986908,-2.1523873805999756,10.972626686096191,-2.0751953125,3.11279296875,38.0096435546875
8.969999900000001,0.17956513166427612,-1.9105730056762695,10.812214851379395,-18.463134765625,-3.7384033203125,38.7420654296875
8.9899999,0.10055647045373917,-1.5825673341751099,10.594342231750488,-16.11328125,-3.0364990234375,54.19921875
9.0099999,0.033518824726343155,-1.359906554222107,10.321403503417969,-3.35693359375,-0.1220703125,61.2335205078125
9.0299999,-0.011971008032560349,-1.316810965538025,10.065223693847656,-1.0986328125,0.6103515625,48.614501953125
9.049999900000001,-0.028730420395731926,-1.4484920501708984,9.9000244140625,-11.04736328125,-1.3580322265625,40.34423828125
9.069999900000001,-0.019153613597154617,-1.5418659448623657,9.840168952941895,-18.1427001953125,-3.90625,47.05810546875
9.0899999,0,-1.6328455209732056,9.856928825378418,-3.47900390625,-3.2958984375,56.09130859375
9.1099999,0.035913024097681046,-1.8124107122421265,9.99339771270752,12.1307373046875,-0.1983642578125,52.093505859375
9.129999900000001,0.07900865375995636,-2.0685901641845703,10.192116737365723,1.190185546875,-3.997802734375,40.4510498046875
9.149999900000001,0.11252748221158981,-2.207453966140747,10.45547866821289,-21.30126953125,-12.5274658203125,36.224365234375
9.1699999,0.12449848651885986,-2.2242133617401123,10.721235275268555,-24.7039794921875,-17.3492431640625,46.4630126953125
9.1899999,0.12449848651885986,-2.188300371170044,11.022904396057129,-13.8397216796875,-17.3797607421875,52.4139404296875
9.209999900000001,0.12449848651885986,-2.231395959854126,11.274295806884766,-12.7716064453125,-22.308349609375,45.2423095703125
9.229999900000001,0.12928688526153564,-2.389413356781006,11.547234535217285,-20.81298828125,-30.5023193359375,38.5589599609375
9.2499999,0.1388636976480484,-2.604891538619995,11.774683952331543,-21.484375,-37.4908447265625,41.5802001953125
9.2699999,0.15562310814857483,-2.760514497756958,12.021286964416504,-17.5628662109375,-41.5496826171875,44.097900390625
9.2899999,0.16759411990642548,-2.96162748336792,12.205639839172363,-19.683837890625,-49.346923828125,42.1905517578125
9.309999900000001,0.2059013396501541,-3.2297780513763428,12.354081153869629,-23.25439453125,-60.0128173828125,38.604736328125
9.3299999,0.26336219906806946,-3.6296098232269287,12.368446350097656,-22.3846435546875,-67.6116943359375,36.3616943359375
9.3499999,0.33997663855552673,-4.019864559173584,12.248735427856445,-20.1263427734375,-73.73046875,29.571533203125
9.3699999,0.4405331015586853,-4.412513732910156,12.016498565673828,-18.3258056640625,-78.18603515625,21.7437744140625
9.389999900000001,0.5482721924781799,-4.790797710418701,11.674127578735352,-17.303466796875,-86.395263671875,17.5933837890625
9.4099999,0.6607996821403503,-5.128379821777344,11.281478881835938,-15.380859375,-92.1173095703125,9.7808837890625
9.4299999,0.7829039692878723,-5.477933406829834,10.862493515014648,-18.0816650390625,-94.940185546875,-1.1138916015625
9.4499999,0.9026140570640564,-5.801150798797607,10.465055465698242,-29.4189453125,-98.44970703125,-12.63427734375
9.469999900000001,1.0295066833496094,-6.00226354598999,10.019734382629395,-39.24560546875,-105.6671142578125,-24.6429443359375
9.4899999,1.1899182796478271,-6.124367713928223,9.536105155944824,-30.3192138671875,-105.072021484375,-29.96826171875
9.5099999,1.3766659498214722,-6.212953567504883,8.901641845703125,-14.129638671875,-98.0072021484375,-32.9742431640625
9.5299999,1.6136919260025024,-6.22731876373291,8.221688270568848,-7.0648193359375,-90.362548828125,-45.8221435546875
9.549999900000001,1.886630892753601,-6.205770969390869,7.587224960327148,-9.185791015625,-85.63232421875,-55.72509765625
9.569999900000001,2.169146776199341,-6.0597243309021,7.084442615509033,-12.3138427734375,-86.883544921875,-62.8204345703125
9.5899999,2.4444799423217773,-5.760449409484863,6.691793918609619,-12.237548828125,-85.723876953125,-69.732666015625
9.6099999,2.7006595134735107,-5.293580055236816,6.342240333557129,-5.18798828125,-75.7293701171875,-77.4383544921875
9.629999900000001,2.9448680877685547,-4.81473970413208,6.054935932159424,-4.1351318359375,-64.7735595703125,-80.078125
9.649999900000001,3.162740468978882,-4.307168960571289,5.805939197540283,-13.7176513671875,-60.9130859375,-84.9761962890625
9.6699999,3.35667085647583,-3.823540210723877,5.621585369110107,-26.0772705078125,-59.7076416015625,-93.231201171875
9.6899999,3.488351821899414,-3.339911460876465,5.403713226318359,-33.5540771484375,-54.4281005859375,-97.5799560546875
9.709999900000001,3.581725835800171,-2.8155810832977295,5.044582843780518,-34.210205078125,-44.73876953125,-99.8382568359375
9.729999900000001,3.6176388263702393,-2.2170307636260986,4.532223701477051,-30.8837890625,-30.5328369140625,-97.1221923828125
9.7499999,3.6152446269989014,-1.5897499322891235,3.890577793121338,-30.21240234375,-16.78466796875,-94.8028564453125
9.7699999,3.6128504276275635,-0.993593692779541,3.3063924312591553,-31.982421875,0.3814697265625,-92.254638671875
9.7899999,3.627215623855591,-0.5363011956214905,2.8107926845550537,-31.341552734375,15.44189453125,-88.9129638671875
9.809999900000001,3.689464807510376,-0.16998831927776337,2.4588451385498047,-29.7088623046875,27.008056640625,-89.8284912109375
9.8299999,3.797203779220581,0.1149216815829277,2.250549554824829,-24.749755859375,43.76220703125,-88.4246826171875
9.8499999,3.907337188720703,0.44532153010368347,2.1499931812286377,-20.5078125,62.347412109375,-84.2742919921875
9.8699999,3.9911341667175293,0.8068459630012512,2.2816741466522217,-21.575927734375,79.8492431640625,-73.5931396484375
9.889999900000001,4.000710964202881,1.170764684677124,2.609679937362671,-21.881103515625,90.5303955078125,-64.63623046875
9.9099999,3.931279182434082,1.558625340461731,3.308786630630493,-18.12744140625,103.7750244140625,-62.2711181640625
9.9299999,3.8091750144958496,1.9776105880737305,4.242525577545166,-11.0931396484375,112.4420166015625,-54.779052734375
9.9499999,3.6535518169403076,2.3056161403656006,5.34625244140625,-9.33837890625,115.3106689453125,-36.041259765625
9.969999900000001,3.531447410583496,2.454056739807129,6.435614109039307,-17.333984375,113.95263671875,-20.599365234375
9.9899999,3.4165258407592773,2.4444799423217773,7.386112213134766,-22.5677490234375,117.2943115234375,-21.209716796875
10.0099999,3.308786630630493,2.274491548538208,8.190564155578613,-14.5111083984375,122.4822998046875,-17.4713134765625
10.0299999,3.1914708614349365,2.0853497982025146,9.023746490478516,3.875732421875,130.462646484375,-0.6561279296875
10.049999900000001,3.0550012588500977,1.9560627937316895,9.909601211547852,9.521484375,125.823974609375,11.0321044921875
10.069999900000001,2.9041666984558105,1.7334020137786865,10.8505220413208,-9.2926025390625,109.43603515625,17.669677734375
10.0899999,2.4229321479797363,1.1659762859344482,12.385205268859863,-29.266357421875,99.700927734375,33.50830078125
10.1099999,2.0446481704711914,0.8475474119186401,12.813767433166504,-5.4779052734375,79.2999267578125,34.0576171875
10.129999900000001,1.745373010635376,0.5267243981361389,13.084312438964844,-4.2266845703125,71.0601806640625,35.400390625
10.149999900000001,1.5610195398330688,0.2106897532939911,13.318943977355957,-12.3748779296875,66.2384033203125,35.46142578125
10.1699999,1.4532804489135742,-0.1604115068912506,13.601459503173828,-5.7525634765625,59.87548828125,42.6177978515625
10.1899999,1.4437036514282227,-0.48602294921875,13.848062515258789,4.913330078125,42.9840087890625,49.1790771484375
10.209999900000001,1.3910311460494995,-0.7972691655158997,14.00368595123291,2.3651123046875,28.167724609375,48.2330322265625
10.229999900000001,1.280897855758667,-1.1109095811843872,13.716381072998047,-5.0811767578125,14.58740234375,51.177978515625
10.2499999,1.1563993692398071,-1.1851298809051514,12.938265800476074,-11.1083984375,9.8419189453125,47.7752685546875
10.2699999,1.048660397529602,-1.0869675874710083,11.78904914855957,-13.2293701171875,11.4593505859375,47.4700927734375
10.2899999,0.9672574996948242,-1.0199298858642578,10.584765434265137,-6.0272216796875,16.632080078125,57.2662353515625
10.309999900000001,0.9289502501487732,-1.094150185585022,9.694122314453125,8.3465576171875,21.91162109375,55.1300048828125
10.3299999,0.9217676520347595,-1.3958195447921753,9.299078941345215,16.3421630859375,22.4609375,42.05322265625
10.3499999,0.9074024558067322,-1.678335428237915,9.366117477416992,1.46484375,15.07568359375,30.6243896484375
10.3699999,0.8667010068893433,-1.6831238269805908,9.701305389404297,-16.6168212890625,8.1024169921875,33.8287353515625
10.389999900000001,0.7709329724311829,-1.292868971824646,10.086771965026855,-14.556884765625,8.7127685546875,45.379638671875
10.4099999,0.6272808313369751,-0.912190854549408,10.429142951965332,-0.335693359375,10.8489990234375,55.6793212890625
10.4299999,0.4884171485900879,-0.6105214357376099,10.716446876525879,2.2735595703125,7.110595703125,50.628662109375
10.4499999,0.363918662071228,-0.5961562395095825,10.87446403503418,-12.63427734375,-2.471923828125,45.6695556640625
10.469999900000001,0.2777273952960968,-0.5434837937355042,10.90798282623291,-22.918701171875,-8.1329345703125,46.81396484375
10.4899999,0.2298433631658554,-0.768538773059845,10.757147789001465,-6.7138671875,-4.4708251953125,61.5692138671875
10.5099999,0.21547815203666687,-1.0606313943862915,10.589553833007812,16.8304443359375,2.3193359375,61.3250732421875
10.5299999,0.18914192914962769,-1.5203180313110352,10.41956615447998,8.9874267578125,-2.7618408203125,45.1202392578125
10.549999900000001,0.1149216815829277,-1.9081788063049316,10.400412559509277,-13.0767822265625,-10.986328125,38.848876953125
10.569999900000001,0,-1.9752163887023926,10.429142951965332,-15.80810546875,-13.2598876953125,46.0357666015625
10.5899999,-0.16519992053508759,-1.742978811264038,10.498574256896973,-6.7901611328125,-13.397216796875,55.6488037109375
10.6099999,-0.29209262132644653,-1.434126853942871,10.644620895385742,-4.5928955078125,-15.5792236328125,59.4635009765625
10.629999900000001,-0.33997663855552673,-1.5083470344543457,10.862493515014648,-0.1678466796875,-21.3165283203125,64.8040771484375
10.649999900000001,-0.2777273952960968,-1.920149803161621,11.142614364624023,4.08935546875,-29.937744140625,60.211181640625
10.6699999,-0.14365209639072418,-2.6360161304473877,11.298237800598145,-0.8697509765625,-40.5426025390625,47.6837158203125
10.6899999,0.019153613597154617,-3.3710360527038574,11.200075149536133,-9.3536376953125,-46.7071533203125,39.581298828125
10.709999900000001,0.1867477297782898,-3.998316764831543,10.747570991516113,-13.6871337890625,-44.9371337890625,39.73388671875
10.729999900000001,0.31603461503982544,-4.4292731285095215,10.014945983886719,-9.5367431640625,-38.848876953125,36.5447998046875
10.7499999,0.3998316824436188,-4.750096321105957,9.062053680419922,-5.584716796875,-35.3851318359375,25.1007080078125
10.7699999,0.44532153010368347,-5.013458251953125,8.063671112060547,-4.5318603515625,-27.64892578125,16.265869140625
10.7899999,0.4429273009300232,-5.20978307723999,7.127538681030273,-4.39453125,-15.2587890625,10.4827880859375
10.809999900000001,0.4141969084739685,-5.319916248321533,6.303933143615723,-6.5155029296875,-5.462646484375,2.0294189453125
10.8299999,0.37828385829925537,-5.384559631347656,5.736507415771484,-5.9051513671875,4.69970703125,-8.819580078125
10.8499999,0.3471592366695404,-5.39174222946167,5.398924827575684,0.640869140625,16.41845703125,-20.6146240234375
10.8699999,0.33279404044151306,-5.331887245178223,5.365406036376953,9.09423828125,29.510498046875,-29.9530029296875
10.889999900000001,0.31842881441116333,-5.200206279754639,5.628767967224121,17.7154541015625,41.168212890625,-39.5965576171875
10.9099999,0.2944868206977844,-4.967968463897705,6.260837554931641,23.0865478515625,48.64501953125,-49.98779296875
10.9299999,0.2513911724090576,-4.699818134307861,7.194576263427734,23.6053466796875,50.5218505859375,-56.671142578125
10.9499999,0.2082955539226532,-4.355052947998047,8.327033042907715,25.45166015625,47.30224609375,-61.5081787109375
10.969999900000001,0.181959331035614,-4.019864559173584,9.490615844726562,24.810791015625,43.304443359375,-65.3839111328125
10.9899999,0.18914192914962769,-3.711012601852417,10.445901870727539,19.3023681640625,35.09521484375,-69.6563720703125
11.0099999,0.23702596127986908,-3.442862033843994,11.135432243347168,13.6566162109375,30.242919921875,-74.310302734375
11.0299999,0.28969839215278625,-3.201047658920288,11.44907283782959,14.2974853515625,26.3519287109375,-78.5675048828125
11.049999900000001,0.3280056416988373,-2.9927520751953125,11.60708999633789,22.2320556640625,28.1219482421875,-82.244873046875
11.069999900000001,0.3208230137825012,-2.6886885166168213,11.686098098754883,26.7791748046875,25.726318359375,-88.1500244140625
11.0899999,0.26815059781074524,-2.3104045391082764,11.896788597106934,21.4996337890625,16.357421875,-91.7816162109375
11.1099999,0.1604115068912506,-1.7836803197860718,12.18409252166748,16.7999267578125,2.86865234375,-90.484619140625
11.129999900000001,0.043095629662275314,-1.1540051698684692,12.591106414794922,14.892578125,-4.2877197265625,-88.0889892578125
11.149999900000001,-0.040701430290937424,-0.4596867263317108,12.921506881713867,9.796142578125,-15.045166015625,-85.357666015625
11.1699999,-0.05985504388809204,0.15083470940589905,13.172897338867188,6.2408447265625,-25.3753662109375,-78.3538818359375
11.1899999,0,0.6919242739677429,13.290213584899902,6.561279296875,-33.1878662109375,-71.5484619140625
11.209999900000001,0.11013327538967133,1.173158884048462,13.278243064880371,2.1820068359375,-40.7867431640625,-67.3065185546875
11.229999900000001,0.24181437492370605,1.4389152526855469,13.15613842010498,-2.593994140625,-51.025390625,-56.15234375
11.2499999,0.35434186458587646,1.625662922859192,12.935872077941895,-3.7689208984375,-59.5245361328125,-49.713134765625
11.2699999,0.4405331015586853,1.6950948238372803,12.67250919342041,-6.561279296875,-66.558837890625,-48.858642578125
11.2899999,0.5123591423034668,1.7908629179000854,12.354081153869629,-5.828857421875,-71.9146728515625,-43.3502197265625
11.309999900000001,0.5937620401382446,1.922544002532959,11.99255657196045,-1.129150390625,-77.7130126953125,-29.1748046875
11.3299999,0.6943184733390808,2.1284453868865967,11.645397186279297,5.767822265625,-79.9102783203125,-17.2882080078125
11.3499999,0.8188169598579407,2.367865562438965,11.298237800598145,10.833740234375,-82.122802734375,-11.2152099609375
11.3699999,0.9528923034667969,2.5330653190612793,10.982203483581543,16.2200927734375,-84.4879150390625,0.6866455078125
11.389999900000001,1.113303780555725,2.6360161304473877,10.69489860534668,20.782470703125,-85.601806640625,15.7012939453125
11.4099999,1.2856862545013428,2.6455929279327393,10.369287490844727,14.892578125,-89.7979736328125,24.1241455078125
11.4299999,1.4891934394836426,2.6144683361053467,9.995792388916016,7.4462890625,-93.1243896484375,27.862548828125
11.4499999,1.680729627609253,2.3942017555236816,9.646238327026367,9.58251953125,-88.3941650390625,41.4276123046875
11.469999900000001,1.86508309841156,2.248155355453491,9.327810287475586,13.214111328125,-89.385986328125,48.004150390625
11.4899999,2.0422539710998535,2.0015525817871094,9.062053680419922,5.2032470703125,-93.719482421875,54.6722412109375
11.5099999,2.22660756111145,1.7717092037200928,8.7484130859375,-7.6446533203125,-99.18212890625,63.018798828125
11.5299999,2.4468741416931152,1.50355863571167,8.255207061767578,-8.4075927734375,-98.81591796875,69.366455078125
11.549999900000001,2.6839001178741455,1.1851298809051514,7.601590633392334,2.7313232421875,-89.0960693359375,74.676513671875
11.569999900000001,2.9257144927978516,0.727837324142456,6.845022678375244,13.7786865234375,-80.078125,78.0029296875
11.5899999,3.134010076522827,0.27054479718208313,6.110002517700195,22.4151611328125,-71.9451904296875,77.2552490234375
11.6099999,3.3446998596191406,-0.0933738648891449,5.5545477867126465,32.989501953125,-60.516357421875,75.0732421875
11.629999900000001,3.754108190536499,-0.8834604024887085,4.8051629066467285,46.722412109375,-44.2047119140625,91.97998046875
11.649999900000001,3.9887399673461914,-1.3742717504501343,4.54419469833374,45.440673828125,-32.989501953125,82.672119140625
11.6699999,4.175487995147705,-1.8291701078414917,4.228160381317139,35.9954833984375,-24.139404296875,69.3206787109375
11.6899999,4.261679172515869,-1.9536685943603516,3.9049429893493652,25.787353515625,-14.6484375,68.78662109375
11.709999900000001,4.2329487800598145,-1.778891921043396,3.6391866207122803,28.6407470703125,0.48828125,80.047607421875
11.729999900000001,4.098873138427734,-1.482010841369629,3.4979286193847656,33.203125,13.5650634765625,88.226318359375
11.7499999,3.907337188720703,-1.4963760375976562,3.488351821899414,24.200439453125,21.1639404296875,88.3331298828125
11.7699999,3.708618402481079,-1.9057846069335938,3.622427225112915,10.833740234375,29.4952392578125,80.5816650390625
11.7899999,3.5194764137268066,-2.6168625354766846,3.8091750144958496,10.8489990234375,41.748046875,71.6705322265625
11.809999900000001,3.337517261505127,-3.268085241317749,4.0533833503723145,18.0511474609375,54.01611328125,63.4918212890625
11.8299999,3.162740468978882,-3.6942532062530518,4.402936935424805,21.2249755859375,64.4073486328125,60.1806640625
11.8499999,2.983175277709961,-3.8307228088378906,4.833893299102783,22.5677490234375,69.64111328125,60.211181640625
11.8699999,2.8203697204589844,-3.9217023849487305,5.3582234382629395,27.5421142578125,75.37841796875,63.5528564453125
11.889999900000001,2.652775526046753,-4.067748546600342,5.724536418914795,36.0107421875,83.1146240234375,54.99267578125
11.9099999,2.52109432220459,-4.338293552398682,6.157886981964111,41.259765625,100.0823974609375,36.2396240234375
11.9299999,2.406172752380371,-4.632780075073242,6.5912370681762695,43.0145263671875,111.4349365234375,22.5830078125
11.9499999,2.27209734916687,-4.838681697845459,7.187393665313721,62.92724609375,110.2447509765625,13.8702392578125
11.969999900000001,2.1045033931732178,-4.9368438720703125,7.951143741607666,92.864990234375,113.250732421875,4.0130615234375
11.9899999,1.920149803161621,-4.850652694702148,8.889671325683594,100.2655029296875,118.7896728515625,-15.869140625
12.0099999,1.7046716213226318,-4.496310710906982,9.964667320251465,78.2928466796875,117.034912109375,-30.120849609375
12.0299999,1.4389152526855469,-4.055777549743652,11.061211585998535,58.10546875,97.0916748046875,-28.8543701171875
12.049999900000001,1.1444283723831177,-3.3710360527038574,12.24155330657959,54.229736328125,88.9434814453125,-35.2325439453125
12.069999900000001,0.849941611289978,-2.719813108444214,13.364434242248535,44.3115234375,81.878662109375,-45.34912109375
12.0899999,0.5746083855628967,-2.054224967956543,14.192827224731445,18.2037353515625,59.1583251953125,-46.905517578125
12.1099999,0.38067805767059326,-1.50355863571167,14.67406177520752,-12.451171875,36.0870361328125,-42.266845703125
12.129999900000001,0.2801215946674347,-0.9744400978088379,14.630966186523438,-14.2059326171875,27.52685546875,-42.6788330078125
12.149999900000001,0.2561795711517334,-0.8020575642585754,14.18803882598877,10.68115234375,30.2276611328125,-39.4439697265625
12.1699999,0.2825157940387726,-0.7948749661445618,13.52005672454834,13.275146484375,26.031494140625,-41.4276123046875
12.1899999,0.3519476354122162,-0.9840168952941895,12.780248641967773,-6.3934326171875,11.474609375,-45.562744140625
12.209999900000001,0.43095630407333374,-1.2449848651885986,12.054805755615234,-18.9056396484375,4.5318603515625,-45.6695556640625
12.229999900000001,0.5099649429321289,-1.3646949529647827,11.267112731933594,-10.4217529296875,7.2479248046875,-49.13330078125
12.2499999,0.6105214357376099,-1.3742717504501343,10.589553833007812,11.8255615234375,14.95361328125,-51.544189453125
12.2699999,0.727837324142456,-1.2689268589019775,10.074800491333008,24.7955322265625,15.7623291015625,-51.4984130859375
12.289999900000002,0.8667010068893433,-1.0773907899856567,9.856928825378418,17.8070068359375,11.0931396484375,-53.741455078125
12.309999900000001,0.9983820915222168,-0.950498104095459,9.861717224121094,-1.3275146484375,7.62939453125,-53.680419921875
12.3299999,1.1037269830703735,-0.8475474119186401,10.036493301391602,-11.8865966796875,8.7738037109375,-57.0068359375
12.3499999,1.161187767982483,-0.811634361743927,10.228029251098633,-8.48388671875,7.781982421875,-64.2547607421875
12.3699999,1.1516109704971313,-0.7829039692878723,10.563218116760254,-4.4097900390625,7.87353515625,-70.4193115234375
12.389999900000001,1.0821791887283325,-0.667982280254364,10.989385604858398,-10.5743408203125,2.349853515625,-77.57568359375
12.4099999,0.9696516990661621,-0.4381389021873474,11.417947769165039,-26.8402099609375,-11.322021484375,-79.7882080078125
12.4299999,0.8571242094039917,-0.14365209639072418,11.798625946044922,-36.43798828125,-20.050048828125,-78.2623291015625
12.4499999,0.7781155705451965,0.10055647045373917,11.990161895751953,-33.2183837890625,-20.904541015625,-75.531005859375
12.469999900000001,0.7422025203704834,0.2298433631658554,12.057199478149414,-24.0020751953125,-19.8516845703125,-78.8421630859375
12.4899999,0.7398083209991455,0.19153612852096558,12.112266540527344,-25.87890625,-24.078369140625,-82.6263427734375
12.5099999,0.7374141216278076,0.15562310814857483,12.205639839172363,-33.6151123046875,-35.003662109375,-86.212158203125
12.5299999,0.7158663272857666,0.26815059781074524,12.339715957641602,-31.4178466796875,-42.877197265625,-86.4715576171875
12.549999900000001,0.6919242739677429,0.5770025849342346,12.49055004119873,-18.7530517578125,-45.257568359375,-77.57568359375
12.569999900000001,0.6823474764823914,0.9409212470054626,12.622231483459473,-8.4381103515625,-49.37744140625,-64.1021728515625
12.5899999,0.706289529800415,1.2401964664459229,12.749124526977539,-10.772705078125,-60.394287109375,-58.3038330078125
12.6099999,0.7829039692878723,1.3982137441635132,12.895170211791992,-20.2178955078125,-73.6846923828125,-61.004638671875
12.629999900000001,0.8930372595787048,1.4844050407409668,12.887988090515137,-15.594482421875,-85.63232421875,-56.6253662109375
12.649999900000001,1.048660397529602,1.5658079385757446,12.708422660827637,-1.8463134765625,-89.569091796875,-43.1976318359375
12.6699999,1.2617442607879639,1.6639702320098877,12.327744483947754,9.4757080078125,-89.385986328125,-32.2113037109375
12.6899999,1.534683346748352,1.6400281190872192,11.824962615966797,13.24462890625,-92.6055908203125,-26.79443359375
12.709999900000001,1.8602946996688843,1.5945383310317993,11.329362869262695,6.0577392578125,-98.968505859375,-26.123046875
12.729999900000001,2.2002713680267334,1.5298948287963867,10.84094524383545,1.953125,-104.4921875,-20.721435546875
12.7499999,2.5282769203186035,1.625662922859192,10.398017883300781,11.810302734375,-102.7984619140625,-10.2081298828125
12.7699999,2.832340717315674,1.7812861204147339,9.995792388916016,21.7437744140625,-97.015380859375,2.227783203125
12.789999900000002,3.112462282180786,1.9991583824157715,9.619902610778809,21.91162109375,-98.175048828125,10.25390625
12.809999900000001,3.3494882583618164,2.145204782485962,9.246406555175781,14.9688720703125,-102.386474609375,16.90673828125
12.8299999,3.5434184074401855,2.360682964324951,8.815450668334961,9.4757080078125,-101.2725830078125,25.054931640625
12.8499999,3.665522813796997,2.5713725090026855,8.252813339233398,9.918212890625,-96.5118408203125,39.215087890625
12.8699999,3.7229835987091064,2.7700912952423096,7.594407558441162,11.04736328125,-89.3707275390625,55.48095703125
12.889999900000001,3.7229835987091064,2.8658595085144043,6.868964672088623,8.1787109375,-85.6170654296875,65.8721923828125
12.9099999,3.706224203109741,2.806004285812378,6.217741966247559,7.99560546875,-78.033447265625,73.150634765625
12.9299999,3.6966474056243896,2.456450939178467,5.590460777282715,9.857177734375,-72.93701171875,84.320068359375
12.9499999,3.7397429943084717,1.9512743949890137,5.039794445037842,17.303466796875,-65.338134765625,88.226318359375
12.969999900000001,3.8331170082092285,1.2689268589019775,4.551377296447754,21.2860107421875,-54.2449951171875,87.5396728515625
12.9899999,3.9887399673461914,0.4692635238170624,4.110844135284424,27.6947021484375,-43.731689453125,88.31787109375
13.0099999,4.153939723968506,-0.35913026332855225,3.7277719974517822,35.2020263671875,-33.4014892578125,88.7908935546875
13.0299999,4.285621166229248,-1.0414776802062988,3.442862033843994,37.8265380859375,-22.0947265625,80.9783935546875
13.049999900000001,4.3406877517700195,-1.522712230682373,3.2082302570343018,32.4859619140625,-11.0015869140625,77.9571533203125
13.069999900000001,4.2975921630859375,-1.9153614044189453,3.1052796840667725,27.130126953125,0.152587890625,84.7625732421875
13.0899999,4.180276393890381,-2.293645143508911,3.0861260890960693,31.7535400390625,12.8326416015625,85.02197265625
13.1099999,4.015076160430908,-2.5905263423919678,3.2154128551483154,32.65380859375,25.2532958984375,71.502685546875
13.129999900000001,3.84269380569458,-2.779668092727661,3.4763808250427246,19.59228515625,33.8287353515625,65.4144287109375
13.149999900000001,3.687070608139038,-2.849100112915039,3.8091750144958496,10.0250244140625,38.787841796875,78.2318115234375
13.1699999,3.512293815612793,-3.428496837615967,4.532223701477051,35.94970703125,60.9588623046875,76.96533203125
13.1899999,3.4739866256713867,-3.931279182434082,4.874594688415527,29.8309326171875,70.80078125,56.33544921875
13.209999900000001,3.445256233215332,-4.252102375030518,5.286397457122803,7.9345703125,75.01220703125,53.314208984375
13.229999900000001,3.3854012489318848,-4.367023944854736,5.75326681137085,2.5787353515625,75.347900390625,70.709228515625
13.2499999,3.2824504375457764,-4.4292731285095215,6.27280855178833,24.6429443359375,81.0394287109375,74.0814208984375
13.2699999,3.162740468978882,-4.788403511047363,6.7277069091796875,39.3829345703125,90.8203125,54.9163818359375
13.289999900000002,3.0597896575927734,-5.149928092956543,7.228095054626465,26.0467529296875,98.9227294921875,26.519775390625
13.309999900000001,2.956839084625244,-5.446808815002441,7.680599212646484,0.06103515625,93.841552734375,20.599365234375
13.3299999,2.8371291160583496,-5.43723201751709,8.192957878112793,1.190185546875,90.88134765625,26.9012451171875
13.3499999,2.674323320388794,-5.238513469696045,8.683769226074219,18.37158203125,96.2066650390625,19.22607421875
13.3699999,2.4803929328918457,-5.0469770431518555,9.131484985351562,15.0299072265625,98.114013671875,7.7667236328125
13.389999900000001,2.2601263523101807,-4.836287498474121,9.557653427124023,-7.0343017578125,93.75,0.244140625
13.4099999,2.0470423698425293,-4.721365928649902,9.974244117736816,-19.71435546875,84.65576171875,2.9144287109375
13.4299999,1.8483237028121948,-4.613626480102539,10.366893768310547,-12.4359130859375,82.03125,0.2593994140625
13.4499999,1.680729627609253,-4.537012100219727,10.718840599060059,-3.7078857421875,82.122802734375,-9.674072265625
13.469999900000001,1.534683346748352,-4.4723687171936035,10.99656867980957,-9.2010498046875,77.4078369140625,-10.3302001953125
13.4899999,1.4077905416488647,-4.424484729766846,11.259930610656738,-14.83154296875,67.7032470703125,-6.8817138671875
13.5099999,1.2880805730819702,-4.422090530395508,11.496956825256348,-10.80322265625,61.126708984375,-9.5672607421875
13.5299999,1.192312479019165,-4.532223701477051,11.808202743530273,12.5274658203125,61.70654296875,-20.843505859375
13.549999900000001,1.1276689767837524,-4.757278919219971,12.174515724182129,25.0396728515625,59.1278076171875,-30.029296875
13.569999900000001,1.1109095811843872,-4.884171485900879,12.473791122436523,9.307861328125,40.34423828125,-40.1458740234375
13.5899999,1.1037269830703735,-4.809951305389404,12.571952819824219,-6.65283203125,27.6031494140625,-46.7376708984375
13.6099999,1.0678139925003052,-4.596867084503174,12.310985565185547,-2.7313232421875,27.1453857421875,-47.2564697265625
13.629999900000001,1.0127472877502441,-4.285621166229248,11.688492774963379,6.561279296875,30.303955078125,-48.4771728515625
13.649999900000001,0.9433154463768005,-4.036623954772949,10.860098838806152,2.899169921875,31.0516357421875,-56.4727783203125
13.6699999,0.8834604024887085,-3.9217023849487305,10.158597946166992,-4.1046142578125,33.7066650390625,-66.375732421875
13.6899999,0.828393816947937,-3.8331170082092285,9.718064308166504,-3.35693359375,34.5916748046875,-75.1190185546875
13.709999900000001,0.7613561153411865,-3.77565598487854,9.605537414550781,0.396728515625,29.7698974609375,-79.010009765625
13.729999900000001,0.6967126727104187,-3.641580820083618,9.720458984375,8.3160400390625,27.252197265625,-86.3189697265625
13.7499999,0.6560112833976746,-3.5218706130981445,10.038887977600098,12.0849609375,31.06689453125,-93.8873291015625
13.7699999,0.6344634294509888,-3.378218650817871,10.402806282043457,7.7972412109375,26.8096923828125,-103.546142578125
13.789999900000002,0.6440402865409851,-3.069366693496704,10.836156845092773,-0.9002685546875,17.7459716796875,-110.0921630859375
13.809999900000001,0.6727706789970398,-2.734178304672241,11.216835021972656,-5.279541015625,8.453369140625,-104.79736328125
13.8299999,0.7326257228851318,-2.3032219409942627,11.528080940246582,6.0577392578125,7.6141357421875,-100.0823974609375
13.8499999,0.8020575642585754,-1.9249382019042969,11.78665542602539,23.2086181640625,9.5672607421875,-101.5625
13.8699999,0.8738836050033569,-1.4963760375976562,12.114660263061523,21.4996337890625,2.197265625,-105.3314208984375
13.889999900000001,0.9313444495201111,-1.1109095811843872,12.536040306091309,5.4779052734375,-13.1378173828125,-95.916748046875
13.9099999,0.9576807022094727,-0.6153098344802856,12.995726585388184,3.23486328125,-27.89306640625,-85.2203369140625
13.9299999,0.9696516990661621,-0.17477671802043915,13.431471824645996,14.16015625,-35.7666015625,-77.7130126953125
13.9499999,0.993593692779541,0.24181437492370605,13.627796173095703,16.326904296875,-47.7752685546875,-72.021484375
13.969999900000001,1.0606313943862915,0.5363011956214905,13.623007774353027,8.6517333984375,-59.4940185546875,-62.255859375
13.9899999,1.161187767982483,0.7374141216278076,13.383587837219238,7.1258544921875,-65.643310546875,-51.45263671875
14.0099999,1.290474772453308,0.8140285611152649,13.046005249023438,8.9569091796875,-71.258544921875,-44.6319580078125
14.0299999,1.4053963422775269,0.8595184087753296,12.682085990905762,12.725830078125,-76.72119140625,-41.839599609375
14.049999900000001,1.50355863571167,0.9528923034667969,12.370840072631836,16.9677734375,-85.968017578125,-35.4461669921875
14.069999900000001,1.5849615335464478,1.1563993692398071,12.081141471862793,23.13232421875,-93.1396484375,-21.0723876953125
14.0899999,1.6855180263519287,1.3718775510787964,11.777078628540039,26.67236328125,-98.236083984375,-9.58251953125
14.1099999,1.7908629179000854,1.6041151285171509,11.382035255432129,25.8941650390625,-103.4698486328125,-4.39453125
14.129999900000001,1.9129672050476074,1.7621324062347412,10.94150161743164,26.641845703125,-106.5826416015625,1.9683837890625
14.149999900000001,2.0590133666992188,1.8746598958969116,10.414777755737305,31.4178466796875,-108.45947265625,14.8468017578125
14.1699999,2.2194249629974365,1.9105730056762695,9.90241813659668,35.15625,-108.2916259765625,27.9388427734375
14.1899999,2.3989901542663574,1.900996208190918,9.339780807495117,34.5916748046875,-110.2447509765625,33.6456298828125
14.209999900000001,2.583343744277954,1.7980455160140991,8.779537200927734,32.684326171875,-109.7869873046875,38.8946533203125
14.229999900000001,2.760514497756958,1.7046716213226318,8.185775756835938,30.9600830078125,-107.48291015625,49.37744140625
14.2499999,2.9017724990844727,1.6663644313812256,7.522581577301025,30.0140380859375,-105.1788330078125,60.4400634765625
14.2699999,3.023876667022705,1.6376339197158813,6.835445880889893,30.548095703125,-99.1363525390625,70.7244873046875
14.289999900000002,3.157952070236206,1.4724340438842773,6.1315507888793945,33.0657958984375,-91.30859375,82.9925537109375
14.309999900000001,3.31118106842041,1.0893617868423462,5.485116004943848,36.3006591796875,-81.5277099609375,91.9647216796875
14.3299999,3.488351821899414,0.629675030708313,4.886565685272217,32.4859619140625,-74.920654296875,88.134765625
14.3499999,3.6750996112823486,0.15322890877723694,4.422090530395508,21.0113525390625,-68.023681640625,89.813232421875
14.3699999,3.84269380569458,-0.3687070608139038,4.01268196105957,18.5089111328125,-60.394287109375,105.7281494140625
14.389999900000001,3.93367338180542,-0.6631938815116882,3.6391866207122803,23.895263671875,-50.7965087890625,109.06982421875
14.4099999,3.9025487899780273,-0.7589619159698486,3.2824504375457764,22.0947265625,-40.374755859375,109.86328125
14.4299999,3.732560396194458,-0.5482721924781799,2.846705913543701,9.94873046875,-33.5540771484375,129.302978515625
14.4499999,3.445256233215332,-0.5267243981361389,2.3750481605529785,4.69970703125,-21.881103515625,166.68701171875
14.469999900000001,3.1531636714935303,-1.139639973640442,1.7286136150360107,14.678955078125,-3.5247802734375,176.5289306640625
14.4899999,2.937685489654541,-2.1499931812286377,1.213860273361206,28.7933349609375,28.9764404296875,131.89697265625
14.5099999,2.784456491470337,-3.5218706130981445,0.8834604024887085,13.73291015625,51.239013671875,103.5614013671875
14.5299999,2.6647465229034424,-4.637568473815918,0.8954314589500427,-0.1068115234375,55.35888671875,118.896484375
14.549999900000001,2.494758129119873,-5.365406036376953,1.256955862045288,20.1568603515625,69.7479248046875,123.84033203125
14.569999900000001,2.298433542251587,-5.95677375793457,1.8195933103561401,52.8411865234375,93.017578125,99.3804931640625
14.5899999,2.1332337856292725,-6.512228488922119,2.669534921646118,56.2744140625,113.8916015625,70.25146484375
14.6099999,2.0231003761291504,-7.182605266571045,3.5936968326568604,43.7469482421875,115.4632568359375,63.934326171875
14.629999900000001,1.9512743949890137,-7.649474620819092,4.659116744995117,41.56494140625,115.875244140625,43.45703125
14.649999900000001,1.889025092124939,-7.819462776184082,5.750872611999512,51.6815185546875,128.6163330078125,11.9171142578125
14.6699999,1.8315643072128296,-7.7883381843566895,6.962338447570801,56.671142578125,139.3280029296875,-0.1678466796875
14.6899999,1.5610195398330688,-7.06528902053833,9.282320022583008,34.97314453125,113.983154296875,-11.53564453125
14.709999900000001,1.3503297567367554,-6.53377628326416,10.431536674499512,26.336669921875,116.455078125,-32.989501953125
14.729999900000001,1.1204863786697388,-5.95677375793457,11.595118522644043,28.4576416015625,115.509033203125,-36.9110107421875
14.7499999,0.9097966551780701,-5.449203014373779,12.571952819824219,36.0260009765625,92.041015625,-21.0418701171875
14.7699999,0.8068459630012512,-4.93923807144165,13.436260223388672,41.0308837890625,73.42529296875,-32.806396484375
14.789999900000002,0.8236053586006165,-4.611232280731201,13.883975982666016,28.7628173828125,69.15283203125,-48.64501953125
14.809999900000001,0.9193734526634216,-4.338293552398682,13.898341178894043,13.5498046875,59.26513671875,-48.40087890625
14.8299999,1.0606313943862915,-3.993528366088867,13.599065780639648,9.2926025390625,48.126220703125,-40.863037109375
14.8499999,1.1803414821624756,-3.667917013168335,13.053187370300293,10.1165771484375,39.276123046875,-38.1011962890625
14.8699999,1.2737152576446533,-3.4835634231567383,12.428300857543945,15.106201171875,39.7186279296875,-42.54150390625
14.889999900000001,1.3120225667953491,-3.3734302520751953,11.743558883666992,15.6707763671875,37.841796875,-49.8504638671875
14.9099999,1.3120225667953491,-3.313575267791748,11.195286750793457,11.5966796875,34.48486328125,-51.9866943359375
14.9299999,1.2473790645599365,-3.162740468978882,10.864887237548828,10.955810546875,31.951904296875,-51.7730712890625
14.9499999,1.115697979927063,-2.9017724990844727,10.673351287841797,11.16943359375,27.28271484375,-53.802490234375
14.969999900000001,0.9600749015808105,-2.612074136734009,10.57040023803711,9.8876953125,23.25439453125,-51.5899658203125
14.9899999,0.8307880163192749,-2.33913516998291,10.474632263183594,8.7738037109375,24.0325927734375,-49.74365234375
15.0099999,0.7781155705451965,-2.183511972427368,10.35252857208252,6.4849853515625,22.308349609375,-51.1932373046875
15.0299999,0.7805097699165344,-2.1954829692840576,10.254365921020508,8.270263671875,20.93505859375,-54.229736328125
15.049999900000001,0.8068459630012512,-2.315192937850952,10.42195987701416,13.73291015625,24.23095703125,-59.5855712890625
15.069999900000001,0.8355764150619507,-2.3343467712402344,10.733205795288086,21.9573974609375,20.5535888671875,-66.5283203125
15.0899999,0.8475474119186401,-2.4372973442077637,11.034875869750977,7.2784423828125,2.86865234375,-61.9049072265625
15.1099999,0.8403648138046265,-2.3056161403656006,11.204863548278809,-6.04248046875,-0.396728515625,-65.7806396484375
15.129999900000001,0.8212111592292786,-2.2194249629974365,11.077971458435059,-0.1373291015625,5.43212890625,-69.9615478515625
15.149999900000001,0.7805097699165344,-2.097320795059204,10.745177268981934,8.9874267578125,5.79833984375,-67.901611328125
15.1699999,0.7589619159698486,-1.9800047874450684,10.520122528076172,14.2822265625,6.195068359375,-69.88525390625
15.1899999,0.7326257228851318,-1.8267759084701538,10.405200958251953,8.7432861328125,-0.3204345703125,-72.9522705078125
15.209999900000001,0.727837324142456,-1.7094600200653076,10.486603736877441,4.3792724609375,-5.8135986328125,-72.296142578125
15.229999900000001,0.7422025203704834,-1.5155296325683594,10.6925048828125,8.9569091796875,-5.157470703125,-70.3277587890625
15.2499999,0.7661445140838623,-1.3000515699386597,10.994174003601074,9.979248046875,-8.819580078125,-68.7255859375
15.2699999,0.8044517636299133,-1.0295066833496094,11.343728065490723,6.5155029296875,-16.41845703125,-65.2923583984375
15.289999900000002,0.8595184087753296,-0.7206547260284424,11.707646369934082,2.777099609375,-24.0325927734375,-60.8367919921875
15.309999900000001,0.9361328482627869,-0.4692635238170624,11.990161895751953,2.4871826171875,-31.73828125,-53.192138671875
15.3299999,1.0654197931289673,-0.26575639843940735,12.174515724182129,4.180908203125,-37.2314453125,-49.2095947265625
15.3499999,1.237802267074585,-0.12928688526153564,12.30859088897705,0.518798828125,-43.487548828125,-47.882080078125
15.3699999,1.4245500564575195,-0.002394201699644327,12.394782066345215,-5.06591796875,-54.50439453125,-42.633056640625
15.389999900000001,1.6041151285171509,0.16519992053508759,12.49055004119873,-12.3138427734375,-64.3157958984375,-33.3709716796875
15.4099999,1.7310078144073486,0.3758896589279175,12.500126838684082,-13.7481689453125,-71.990966796875,-23.86474609375
15.4299999,1.8483237028121948,0.7134721279144287,12.437877655029297,-6.317138671875,-77.0416259765625,-18.3868408203125
15.4499999,1.9800047874450684,0.9481038451194763,12.284648895263672,0.6561279296875,-81.0699462890625,-6.072998046875
15.469999900000001,2.1475989818573,1.0558429956436157,11.966219902038574,0.7476806640625,-91.949462890625,8.544921875
15.4899999,2.382230758666992,0.9145850539207458,11.60708999633789,-3.8299560546875,-94.207763671875,10.7421875
15.5099999,2.6886885166168213,0.6105214357376099,11.18092155456543,-11.962890625,-94.5281982421875,6.77490234375
15.5299999,3.0095114707946777,0.2825157940387726,10.747570991516113,-20.5230712890625,-101.01318359375,8.7890625
15.549999900000001,3.31118106842041,0.08619125932455063,10.407594680786133,-13.2598876953125,-101.6998291015625,17.15087890625
15.569999900000001,3.5410242080688477,0.05267243832349777,10.280701637268066,-1.861572265625,-97.2747802734375,22.03369140625
15.5899999,3.6176388263702393,0.12210428714752197,10.256759643554688,-4.852294921875,-105.621337890625,25.2227783203125
15.6099999,3.576937437057495,0.18914192914962769,10.287884712219238,-19.989013671875,-118.4234619140625,32.7606201171875
15.629999900000001,3.4165258407592773,0.2513911724090576,10.177751541137695,-31.036376953125,-125.30517578125,38.6505126953125
15.649999900000001,3.2082302570343018,0.3687070608139038,9.806650161743164,-20.32470703125,-123.9776611328125,39.48974609375
15.6699999,3.0095114707946777,0.47644615173339844,9.062053680419922,-7.87353515625,-123.0926513671875,47.05810546875
15.6899999,2.873042106628418,0.6392518281936646,8.075642585754395,-6.4849853515625,-119.476318359375,59.0057373046875
15.709999900000001,2.8155810832977295,0.8834604024887085,6.842628479003906,-10.7879638671875,-114.2730712890625,67.3980712890625
15.729999900000001,2.832340717315674,0.9457096457481384,5.540182590484619,-8.8958740234375,-105.9112548828125,82.45849609375
15.7499999,2.918531894683838,0.7829039692878723,4.211400985717773,10.3302001953125,-94.1925048828125,93.20068359375
15.7699999,3.0406360626220703,0.2801215946674347,3.064578056335449,27.7099609375,-77.667236328125,94.42138671875
15.789999900000002,3.181894063949585,-0.40462008118629456,2.1140801906585693,25.8941650390625,-64.6514892578125,93.231201171875
15.809999900000001,3.3016040325164795,-1.0534487962722778,1.4245500564575195,15.655517578125,-55.2978515625,95.8099365234375
15.8299999,3.3494882583618164,-1.5897499322891235,0.9696516990661621,12.2528076171875,-42.96875,109.5733642578125
15.8499999,3.313575267791748,-2.0398597717285156,0.730231523513794,29.144287109375,-25.1617431640625,116.5771484375
15.869999900000002,3.19865345954895,-2.6575639247894287,0.6703764796257019,47.4700927734375,-7.171630859375,116.51611328125
15.889999900000001,3.004723072052002,-3.2776620388031006,0.727837324142456,45.22705078125,5.462646484375,105.9112548828125
15.9099999,2.827552318572998,-4.125209331512451,0.9457096457481384,26.0009765625,18.9971923828125,108.70361328125
15.9299999,2.671929121017456,-4.841075897216797,1.2042834758758545,24.23095703125,35.0799560546875,111.419677734375
15.9499999,2.5929205417633057,-5.456385612487793,1.5203180313110352,40.252685546875,48.2025146484375,101.3946533203125
15.969999900000001,2.559401512145996,-5.693411827087402,1.8794482946395874,44.3267822265625,65.1397705078125,91.8731689453125
15.9899999,2.535459518432617,-5.884947776794434,2.4181437492370605,31.158447265625,78.2928466796875,98.4344482421875
16.0099999,2.477998733520508,-6.200982570648193,3.1196448802948,32.5469970703125,89.202880859375,105.1025390625
16.0299999,2.4133553504943848,-6.6391215324401855,3.993528366088867,46.2646484375,95.367431640625,75.4547119140625
16.0499999,2.3343467712402344,-7.180211067199707,5.006275653839111,45.1507568359375,105.46875,49.560546875
16.0699999,2.252943754196167,-7.527369976043701,6.038176536560059,26.641845703125,106.8115234375,49.3927001953125
16.089999900000002,2.1739351749420166,-7.575253963470459,7.060500621795654,26.85546875,104.766845703125,56.09130859375
16.109999900000002,2.1164743900299072,-7.486668586730957,7.922413349151611,38.543701171875,100.03662109375,46.6461181640625
16.1299999,2.0877439975738525,-7.46033239364624,8.51138687133789,33.14208984375,103.607177734375,34.1796875
16.1499999,2.1092917919158936,-7.680599212646484,9.038111686706543,17.608642578125,112.85400390625,24.8260498046875
16.1699999,2.166752576828003,-7.568071365356445,9.531316757202148,18.7530517578125,108.642578125,-1.4801025390625
16.1899999,2.22660756111145,-7.287950038909912,10.180145263671875,23.2086181640625,96.4202880859375,-8.9111328125
16.2099999,2.27209734916687,-6.564900875091553,11.118672370910645,32.745361328125,90.8203125,-1.6937255859375
16.2299999,2.427720546722412,-4.5154643058776855,13.955801963806152,15.350341796875,58.5479736328125,11.993408203125
16.249999900000002,2.5498247146606445,-3.667917013168335,15.58864688873291,4.364013671875,25.1922607421875,18.8140869140625
16.269999900000002,2.676717519760132,-3.2824504375457764,16.871938705444336,6.4697265625,3.631591796875,29.3731689453125
16.2899999,2.779668092727661,-3.315969467163086,17.549497604370117,-1.251220703125,-17.5933837890625,38.6505126953125
16.3099999,2.8203697204589844,-3.799597978591919,17.55189323425293,-15.289306640625,-38.238525390625,41.0614013671875
16.3299999,2.760514497756958,-4.637568473815918,16.922218322753906,-25.7110595703125,-58.89892578125,38.909912109375
16.3499999,2.604891538619995,-5.5545477867126465,15.832856178283691,-36.773681640625,-72.75390625,29.3426513671875
16.3699999,2.367865562438965,-6.332663536071777,14.61420726776123,-45.5780029296875,-74.5086669921875,22.8271484375
16.3899999,2.0925323963165283,-6.876147270202637,13.400346755981445,-48.248291015625,-86.9903564453125,20.5078125
16.4099999,1.8339585065841675,-7.412448406219482,12.583924293518066,-46.7376708984375,-97.869873046875,21.8505859375
16.429999900000002,1.6687586307525635,-7.920019149780273,12.057199478149414,-47.0123291015625,-116.546630859375,5.92041015625
16.4499999,1.522712230682373,-8.56645393371582,11.585541725158691,-65.8721923828125,-140.228271484375,-11.0931396484375
16.4699999,1.4269442558288574,-8.904036521911621,10.74996566772461,-95.5810546875,-157.53173828125,-26.458740234375
16.4899999,1.3646949529647827,-9.165003776550293,9.617507934570312,-96.7559814453125,-139.1754150390625,-24.0478515625
16.5099999,1.3694833517074585,-8.889671325683594,8.169015884399414,-75.9735107421875,-121.612548828125,-41.046142578125
16.5299999,1.482010841369629,-8.674192428588867,6.876147270202637,-68.2830810546875,-113.8763427734375,-54.8553466796875
16.5499999,1.6663644313812256,-8.245630264282227,5.674258232116699,-70.9686279296875,-119.0338134765625,-68.54248046875
16.5699999,1.9297266006469727,-7.6997528076171875,4.721365928649902,-67.1844482421875,-103.4698486328125,-81.634521484375
16.589999900000002,2.1787235736846924,-6.912060260772705,3.84269380569458,-55.4656982421875,-75.6988525390625,-83.0230712890625
16.609999900000002,2.4588451385498047,-6.0190229415893555,3.069366693496704,-37.7197265625,-64.4989013671875,-78.765869140625
16.6299999,2.7557260990142822,-5.2672438621521,2.4420857429504395,-16.7388916015625,-53.466796875,-75.5462646484375
16.6499999,3.045424461364746,-4.754884719848633,1.8124107122421265,-1.4190673828125,-41.107177734375,-87.7532958984375
16.6699999,3.3231520652770996,-4.517858505249023,1.2880805730819702,8.8653564453125,-18.0511474609375,-99.6551513671875
16.6899999,3.56017804145813,-4.220977783203125,0.7924807667732239,16.326904296875,-2.62451171875,-102.996826171875
16.7099999,3.7469255924224854,-3.866635799407959,0.4189853072166443,16.998291015625,6.561279296875,-88.409423828125
16.7299999,3.883395195007324,-3.552995204925537,0.19393034279346466,14.3890380859375,22.39990234375,-74.6307373046875
16.749999900000002,3.9480385780334473,-3.3255462646484375,0.13407529890537262,17.02880859375,43.3807373046875,-80.108642578125
16.769999900000002,3.952826976776123,-3.112462282180786,0.2537853717803955,32.806396484375,58.990478515625,-92.742919921875
16.7899999,3.9169139862060547,-2.7485435009002686,0.586579442024231,46.2646484375,68.2830810546875,-85.296630859375
16.8099999,3.8546648025512695,-2.387019157409668,1.0319008827209473,35.82763671875,75.347900390625,-60.11962890625
16.8299999,3.77565598487854,-2.118868589401245,1.4987702369689941,15.655517578125,88.8214111328125,-52.55126953125
16.8499999,3.648763418197632,-2.0207061767578125,2.073378562927246,19.744873046875,105.7891845703125,-70.7855224609375
16.8699999,3.488351821899414,-1.6879122257232666,2.7700912952423096,53.1768798828125,117.2943115234375,-86.48681640625
16.8899999,3.3231520652770996,-1.1109095811843872,3.5889084339141846,22.3541259765625,113.5406494140625,-54.99267578125
16.9099999,3.181894063949585,-0.3495534360408783,4.618414878845215,-45.71533203125,116.0736083984375,-17.242431640625
16.929999900000002,3.1004912853240967,0.4141969084739685,5.746084213256836,-25.8636474609375,124.4659423828125,-22.0184326171875
16.9499999,3.093308687210083,0.8547300100326538,6.9024834632873535,44.49462890625,122.283935546875,-30.6243896484375
16.9699999,3.1100680828094482,0.9744400978088379,8.058882713317871,30.4412841796875,106.5521240234375,-2.5482177734375
16.9899999,3.112462282180786,1.0199298858642578,8.951920509338379,-38.39111328125,95.977783203125,22.8729248046875
17.0099999,3.1268274784088135,0.6871358752250671,9.768342971801758,-43.8079833984375,100.616455078125,31.158447265625
17.0299999,3.093308687210083,0.3663128614425659,10.261548042297363,7.7362060546875,98.419189453125,26.2603759765625
17.0499999,3.0310592651367188,-0.026336219161748886,10.651803016662598,22.0489501953125,87.982177734375,34.515380859375
17.0699999,2.9448680877685547,-0.1604115068912506,10.936713218688965,7.8887939453125,84.9609375,50.84228515625
17.089999900000002,2.782062292098999,-0.363918662071228,11.010933876037598,3.8604736328125,82.183837890625,68.8629150390625
17.109999900000002,2.5689783096313477,-0.7110779285430908,11.200075149536133,9.5977783203125,83.7860107421875,76.0040283203125
17.1299999,2.322375535964966,-1.4437036514282227,11.267112731933594,16.143798828125,77.545166015625,74.1424560546875
17.1499999,2.0901381969451904,-2.279279947280884,11.417947769165039,29.9835205078125,69.7174072265625,55.755615234375
17.1699999,1.8818424940109253,-3.246537446975708,11.659762382507324,35.46142578125,68.0694580078125,49.4232177734375
17.1899999,1.7046716213226318,-3.8091750144958496,11.963826179504395,43.1671142578125,58.929443359375,39.4134521484375
17.2099999,1.5179238319396973,-3.8163576126098633,12.02607536315918,48.6602783203125,40.863037109375,31.2957763671875
17.2299999,1.3503297567367554,-3.2393548488616943,11.870451927185059,35.4766845703125,42.7093505859375,39.2913818359375
17.249999900000002,1.1324573755264282,-2.341529369354248,11.355698585510254,10.5438232421875,55.3741455078125,60.4095458984375
17.269999900000002,0.950498104095459,-1.7884687185287476,10.869675636291504,8.941650390625,59.112548828125,73.54736328125
17.2899999,0.7972691655158997,-1.6136919260025024,10.541669845581055,21.7132568359375,46.8292236328125,56.6558837890625
17.3099999,0.7206547260284424,-1.7501614093780518,10.620678901672363,18.06640625,39.4744873046875,42.1905517578125
17.3299999,0.689530074596405,-1.8722656965255737,10.879252433776855,-5.645751953125,33.2489013671875,56.182861328125
17.3499999,0.6991068720817566,-2.1380221843719482,11.429919242858887,-13.0462646484375,27.4658203125,80.0933837890625
17.3699999,0.6847416758537292,-2.518700122833252,12.06198787689209,-3.1280517578125,8.1787109375,70.037841796875
17.3899999,0.6057330369949341,-2.892195701599121,12.598289489746094,-25.0396728515625,-15.8843994140625,45.318603515625
17.409999900000003,0.48602294921875,-3.177105665206909,12.662932395935059,-54.38232421875,-24.47509765625,53.7567138671875
17.429999900000002,0.35673606395721436,-3.00711727142334,12.346898078918457,-54.6417236328125,-13.336181640625,72.7691650390625
17.4499999,0.2082955539226532,-2.760514497756958,11.556811332702637,-43.6859130859375,-13.12255859375,79.7271728515625
17.4699999,0.1149216815829277,-2.868253707885742,10.8720703125,-32.2723388671875,-18.3258056640625,71.990966796875
17.4899999,0.08140286058187485,-3.1220390796661377,10.307038307189941,-15.93017578125,-19.622802734375,54.107666015625
17.5099999,0.09816227108240128,-3.4763808250427246,9.919178009033203,-10.5438232421875,-23.712158203125,50.0946044921875
17.5299999,0.16759411990642548,-3.97916316986084,9.911994934082031,-11.3525390625,-20.7977294921875,63.201904296875
17.5499999,0.22266076505184174,-4.462791919708252,10.053253173828125,-1.556396484375,-30.364990234375,49.01123046875
17.5699999,0.2777273952960968,-4.994304656982422,10.345345497131348,3.23486328125,-41.656494140625,23.284912109375
17.589999900000002,0.31842881441116333,-5.497087001800537,10.594342231750488,-3.60107421875,-40.8172607421875,23.2696533203125
17.609999900000002,0.37828385829925537,-5.583278179168701,10.678139686584473,-11.688232421875,-38.543701171875,23.01025390625
17.6299999,0.4572925269603729,-5.578489780426025,10.680533409118652,-15.5487060546875,-38.9862060546875,22.8729248046875
17.6499999,0.5363011956214905,-5.5545477867126465,10.627861022949219,-14.923095703125,-48.309326171875,14.6026611328125
17.6699999,0.6105214357376099,-5.861005783081055,10.589553833007812,-16.2200927734375,-52.978515625,4.7454833984375
17.6899999,0.6536170840263367,-6.260837554931641,10.517727851867676,-23.193359375,-53.314208984375,-11.688232421875
17.7099999,0.7015010714530945,-6.380547523498535,10.472238540649414,-35.369873046875,-55.7708740234375,-27.0233154296875
17.7299999,0.7781155705451965,-6.449979305267334,10.44350814819336,-45.166015625,-64.7125244140625,-15.838623046875
17.749999900000002,0.8738836050033569,-6.086060523986816,10.47702693939209,-25.5889892578125,-71.075439453125,-15.3045654296875
17.769999900000002,1.194706678390503,-5.856217384338379,10.295066833496094,-20.904541015625,-78.67431640625,-21.8353271484375
17.7899999,1.4197616577148438,-5.904101371765137,10.065223693847656,-31.8756103515625,-78.4912109375,-29.0069580078125
17.8099999,1.6974890232086182,-6.081272125244141,9.773131370544434,-26.0467529296875,-82.33642578125,-28.289794921875
17.8299999,1.9847931861877441,-6.256049156188965,9.421183586120605,-17.7154541015625,-85.8612060546875,-27.9083251953125
17.8499999,2.274491548538208,-6.507440090179443,8.951920509338379,-20.355224609375,-86.0137939453125,-35.7513427734375
17.8699999,2.5498247146606445,-6.761225700378418,8.389283180236816,-30.4718017578125,-81.7413330078125,-47.2412109375
17.8899999,2.7988216876983643,-6.988674640655518,7.7883381843566895,-32.65380859375,-77.5604248046875,-53.192138671875
17.909999900000003,3.026270866394043,-7.007828235626221,7.12035608291626,-23.7274169921875,-77.5299072265625,-57.342529296875
17.929999900000002,3.248931646347046,-6.871358871459961,6.550535678863525,-18.6004638671875,-70.12939453125,-59.326171875
17.9499999,3.4548330307006836,-6.648698329925537,5.925649166107178,-18.5699462890625,-63.812255859375,-60.1959228515625
17.9699999,3.6367924213409424,-6.36378812789917,5.25527286529541,-17.51708984375,-58.807373046875,-64.9261474609375
17.9899999,3.780444383621216,-6.1315507888793945,4.572925090789795,-15.1214599609375,-44.4183349609375,-69.183349609375
18.0099999,3.847482204437256,-5.760449409484863,3.840299606323242,-12.4969482421875,-27.313232421875,-76.8890380859375
18.0299999,3.8738183975219727,-5.343858242034912,3.2585084438323975,-13.5498046875,-11.04736328125,-78.5369873046875
18.0499999,3.847482204437256,-4.874594688415527,2.647987127304077,-10.80322265625,-0.8087158203125,-75.6683349609375
18.0699999,3.7876269817352295,-4.534617900848389,2.1308395862579346,-8.85009765625,15.106201171875,-78.4912109375
18.089999900000002,3.6559460163116455,-4.268861770629883,1.7310078144073486,-17.364501953125,38.63525390625,-92.529296875
18.109999900000002,3.4308910369873047,-3.909731388092041,1.4891934394836426,3.936767578125,55.17578125,-105.438232421875
18.1299999,3.1675288677215576,-3.375824451446533,1.5131354331970215,41.1834716796875,65.277099609375,-104.98046875
18.1499999,2.87064790725708,-2.715024709701538,1.8339585065841675,20.5078125,78.3233642578125,-92.0257568359375
18.1699999,2.564189910888672,-2.0638017654418945,2.365471363067627,-40.4052734375,91.888427734375,-88.5772705078125
18.1899999,2.2888567447662354,-1.4700398445129395,3.205836057662964,-47.30224609375,107.086181640625,-95.7183837890625
18.2099999,2.03507137298584,-0.9792284965515137,4.144362926483154,9.1705322265625,111.0382080078125,-91.4306640625
18.2299999,1.8267759084701538,-0.5937620401382446,5.224148273468018,39.6728515625,112.8692626953125,-80.7342529296875
18.249999900000002,1.680729627609253,-0.011971008032560349,6.327875137329102,8.3160400390625,115.8905029296875,-80.50537109375
18.269999900000002,1.5897499322891235,0.3016694188117981,7.285555839538574,-25.2838134765625,108.5662841796875,-70.709228515625
18.2899999,1.522712230682373,0.8619126081466675,8.092401504516602,-4.302978515625,105.0262451171875,-61.4166259765625
18.3099999,1.5083470344543457,1.400607943534851,8.7484130859375,26.06201171875,109.31396484375,-48.5076904296875
18.3299999,1.5059528350830078,2.008735179901123,9.229647636413574,14.7247314453125,107.7880859375,-29.3731689453125
18.3499999,1.5131354331970215,2.382230758666992,9.586383819580078,-16.7236328125,100.433349609375,-9.7198486328125
18.3699999,1.5179238319396973,2.3319525718688965,10.06043529510498,-15.5792236328125,100.2044677734375,3.3416748046875
18.3899999,1.455674648284912,1.900996208190918,10.445901870727539,7.110595703125,96.0540771484375,4.638671875
18.409999900000003,1.3742717504501343,1.3527239561080933,10.809821128845215,6.28662109375,91.3848876953125,4.2266845703125
18.429999900000002,1.2186486721038818,0.8738836050033569,11.085153579711914,-19.3328857421875,89.6148681640625,18.3868408203125
18.4499999,1.0342950820922852,0.42856210470199585,11.425130844116211,-17.6849365234375,91.339111328125,35.980224609375
18.4699999,0.790086567401886,0.08858546614646912,11.762712478637695,2.6702880859375,81.207275390625,35.552978515625
18.4899999,0.5674257874488831,-0.2082955539226532,12.157755851745605,11.566162109375,64.239501953125,25.543212890625
18.5099999,0.38546648621559143,-0.24420857429504395,12.433089256286621,-0.457763671875,57.4493408203125,33.8897705078125
18.5299999,0.24660277366638184,-0.08619125932455063,12.622231483459473,-7.14111328125,52.4139404296875,54.6417236328125
18.5499999,0.13407529890537262,0.08140286058187485,12.69405746459961,-0.823974609375,39.306640625,69.1986083984375
18.5699999,0.033518824726343155,-0.023942016065120697,12.629413604736328,5.859375,26.7333984375,69.1986083984375
18.589999900000002,-0.06703764945268631,-0.2346317619085312,12.433089256286621,-6.317138671875,21.2860107421875,62.6068115234375
18.609999900000002,-0.1867477297782898,-0.5195417404174805,12.045228958129883,-22.5677490234375,20.9503173828125,73.516845703125
18.6299999,-0.2944868206977844,-0.8355764150619507,11.619060516357422,-13.5650634765625,18.3868408203125,88.8671875
18.6499999,-0.3902548849582672,-1.1683704853057861,11.319786071777344,6.1798095703125,16.8609619140625,86.12060546875
18.6699999,-0.5027823448181152,-1.50355863571167,11.085153579711914,-1.434326171875,8.636474609375,74.554443359375
18.6899999,-0.5841852426528931,-1.6831238269805908,10.989385604858398,-26.763916015625,5.3253173828125,81.207275390625
18.7099999,-0.6512228846549988,-1.6280571222305298,10.936713218688965,-23.7579345703125,4.33349609375,97.1832275390625
18.7299999,-0.6823474764823914,-1.558625340461731,10.886435508728027,-4.39453125,-2.777099609375,105.4534912109375
18.749999900000002,-0.706289529800415,-2.2649147510528564,11.884817123413086,-15.7470703125,7.080078125,106.170654296875
18.769999900000002,-0.6655880808830261,-2.4636335372924805,12.047622680664062,-47.8668212890625,-39.9627685546875,74.27978515625
18.7899999,-0.6416460275650024,-3.098097085952759,12.502521514892578,-15.3961181640625,-56.94580078125,76.1260986328125
18.8099999,-0.5817909836769104,-3.1100680828094482,12.078747749328613,-6.2713623046875,-16.815185546875,104.3548583984375
18.8299999,-0.5650315880775452,-3.1435868740081787,11.168951034545898,-37.5823974609375,-23.7884521484375,96.4202880859375
18.8499999,-0.5291185975074768,-3.426102638244629,10.63504409790039,-28.1524658203125,-25.970458984375,80.62744140625
18.8699999,-0.5267243981361389,-3.8738183975219727,10.438719749450684,-12.2222900390625,-38.330078125,68.9697265625
18.8899999,-0.5530605912208557,-4.077325344085693,10.558429718017578,-14.1448974609375,-50.6591796875,64.51416015625
18.909999900000003,-0.6129156351089478,-4.055777549743652,10.793061256408691,-22.918701171875,-51.300048828125,70.61767578125
18.929999900000002,-0.7015010714530945,-3.9624037742614746,10.94150161743164,-25.69580078125,-52.4139404296875,77.8656005859375
18.9499999,-0.7589619159698486,-4.129997730255127,11.085153579711914,-20.8740234375,-57.4798583984375,73.8067626953125
18.9699999,-0.7996633648872375,-4.529829502105713,11.125855445861816,-19.4854736328125,-66.9403076171875,55.908203125
18.9899999,-0.790086567401886,-4.9583916664123535,11.176133155822754,-25.7110595703125,-71.5789794921875,41.9921875
19.0099999,-0.7541735172271729,-5.2480902671813965,11.106701850891113,-27.16064453125,-74.4476318359375,44.0673828125
19.0299999,-0.6943184733390808,-5.329493045806885,10.977415084838867,-24.6734619140625,-79.620361328125,46.69189453125
19.0499999,-0.5841852426528931,-5.521028995513916,10.848128318786621,-25.1617431640625,-81.756591796875,40.6951904296875
19.0699999,-0.40940847992897034,-5.7987565994262695,10.690110206604004,-27.0843505859375,-86.0748291015625,24.627685546875
19.089999900000002,-0.1628057211637497,-6.224924564361572,10.500968933105469,-32.562255859375,-89.53857421875,13.214111328125
19.109999900000002,0.15083470940589905,-6.648698329925537,10.27591323852539,-37.445068359375,-93.6737060546875,7.38525390625
19.1299999,0.5027823448181152,-6.931213855743408,10.010157585144043,-32.4859619140625,-93.07861328125,-5.18798828125
19.1499999,0.8667010068893433,-7.161057472229004,9.62947940826416,-28.2135009765625,-97.2442626953125,-17.3797607421875
19.1699999,1.216254472732544,-7.283161640167236,9.188945770263672,-34.4696044921875,-95.8709716796875,-27.16064453125
19.1899999,1.53707754611969,-7.280767440795898,8.631096839904785,-47.42431640625,-92.6361083984375,-35.3851318359375
19.2099999,1.8171991109848022,-7.216124057769775,7.996633529663086,-56.396484375,-88.31787109375,-43.02978515625
19.2299999,2.0685901641845703,-7.105990409851074,7.273584842681885,-58.319091796875,-83.19091796875,-51.849365234375
19.249999900000002,2.3032219409942627,-6.976703643798828,6.517016887664795,-57.4493408203125,-74.3408203125,-61.9049072265625
19.269999900000002,2.52109432220459,-6.866570472717285,5.726930618286133,-53.3294677734375,-63.262939453125,-70.2362060546875
19.2899999,2.7222073078155518,-6.682217121124268,4.9799394607543945,-47.5311279296875,-51.483154296875,-78.8726806640625
19.3099999,3.07415509223938,-6.04775333404541,3.8594532012939453,-30.303955078125,-26.3519287109375,-90.484619140625
19.3299999,3.2369606494903564,-5.521028995513916,3.5913026332855225,-20.3704833984375,-13.7786865234375,-95.123291015625
19.3499999,3.4165258407592773,-4.975151062011719,3.531447410583496,-13.6260986328125,-3.9825439453125,-93.32275390625
19.3699999,3.5889084339141846,-4.431667327880859,3.5170822143554688,-14.3890380859375,2.62451171875,-91.094970703125
19.3899999,3.734954595565796,-4.065354347229004,3.5745432376861572,-23.13232421875,15.1214599609375,-91.6748046875
19.409999900000003,3.804386615753174,-3.7493197917938232,3.557783842086792,-21.636962890625,28.167724609375,-96.649169921875
19.429999900000002,3.804386615753174,-3.3686418533325195,3.5745432376861572,-6.6070556640625,39.0625,-98.5260009765625
19.4499999,3.737348794937134,-2.8179752826690674,3.529053211212158,-3.7384033203125,45.95947265625,-88.3026123046875
19.4699999,3.6343982219696045,-2.0398597717285156,3.4404678344726562,-25.4058837890625,54.6722412109375,-70.953369140625
19.4899999,3.509899616241455,-1.5203180313110352,3.450044631958008,-28.1829833984375,72.479248046875,-55.48095703125
19.5099999,3.3494882583618164,-1.0678139925003052,3.469198226928711,12.0086669921875,82.03125,-64.666748046875
19.5299999,3.141192674636841,-0.8403648138046265,3.7253777980804443,31.707763671875,92.8192138671875,-74.6612548828125
19.5499999,2.894589900970459,-0.5674257874488831,4.108449935913086,-5.7373046875,98.236083984375,-64.788818359375
19.5699999,2.6024973392486572,-0.21308395266532898,4.668693542480469,-45.6085205078125,108.9019775390625,-42.938232421875
19.589999900000002,2.2673089504241943,0.3447650372982025,5.341464042663574,-19.9737548828125,115.5548095703125,-38.6199951171875
19.609999900000002,1.9321208000183105,0.7445967197418213,6.124367713928223,29.3731689453125,120.330810546875,-31.25
19.6299999,1.625662922859192,0.730231523513794,7.005434036254883,22.7508544921875,122.955322265625,-14.0380859375
19.6499999,1.3982137441635132,0.35673606395721436,7.943961143493652,-23.6053466796875,121.6583251953125,-13.5345458984375
19.6699999,1.2641384601593018,-0.2322375625371933,8.904036521911621,-30.21240234375,113.28125,-27.2064208984375
19.6899999,1.213860273361206,-0.5482721924781799,9.744400978088379,4.7149658203125,107.2540283203125,-27.2216796875
19.7099999,1.1899182796478271,-0.4620809257030487,10.424354553222656,13.0157470703125,103.607177734375,-3.4942626953125
19.7299999,1.1420341730117798,-0.021547814831137657,10.898406028747559,-13.4429931640625,101.0894775390625,18.0511474609375
19.749999900000002,1.0678139925003052,0.11252748221158981,11.370063781738281,-17.0135498046875,97.4578857421875,27.40478515625
19.769999900000002,0.9169792532920837,-0.08379705995321274,11.777078628540039,8.0718994140625,85.357666015625,23.895263671875
19.7899999,0.7230489253997803,-0.6584054827690125,12.306197166442871,13.6871337890625,76.4923095703125,24.6429443359375
19.8099999,0.5123591423034668,-0.950498104095459,12.739546775817871,6.8511962890625,61.981201171875,23.9410400390625
19.8299999,0.31124621629714966,-1.091755986213684,13.151350021362305,3.11279296875,52.5054931640625,38.1317138671875
19.8499999,0.14365209639072418,-1.2042834758758545,13.539210319519043,14.7552490234375,37.200927734375,54.7027587890625
19.8699999,0.028730420395731926,-1.3910311460494995,13.680468559265137,23.01025390625,16.4947509765625,50.4913330078125
19.8899999,-0.035913024097681046,-1.7501614093780518,13.555970191955566,10.68115234375,7.5836181640625,43.9910888671875
19.909999900000003,-0.05746084079146385,-1.9991583824157715,12.938265800476074,-5.1422119140625,7.6446533203125,47.79052734375
19.929999900000002,-0.021547814831137657,-2.0183119773864746,12.157755851745605,-7.781982421875,12.20703125,57.830810546875
19.9499999,0.06224924325942993,-2.1499931812286377,11.413159370422363,13.12255859375,11.749267578125,66.9097900390625
19.9699999,0.1604115068912506,-2.432508945465088,10.982203483581543,21.697998046875,1.983642578125,57.525634765625
19.9899999,0.22026655077934265,-2.827552318572998,10.795455932617188,5.584716796875,-6.591796875,41.595458984375
20.0099999,0.2513911724090576,-2.9233202934265137,10.737994194030762,-2.197265625,-6.4544677734375,40.9698486328125
20.0299999,0.24899697303771973,-2.7557260990142822,10.72841739654541,4.4403076171875,-5.4473876953125,56.8084716796875
20.0499999,0.2322375625371933,-2.494758129119873,10.76193618774414,13.2598876953125,-9.0179443359375,70.2362060546875
20.0699999,0.1867477297782898,-2.2840683460235596,10.828974723815918,5.18798828125,-18.1427001953125,59.26513671875
