# Time (seconds),Accel_X,Accel_Y,Accel_Z,Gyro_X,Gyro_Y,Gyro_Z
0.0099999,-9.59835433959961,-0.7445967197418213,1.3646949529647827,-0.946044921875,2.655029296875,-2.38037109375
0.029999900000000003,-9.581595420837402,-0.7829039692878723,1.3431471586227417,-0.3662109375,2.227783203125,-1.434326171875
0.0499999,-9.588777542114258,-0.7805097699165344,1.3503297567367554,0.4425048828125,0.1220703125,1.0528564453125
0.0699999,-9.612719535827637,-0.768538773059845,1.3766659498214722,0.5340576171875,0.30517578125,1.678466796875
0.08999990000000001,-9.648633003234863,-0.7469909191131592,1.4101848602294922,0.335693359375,2.74658203125,0.1068115234375
0.10999990000000001,-9.691728591918945,-0.7445967197418213,1.4700398445129395,0.9613037109375,2.777099609375,-0.9765625
0.1299999,-9.734824180603027,-0.7422025203704834,1.5203180313110352,1.617431640625,-0.7781982421875,-0.9765625
0.14999990000000002,-9.765948295593262,-0.7254431247711182,1.5442601442337036,0.9765625,-2.777099609375,-0.91552734375
0.1699999,-9.782708168029785,-0.730231523513794,1.5490485429763794,0.3662109375,0.1373291015625,0.2593994140625
0.1899999,-9.780313491821289,-0.730231523513794,1.5275006294250488,1.007080078125,1.2969970703125,0.244140625
0.20999990000000002,-9.763554573059082,-0.7493851184844971,1.5083470344543457,1.2054443359375,-1.5716552734375,-0.518798828125
0.2299999,-9.746794700622559,-0.7493851184844971,1.501164436340332,1.5869140625,-2.1514892578125,-1.2664794921875
0.2499999,-9.739612579345703,-0.7254431247711182,1.522712230682373,1.4801025390625,0.2593994140625,-1.4495849609375
0.2699999,-9.727641105651855,-0.7038952708244324,1.5107412338256836,0.42724609375,-0.79345703125,-0.0762939453125
0.28999990000000003,-9.713275909423828,-0.6703764796257019,1.5203180313110352,-0.4425048828125,-2.227783203125,-1.190185546875
0.3099999,-9.68933391571045,-0.6368576288223267,1.522712230682373,0.1068115234375,-2.044677734375,-1.922607421875
0.3299999,-9.651026725769043,-0.6392518281936646,1.501164436340332,-0.885009765625,-1.6326904296875,-0.1373291015625
0.34999990000000003,-9.615114212036133,-0.6368576288223267,1.4700398445129395,-0.5645751953125,0.2593994140625,0.335693359375
0.3699999,-9.59596061706543,-0.6607996821403503,1.45806884765625,-0.9613037109375,0.518798828125,-1.0833740234375
0.3899999,-9.593565940856934,-0.7015010714530945,1.4676456451416016,0.946044921875,-0.79345703125,-0.9765625
0.40999990000000003,-9.59835433959961,-0.6991068720817566,1.4867992401123047,0.579833984375,-2.410888671875,-0.67138671875
0.4299999,-9.607931137084961,-0.7206547260284424,1.5155296325683594,0.3509521484375,-1.28173828125,1.77001953125
0.4499999,-9.615114212036133,-0.7422025203704834,1.5155296325683594,0.762939453125,-0.3662109375,1.7547607421875
0.4699999,-9.622296333312988,-0.7972691655158997,1.522712230682373,1.4801025390625,-0.42724609375,-1.0223388671875
0.4899999,-9.636661529541016,-0.8571242094039917,1.5203180313110352,2.471923828125,-1.2054443359375,-2.227783203125
0.5099999,-9.646238327026367,-0.9074024558067322,1.5490485429763794,3.021240234375,-1.2054443359375,-0.946044921875
0.5299999,-9.646238327026367,-0.9193734526634216,1.5466543436050415,4.1961669921875,-2.5634765625,-0.1220703125
0.5499999,-9.636661529541016,-0.8954314589500427,1.5466543436050415,3.60107421875,-2.2430419921875,-1.800537109375
0.5699999,-9.63187313079834,-0.8930372595787048,1.5682021379470825,3.448486328125,-0.2288818359375,-2.0904541015625
0.5899998999999999,-9.624691009521484,-0.8427590131759644,1.5634137392044067,2.7618408203125,-2.0599365234375,-2.86865234375
0.6099998999999999,-9.62947940826416,-0.7948749661445618,1.6065093278884888,2.5787353515625,-2.532958984375,-2.1209716796875
0.6299999,-9.627084732055664,-0.7469909191131592,1.599326729774475,4.0435791015625,-2.44140625,0.8392333984375
0.6499999,-9.634267807006836,-0.730231523513794,1.6065093278884888,3.90625,-0.5645751953125,1.007080078125
0.6699999,-9.646238327026367,-0.751779317855835,1.623268723487854,4.1351318359375,1.0833740234375,-1.28173828125
0.6899999,-9.655815124511719,-0.790086567401886,1.6352397203445435,3.1280517578125,-2.13623046875,-2.7313232421875
0.7099999,-9.660603523254395,-0.7637503147125244,1.6639702320098877,1.03759765625,-3.448486328125,-2.8839111328125
0.7299998999999999,-9.653421401977539,-0.7422025203704834,1.6639702320098877,-0.030517578125,-1.5106201171875,1.7242431640625
0.7499998999999999,-9.63187313079834,-0.7015010714530945,1.644816517829895,0.5035400390625,0.1678466796875,2.9449462890625
0.7699999,-9.612719535827637,-0.7134721279144287,1.6424223184585571,-0.06103515625,0.48828125,-0.67138671875
0.7899999,-9.600749015808105,-0.751779317855835,1.6496049165725708,0.8697509765625,0.030517578125,-2.593994140625
0.8099999,-9.59835433959961,-0.768538773059845,1.6735470294952393,1.0986328125,-1.3427734375,-1.6632080078125
0.8299999,-9.591172218322754,-0.7374141216278076,1.6903064250946045,0.335693359375,-1.0528564453125,0.6866455078125
0.8499998999999999,-9.569623947143555,-0.7134721279144287,1.6735470294952393,0.152587890625,-1.1444091796875,3.143310546875
0.8699998999999999,-9.552865028381348,-0.7206547260284424,1.6615760326385498,0.579833984375,0.3509521484375,1.9989013671875
0.8899999,-9.550470352172852,-0.7661445140838623,1.656787633895874,0.946044921875,2.288818359375,-1.9989013671875
0.9099999,-9.57441234588623,-0.7829039692878723,1.6903064250946045,1.0986328125,0.8087158203125,-3.3721923828125
0.9299999,-9.603142738342285,-0.7709329724311829,1.702277421951294,0.06103515625,-2.8076171875,0.3662109375
0.9499999,-9.627084732055664,-0.7733271718025208,1.7118542194366455,0.946044921875,-1.2054443359375,4.302978515625
0.9699998999999999,-9.636661529541016,-0.768538773059845,1.680729627609253,1.068115234375,2.227783203125,0.67138671875
0.9899998999999999,-9.639056205749512,-0.8020575642585754,1.6663644313812256,0.213623046875,2.593994140625,-2.8076171875
1.0099999,-9.655815124511719,-0.8307880163192749,1.699883222579956,0.5340576171875,0.7781982421875,-1.0223388671875
1.0299999,-9.677363395690918,-0.7948749661445618,1.7525556087493896,1.708984375,-2.197265625,0.457763671875
1.0499999,-9.682151794433594,-0.768538773059845,1.745373010635376,0.6866455078125,-2.777099609375,1.03759765625
1.0699999,-9.684545516967773,-0.7924807667732239,1.7597382068634033,0.030517578125,1.617431640625,0.6866455078125
1.0899999,-9.670180320739746,-0.8092401623725891,1.7118542194366455,-0.54931640625,1.251220703125,-2.7313232421875
1.1099999,-9.66299819946289,-0.8523358106613159,1.7118542194366455,-0.0762939453125,-1.495361328125,-2.716064453125
1.1299999,-9.66299819946289,-0.8595184087753296,1.7262194156646729,2.74658203125,-1.5716552734375,-0.4425048828125
1.1499999,-9.651026725769043,-0.8140285611152649,1.7142484188079834,1.495361328125,-2.0904541015625,-0.7781982421875
1.1699998999999999,-9.639056205749512,-0.7829039692878723,1.6879122257232666,0.3814697265625,-0.18310546875,0.457763671875
1.1899998999999999,-9.622296333312988,-0.768538773059845,1.6759412288665771,1.0223388671875,1.861572265625,0.9307861328125
1.2099999,-9.617507934570312,-0.7757213711738586,1.6879122257232666,0.8087158203125,0.8544921875,-1.4190673828125
1.2299999,-9.627084732055664,-0.768538773059845,1.7477672100067139,0.274658203125,-1.220703125,-3.0975341796875
1.2499999,-9.63187313079834,-0.7374141216278076,1.7956513166427612,-1.28173828125,-2.8076171875,-1.4495849609375
1.2699999,-9.612719535827637,-0.7206547260284424,1.7980455160140991,-1.6326904296875,-1.9989013671875,1.495361328125
1.2899999,-9.569623947143555,-0.7086837291717529,1.764526605606079,-0.42724609375,1.1138916015625,0.3204345703125
1.3099999,-9.48343276977539,-0.7398083209991455,1.7334020137786865,1.5716552734375,0.732421875,0.42724609375
1.3299999,-9.473855972290039,-0.7206547260284424,1.7693150043487549,0.3204345703125,-1.007080078125,2.1209716796875
1.3499999,-9.478644371032715,-0.7206547260284424,1.7860745191574097,-1.15966796875,-0.946044921875,1.8310546875
1.3699999,-9.478644371032715,-0.7493851184844971,1.7860745191574097,-1.068115234375,1.251220703125,0.579833984375
1.3899999,-9.481039047241211,-0.7876923680305481,1.7717092037200928,-0.1678466796875,2.105712890625,-1.1444091796875
1.4099999,-9.493009567260742,-0.8164227604866028,1.7717092037200928,0.4730224609375,1.5869140625,-0.8544921875
1.4299998999999999,-9.50737476348877,-0.8164227604866028,1.7741034030914307,-0.4119873046875,-0.7781982421875,1.3275146484375
1.4499999,-9.514557838439941,-0.8427590131759644,1.766920804977417,1.0528564453125,-0.9307861328125,2.99072265625
1.4699999,-9.519346237182617,-0.8667010068893433,1.721431016921997,1.5411376953125,1.3580322265625,-0.244140625
1.4899999,-9.528923034667969,-0.8810662031173706,1.723825216293335,0.8392333984375,4.2572021484375,-3.143310546875
1.5099999,-9.560047149658203,-0.8762778043746948,1.7286136150360107,-0.1220703125,2.1820068359375,-0.79345703125
1.5299999,-9.612719535827637,-0.8331822156906128,1.7860745191574097,0.4119873046875,-0.3662109375,1.312255859375
1.5499999,-9.66299819946289,-0.811634361743927,1.8363527059555054,1.2359619140625,-0.5035400390625,0.1678466796875
1.5699999,-9.696516990661621,-0.8092401623725891,1.8267759084701538,-0.6561279296875,0.1220703125,-2.6092529296875
1.5899999,-9.703699111938477,-0.8212111592292786,1.8171991109848022,0.244140625,2.3956298828125,-2.3193359375
1.6099999,-9.701305389404297,-0.7876923680305481,1.843535304069519,0.3814697265625,2.0294189453125,-0.396728515625
1.6299999,-9.694122314453125,-0.727837324142456,1.867477297782898,0.9307861328125,-1.7242431640625,1.9683837890625
1.6499999,-9.68694019317627,-0.6560112833976746,1.867477297782898,-0.4119873046875,-3.5400390625,3.2806396484375
1.6699999,-9.68933391571045,-0.6799532771110535,1.8770540952682495,0.213623046875,1.5716552734375,3.41796875
1.6899998999999999,-9.691728591918945,-0.6919242739677429,1.8148049116134644,-1.3275146484375,2.227783203125,-1.7852783203125
1.7099999,-9.6989107131958,-0.7637503147125244,1.8171991109848022,-0.762939453125,0.6256103515625,-2.3651123046875
1.7299999,-9.701305389404297,-0.8044517636299133,1.8291701078414917,0.2288818359375,-1.495361328125,0.152587890625
1.7499999,-9.684545516967773,-0.8044517636299133,1.8363527059555054,0.396728515625,-3.0059814453125,0
1.7699999,-9.641449928283691,-0.8140285611152649,1.7980455160140991,-0.518798828125,-2.166748046875,0.30517578125
1.7899999,-9.583989143371582,-0.8451532125473022,1.764526605606079,-0.640869140625,0.518798828125,0.0152587890625
1.8099999,-9.521739959716797,-0.8690952062606812,1.721431016921997,-0.3814697265625,0.1220703125,-1.6632080078125
1.8299999,-9.473855972290039,-0.8834604024887085,1.7094600200653076,0.457763671875,-0.579833984375,-2.349853515625
1.8499999,-9.454702377319336,-0.8762778043746948,1.7405846118927002,1.15966796875,0.213623046875,-1.007080078125
1.8699999,-9.459490776062012,-0.8403648138046265,1.7741034030914307,1.03759765625,-0.030517578125,-0.8392333984375
1.8899999,-9.476250648498535,-0.8259995579719543,1.821987509727478,-0.0762939453125,-1.5106201171875,-1.251220703125
1.9099999,-9.497797966003418,-0.8403648138046265,1.8722656965255737,0.18310546875,-2.25830078125,-1.6326904296875
1.9299998999999999,-9.516951560974121,-0.8643068075180054,1.8842366933822632,1.46484375,-2.7923583984375,-2.8228759765625
1.9499999,-9.531316757202148,-0.8930372595787048,1.9177556037902832,0.152587890625,-1.861572265625,-3.1280517578125
1.9699999,-9.533711433410645,-0.8762778043746948,1.8698714971542358,-1.861572265625,-2.86865234375,-3.082275390625
1.9899999,-9.53849983215332,-0.8307880163192749,1.8387469053268433,0.3509521484375,-0.1373291015625,-1.3885498046875
2.0099999,-9.548076629638672,-0.7613561153411865,1.778891921043396,0.9765625,3.4332275390625,0.732421875
2.0299999,-9.564835548400879,-0.7182605266571045,1.7573440074920654,0.8392333984375,4.3182373046875,2.960205078125
2.0499999,-9.59835433959961,-0.7398083209991455,1.7860745191574097,1.8157958984375,2.8228759765625,2.960205078125
2.0699999,-9.62947940826416,-0.8092401623725891,1.867477297782898,2.86865234375,1.373291015625,0.2899169921875
2.0899999,-9.648633003234863,-0.8451532125473022,1.9369091987609863,1.800537109375,-1.129150390625,-2.532958984375
2.1099999,-9.646238327026367,-0.8571242094039917,1.944091796875,0.30517578125,-1.495361328125,0.91552734375
2.1299999,-9.634267807006836,-0.8475474119186401,1.920149803161621,1.434326171875,1.983642578125,4.45556640625
2.1499999,-9.617507934570312,-0.849941611289978,1.8938134908676147,1.9378662109375,3.2958984375,0.9613037109375
2.1699999,-9.600749015808105,-0.8667010068893433,1.8914192914962769,0.7171630859375,0.335693359375,-4.180908203125
2.1899999,-9.593565940856934,-0.8882488012313843,1.922544002532959,0.9918212890625,-1.922607421875,-2.9296875
2.2099999,-9.576807022094727,-0.8475474119186401,1.9177556037902832,1.0223388671875,-1.8310546875,-0.0762939453125
2.2299999,-9.560047149658203,-0.7733271718025208,1.8770540952682495,0.518798828125,0.67138671875,0.67138671875
2.2499999,-9.552865028381348,-0.730231523513794,1.8507179021835327,0.885009765625,3.1280517578125,1.800537109375
2.2699999,-9.5624418258667,-0.7398083209991455,1.8626888990402222,0.4730224609375,1.28173828125,1.8157958984375
2.2899999,-9.576807022094727,-0.7852981686592102,1.9081788063049316,1.129150390625,-2.01416015625,-0.3662109375
2.3099999,-9.581595420837402,-0.849941611289978,1.9105730056762695,-0.701904296875,-3.0364990234375,-2.1514892578125
2.3299999,-9.579200744628906,-0.8786720037460327,1.8962076902389526,-0.67138671875,1.617431640625,-1.5869140625
2.3499999,-9.564835548400879,-0.8595184087753296,1.867477297782898,0.30517578125,3.60107421875,-0.06103515625
2.3699999,-9.560047149658203,-0.8307880163192749,1.8698714971542358,0.3662109375,0.6866455078125,1.46484375
2.3899999,-9.567230224609375,-0.8020575642585754,1.9297266006469727,1.7852783203125,-1.3427734375,0.9918212890625
2.4099999,-9.567230224609375,-0.7924807667732239,1.9321208000183105,0.5035400390625,-2.50244140625,-0.5950927734375
2.4299999,-9.560047149658203,-0.8188169598579407,1.9177556037902832,0.06103515625,0.91552734375,-0.3204345703125
2.4499999,-9.550470352172852,-0.8188169598579407,1.8579005002975464,1.0528564453125,3.5552978515625,-0.9765625
2.4699999,-9.552865028381348,-0.8140285611152649,1.843535304069519,0.91552734375,2.74658203125,-0.3509521484375
2.4899999,-9.57201862335205,-0.8140285611152649,1.889025092124939,1.5869140625,1.3275146484375,1.6326904296875
2.5099999,-9.59835433959961,-0.8092401623725891,1.9584569931030273,0.67138671875,-1.5716552734375,0.3204345703125
2.5299999,-9.610325813293457,-0.7996633648872375,1.9847931861877441,-0.1373291015625,-2.227783203125,-1.495361328125
2.5499999,-9.600749015808105,-0.8068459630012512,1.9704279899597168,0.2899169921875,0.213623046875,-0.396728515625
2.5699999,-9.581595420837402,-0.790086567401886,1.920149803161621,0.5645751953125,2.410888671875,1.03759765625
2.5899999,-9.564835548400879,-0.7709329724311829,1.900996208190918,-0.0762939453125,1.40380859375,0.6561279296875
2.6099999,-9.560047149658203,-0.7876923680305481,1.9033904075622559,-0.213623046875,-0.5950927734375,1.068115234375
2.6299999,-9.555258750915527,-0.7996633648872375,1.9273324012756348,-0.2593994140625,-1.068115234375,0.3814697265625
2.6499999,-9.543288230895996,-0.7852981686592102,1.9369091987609863,-0.2593994140625,-0.2899169921875,0.335693359375
2.6699999,-9.526528358459473,-0.7733271718025208,1.9129672050476074,0.54931640625,-0.3814697265625,4.3487548828125
2.6899999,-9.524134635925293,-0.7805097699165344,1.8938134908676147,1.64794921875,0.7171630859375,6.8359375
2.7099999,-9.548076629638672,-0.7996633648872375,1.9105730056762695,0.9613037109375,2.38037109375,2.0751953125
2.7299999,-9.591172218322754,-0.8212111592292786,1.9536685943603516,-1.068115234375,0.79345703125,-2.3651123046875
2.7499999,-9.619902610778809,-0.8379706144332886,1.9847931861877441,-1.190185546875,-2.288818359375,0.2593994140625
2.7699999,-9.617507934570312,-0.8403648138046265,1.987187385559082,0.5340576171875,-1.77001953125,3.3416748046875
2.7899999,-9.586383819580078,-0.8403648138046265,1.944091796875,0.701904296875,1.64794921875,0.5035400390625
2.8099999,-9.550470352172852,-0.8643068075180054,1.8842366933822632,0.732421875,3.4027099609375,-1.312255859375
2.8299999,-9.557653427124023,-0.8451532125473022,1.922544002532959,-0.06103515625,0.518798828125,-0.701904296875
2.8499999,-9.576807022094727,-0.8068459630012512,1.9584569931030273,-0.54931640625,-1.5106201171875,0.0152587890625
2.8699999,-9.583989143371582,-0.8092401623725891,1.9823989868164062,0.946044921875,0.2288818359375,0.701904296875
2.8899999,-9.576807022094727,-0.811634361743927,1.9608511924743652,0.946044921875,1.4495849609375,-2.1209716796875
2.9099999,-9.567230224609375,-0.8020575642585754,1.9608511924743652,0.4730224609375,1.5411376953125,-3.204345703125
2.9299999,-9.555258750915527,-0.7852981686592102,1.9800047874450684,0.946044921875,0.06103515625,0.5340576171875
2.9499999,-9.533711433410645,-0.7206547260284424,1.9800047874450684,0.030517578125,-1.9989013671875,2.1820068359375
2.9699999,-9.497797966003418,-0.6919242739677429,1.946485996246338,0.0152587890625,-0.030517578125,1.800537109375
2.9899999,-9.469067573547363,-0.7158663272857666,1.9033904075622559,0.640869140625,3.9520263671875,0.8544921875
3.0099999,-9.469067573547363,-0.7230489253997803,1.8914192914962769,0.579833984375,4.364013671875,-1.7852783203125
3.0299999,-9.502586364746094,-0.7374141216278076,1.9297266006469727,1.0528564453125,0.579833984375,-0.5950927734375
3.0499999,-9.548076629638672,-0.6967126727104187,1.9800047874450684,1.2359619140625,-2.3193359375,1.15966796875
3.0699999,-9.579200744628906,-0.6655880808830261,1.98958158493042,0.54931640625,-0.701904296875,2.7008056640625
3.0899999,-9.588777542114258,-0.667982280254364,1.9584569931030273,0.48828125,3.2806396484375,2.99072265625
3.1099999,-9.593565940856934,-0.706289529800415,1.922544002532959,-0.1068115234375,3.6468505859375,0.9307861328125
3.1299999,-9.615114212036133,-0.7709329724311829,1.9393033981323242,0.3509521484375,2.349853515625,-0.4425048828125
3.1499999,-9.643844604492188,-0.8092401623725891,1.9919757843017578,0.762939453125,-0.30517578125,-1.2054443359375
3.1699999,-9.66539192199707,-0.811634361743927,2.008735179901123,-0.152587890625,-2.227783203125,-0.9613037109375
3.1899999,-9.66299819946289,-0.7876923680305481,2.0015525817871094,-0.4119873046875,0.0457763671875,0.06103515625
3.2099999,-9.62947940826416,-0.768538773059845,1.968033790588379,-0.5950927734375,2.288818359375,0.67138671875
3.2299999,-9.591172218322754,-0.7781155705451965,1.9369091987609863,-0.6256103515625,1.190185546875,0.0762939453125
3.2499999,-9.560047149658203,-0.7781155705451965,1.9536685943603516,0.152587890625,-0.06103515625,-2.3345947265625
3.2699999,-9.53849983215332,-0.7661445140838623,1.9560627937316895,-0.274658203125,-1.220703125,-2.2430419921875
3.2899999,-9.514557838439941,-0.7422025203704834,1.941697597503662,-0.1220703125,-0.3509521484375,0.91552734375
3.3099999,-9.490615844726562,-0.7398083209991455,1.9033904075622559,-0.4119873046875,1.9989013671875,1.190185546875
3.3299999000000002,-9.469067573547363,-0.7613561153411865,1.8746598958969116,0.1220703125,4.0283203125,-1.739501953125
3.3499999,-9.469067573547363,-0.790086567401886,1.886630892753601,0.8392333984375,2.6702880859375,-2.62451171875
3.3699999,-9.50498104095459,-0.7924807667732239,1.9560627937316895,1.89208984375,0.885009765625,-0.18310546875
3.3899999,-9.548076629638672,-0.7613561153411865,1.987187385559082,0.640869140625,-1.9378662109375,1.708984375
3.4099999,-9.579200744628906,-0.751779317855835,1.968033790588379,-0.9307861328125,-0.9613037109375,1.77001953125
3.4299999,-9.59596061706543,-0.7829039692878723,1.9488801956176758,-0.640869140625,4.730224609375,-0.4119873046875
3.4499999,-9.59835433959961,-0.7948749661445618,1.9273324012756348,0.457763671875,3.96728515625,-2.5787353515625
3.4699999,-9.615114212036133,-0.8164227604866028,1.9560627937316895,0.732421875,-0.518798828125,-0.5035400390625
3.4899999,-9.636661529541016,-0.8068459630012512,2.006340980529785,0.7781982421875,-1.5716552734375,1.52587890625
3.5099999,-9.643844604492188,-0.7876923680305481,1.987187385559082,-0.946044921875,-0.732421875,-0.1373291015625
3.5299999,-9.634267807006836,-0.7924807667732239,1.9536685943603516,-1.15966796875,2.471923828125,-0.823974609375
3.5499999,-9.603142738342285,-0.7948749661445618,1.9129672050476074,-1.0833740234375,2.86865234375,-0.8087158203125
3.5699999,-9.586383819580078,-0.7781155705451965,1.9321208000183105,0.54931640625,1.1749267578125,-0.457763671875
3.5899999,-9.579200744628906,-0.7613561153411865,1.965639591217041,1.2359619140625,-1.068115234375,1.068115234375
3.6099999,-9.57201862335205,-0.7637503147125244,1.9776105880737305,-0.3509521484375,-2.0904541015625,1.739501953125
3.6299999,-9.555258750915527,-0.7805097699165344,1.9536685943603516,-0.457763671875,0.8392333984375,-0.1373291015625
3.6499999,-9.528923034667969,-0.8020575642585754,1.9153614044189453,-0.457763671875,3.204345703125,-2.0904541015625
3.6699999,-9.514557838439941,-0.7996633648872375,1.9105730056762695,0.42724609375,2.3193359375,-1.6021728515625
3.6899999,-9.519346237182617,-0.7613561153411865,1.946485996246338,0.6103515625,-0.4119873046875,0.42724609375
3.7099999,-9.526528358459473,-0.7326257228851318,1.9536685943603516,-0.6866455078125,-1.7852783203125,1.8157958984375
3.7299999,-9.528923034667969,-0.7206547260284424,1.946485996246338,-1.6021728515625,0.8087158203125,-0.0762939453125
3.7499999,-9.514557838439941,-0.7398083209991455,1.9033904075622559,-0.396728515625,3.4942626953125,-1.708984375
3.7699999,-9.495404243469238,-0.7445967197418213,1.8938134908676147,1.0223388671875,3.2501220703125,-1.8310546875
3.7899999,-9.490615844726562,-0.7110779285430908,1.9273324012756348,0.579833984375,0.9765625,-0.30517578125
3.8099999,-9.497797966003418,-0.6919242739677429,1.968033790588379,0.1373291015625,-0.2288818359375,2.44140625
3.8299999000000002,-9.512163162231445,-0.6823474764823914,1.987187385559082,-0.4425048828125,0.579833984375,1.6021728515625
3.8499999,-9.528923034667969,-0.7110779285430908,1.9512743949890137,-0.5340576171875,2.410888671875,-0.0762939453125
3.8699999,-9.548076629638672,-0.7829039692878723,1.9177556037902832,-0.396728515625,3.5858154296875,0.6561279296875
3.8899999,-9.57201862335205,-0.790086567401886,1.9081788063049316,-0.244140625,2.8076171875,0.2899169921875
3.9099999,-9.59835433959961,-0.8140285611152649,1.9273324012756348,-0.640869140625,0.396728515625,1.953125
3.9299999,-9.619902610778809,-0.8379706144332886,1.9728221893310547,0.4730224609375,0.2899169921875,2.7923583984375
3.9499999,-9.624691009521484,-0.8451532125473022,1.9704279899597168,-0.213623046875,-0.06103515625,-0.79345703125
3.9699999,-9.624691009521484,-0.8762778043746948,1.968033790588379,-0.4425048828125,1.8463134765625,-1.3885498046875
3.9899999,-9.617507934570312,-0.8810662031173706,1.9560627937316895,0.18310546875,1.8768310546875,0.0762939453125
4.0099999,-9.612719535827637,-0.8619126081466675,1.9512743949890137,1.5716552734375,0.457763671875,-0.1678466796875
4.029999900000001,-9.59835433959961,-0.8188169598579407,1.9584569931030273,1.495361328125,-0.457763671875,-0.8087158203125
4.0499999,-9.57201862335205,-0.7613561153411865,1.9488801956176758,0.06103515625,-0.1678466796875,0.213623046875
4.069999900000001,-9.548076629638672,-0.7110779285430908,1.9321208000183105,-0.579833984375,1.129150390625,1.922607421875
4.0899999000000005,-9.519346237182617,-0.6703764796257019,1.8986018896102905,-0.42724609375,1.556396484375,0.9765625
4.1099999,-9.50498104095459,-0.6703764796257019,1.8842366933822632,-0.152587890625,1.708984375,-0.1220703125
4.1299999000000005,-9.519346237182617,-0.6871358752250671,1.8914192914962769,1.4801025390625,2.3956298828125,-0.2899169921875
4.1499999,-9.548076629638672,-0.7015010714530945,1.9297266006469727,2.25830078125,1.2054443359375,0.1983642578125
4.1699999000000005,-9.583989143371582,-0.6943184733390808,1.9536685943603516,1.495361328125,-1.2969970703125,1.068115234375
4.1899999,-9.607931137084961,-0.6751648783683777,1.9728221893310547,0.42724609375,-0.91552734375,1.3885498046875
4.209999900000001,-9.605537414550781,-0.6847416758537292,1.9536685943603516,-0.030517578125,0.79345703125,1.739501953125
4.2299999,-9.588777542114258,-0.7015010714530945,1.9129672050476074,-0.1373291015625,1.8463134765625,0.2593994140625
4.249999900000001,-9.5624418258667,-0.7374141216278076,1.8770540952682495,-2.044677734375,2.4261474609375,-1.8157958984375
4.2699999,-9.550470352172852,-0.7757213711738586,1.8746598958969116,-2.01416015625,2.960205078125,-1.2969970703125
4.289999900000001,-9.550470352172852,-0.7565677165985107,1.8962076902389526,-0.8392333984375,2.01416015625,-0.396728515625
4.3099999,-9.564835548400879,-0.751779317855835,1.9393033981323242,-0.4425048828125,0.335693359375,1.9073486328125
4.329999900000001,-9.586383819580078,-0.7541735172271729,1.965639591217041,0.91552734375,-0.3204345703125,2.7313232421875
4.3499999,-9.63187313079834,-0.8331822156906128,1.9584569931030273,0.396728515625,2.166748046875,-1.3885498046875
4.369999900000001,-9.636661529541016,-0.8547300100326538,1.946485996246338,-0.213623046875,0.518798828125,-1.861572265625
4.3899999,-9.63187313079834,-0.8331822156906128,1.968033790588379,0.335693359375,-0.8544921875,-0.4425048828125
4.409999900000001,-9.605537414550781,-0.7924807667732239,1.9560627937316895,-0.0762939453125,-1.5716552734375,0.946044921875
4.4299999,-9.57201862335205,-0.768538773059845,1.941697597503662,0,0.579833984375,0.1983642578125
4.449999900000001,-9.533711433410645,-0.7541735172271729,1.9129672050476074,-0.091552734375,2.6092529296875,-1.495361328125
4.4699999,-9.502586364746094,-0.7541735172271729,1.889025092124939,-0.5035400390625,1.6632080078125,-1.52587890625
4.489999900000001,-9.493009567260742,-0.7613561153411865,1.9153614044189453,1.15966796875,1.3275146484375,0.152587890625
4.5099999,-9.502586364746094,-0.751779317855835,1.944091796875,1.89208984375,0.18310546875,0.1373291015625
4.529999900000001,-9.524134635925293,-0.7254431247711182,1.968033790588379,0.06103515625,-0.67138671875,-1.1444091796875
4.5499999,-9.548076629638672,-0.6991068720817566,1.9728221893310547,-1.068115234375,0.579833984375,-0.030517578125
4.569999900000001,-9.564835548400879,-0.6751648783683777,1.9560627937316895,-0.79345703125,1.40380859375,1.4190673828125
4.5899999000000005,-9.57201862335205,-0.6655880808830261,1.9345149993896484,-0.48828125,1.617431640625,1.068115234375
4.609999900000001,-9.576807022094727,-0.6943184733390808,1.922544002532959,0,1.617431640625,0.8697509765625
4.6299999000000005,-9.583989143371582,-0.7469909191131592,1.9105730056762695,0.091552734375,0.946044921875,0.7476806640625
4.6499999,-9.591172218322754,-0.7829039692878723,1.9057846069335938,-0.30517578125,1.2054443359375,-0.3814697265625
4.6699999000000005,-9.600749015808105,-0.8044517636299133,1.9081788063049316,-0.2288818359375,1.800537109375,-0.3509521484375
4.6899999,-9.607931137084961,-0.790086567401886,1.9105730056762695,-0.1373291015625,1.40380859375,0.3662109375
4.709999900000001,-9.610325813293457,-0.7637503147125244,1.9321208000183105,0.1678466796875,1.373291015625,0.5950927734375
4.7299999,-9.605537414550781,-0.7326257228851318,1.9345149993896484,-0.5035400390625,0.946044921875,0.213623046875
4.749999900000001,-9.59835433959961,-0.7134721279144287,1.9393033981323242,-1.1138916015625,1.5411376953125,-0.030517578125
4.7699999,-9.593565940856934,-0.706289529800415,1.9512743949890137,0.0152587890625,2.7008056640625,0.2288818359375
4.789999900000001,-9.583989143371582,-0.7086837291717529,1.9488801956176758,0.152587890625,0.9613037109375,0.30517578125
4.8099999,-9.579200744628906,-0.7206547260284424,1.9536685943603516,0.0762939453125,-0.0762939453125,0.8087158203125
4.829999900000001,-9.583989143371582,-0.7254431247711182,1.9728221893310547,1.556396484375,1.220703125,0.67138671875
4.8499999,-9.581595420837402,-0.7015010714530945,1.9560627937316895,-0.06103515625,-0.274658203125,0.1678466796875
4.869999900000001,-9.576807022094727,-0.7086837291717529,1.944091796875,-0.79345703125,-0.6561279296875,2.38037109375
4.8899999,-9.569623947143555,-0.7350199222564697,1.9177556037902832,0.213623046875,1.3275146484375,1.8157958984375
4.909999900000001,-9.557653427124023,-0.7541735172271729,1.889025092124939,0.4730224609375,2.13623046875,-2.532958984375
4.9299999,-9.552865028381348,-0.7757213711738586,1.886630892753601,0.5035400390625,1.312255859375,-2.349853515625
4.949999900000001,-9.5624418258667,-0.7493851184844971,1.9105730056762695,1.2359619140625,0.457763671875,1.1749267578125
4.9699999,-9.567230224609375,-0.7086837291717529,1.9129672050476074,0.2899169921875,-0.6561279296875,2.5482177734375
4.989999900000001,-9.569623947143555,-0.6967126727104187,1.9105730056762695,0,1.251220703125,0.9765625
5.0099999,-9.57201862335205,-0.727837324142456,1.9129672050476074,0.0762939453125,3.448486328125,-1.15966796875
5.029999900000001,-9.579200744628906,-0.7565677165985107,1.920149803161621,0.3204345703125,1.6021728515625,-1.5869140625
5.0499999,-9.59835433959961,-0.751779317855835,1.9512743949890137,0.2899169921875,-0.3204345703125,-0.8392333984375
5.069999900000001,-9.612719535827637,-0.7326257228851318,1.9776105880737305,-0.0152587890625,-0.3204345703125,1.64794921875
5.0899999000000005,-9.615114212036133,-0.7110779285430908,1.9704279899597168,-1.2054443359375,0.2288818359375,1.3275146484375
5.109999900000001,-9.59596061706543,-0.7015010714530945,1.965639591217041,-0.42724609375,1.007080078125,-0.5035400390625
5.1299999000000005,-9.5624418258667,-0.7134721279144287,1.922544002532959,-0.3814697265625,-0.1678466796875,-0.396728515625
5.1499999,-9.533711433410645,-0.7110779285430908,1.9033904075622559,-0.42724609375,1.4495849609375,0.4425048828125
5.1699999000000005,-9.526528358459473,-0.7110779285430908,1.9057846069335938,0.030517578125,2.9144287109375,0.946044921875
5.1899999,-9.5408935546875,-0.7134721279144287,1.9153614044189453,-0.1678466796875,0.885009765625,0.762939453125
5.209999900000001,-9.57201862335205,-0.7326257228851318,1.9512743949890137,-0.42724609375,-0.5645751953125,0.0457763671875
5.2299999,-9.59596061706543,-0.7445967197418213,1.9632453918457031,-0.335693359375,-0.1373291015625,-0.4425048828125
5.249999900000001,-9.600749015808105,-0.7541735172271729,1.9488801956176758,-0.5950927734375,0.91552734375,-0.0152587890625
5.2699999,-9.591172218322754,-0.7589619159698486,1.9345149993896484,0.5340576171875,2.105712890625,0.457763671875
5.289999900000001,-9.576807022094727,-0.7589619159698486,1.9297266006469727,0.79345703125,1.5411376953125,-0.30517578125
5.3099999,-9.57201862335205,-0.7493851184844971,1.9393033981323242,0.2288818359375,0.3509521484375,-0.579833984375
5.329999900000001,-9.569623947143555,-0.727837324142456,1.9704279899597168,-0.5950927734375,0.5645751953125,-0.1983642578125
5.3499999,-9.567230224609375,-0.7158663272857666,1.9728221893310547,-1.0528564453125,-0.091552734375,1.0223388671875
5.369999900000001,-9.560047149658203,-0.7230489253997803,1.9560627937316895,0.2899169921875,0.1068115234375,0.885009765625
5.3899999,-9.552865028381348,-0.730231523513794,1.9393033981323242,0.3814697265625,1.89208984375,-1.1138916015625
5.409999900000001,-9.557653427124023,-0.7326257228851318,1.944091796875,-0.0152587890625,2.5177001953125,-1.0986328125
5.4299999,-9.567230224609375,-0.727837324142456,1.941697597503662,-0.8087158203125,-0.3509521484375,1.0833740234375
5.449999900000001,-9.576807022094727,-0.7206547260284424,1.946485996246338,0.5950927734375,-0.91552734375,1.556396484375
5.4699999,-9.576807022094727,-0.7254431247711182,1.944091796875,1.434326171875,1.068115234375,-0.0152587890625
5.489999900000001,-9.57201862335205,-0.7398083209991455,1.9177556037902832,1.220703125,2.01416015625,-0.579833984375
5.5099999,-9.57201862335205,-0.7493851184844971,1.900996208190918,0.42724609375,1.15966796875,-0.0152587890625
5.529999900000001,-9.586383819580078,-0.730231523513794,1.9273324012756348,0.396728515625,1.5411376953125,-0.152587890625
5.5499999,-9.59835433959961,-0.7254431247711182,1.944091796875,-0.0152587890625,0.18310546875,-0.091552734375
5.569999900000001,-9.59835433959961,-0.706289529800415,1.9608511924743652,-0.18310546875,-0.7171630859375,-0.732421875
5.5899999000000005,-9.581595420837402,-0.6943184733390808,1.9512743949890137,-0.244140625,0.4425048828125,-0.4730224609375
5.609999900000001,-9.555258750915527,-0.6775590777397156,1.9369091987609863,0.06103515625,2.166748046875,0.335693359375
5.6299999000000005,-9.53849983215332,-0.6703764796257019,1.9297266006469727,0.3204345703125,1.953125,0.762939453125
5.6499999,-9.536105155944824,-0.6751648783683777,1.9321208000183105,0.2593994140625,0.3509521484375,0.6866455078125
5.6699999000000005,-9.5408935546875,-0.6799532771110535,1.920149803161621,-0.3204345703125,-0.0152587890625,-0.4425048828125
5.6899999,-9.552865028381348,-0.7015010714530945,1.9321208000183105,0.091552734375,2.44140625,0.3509521484375
5.709999900000001,-9.564835548400879,-0.6943184733390808,1.944091796875,-0.030517578125,2.166748046875,0.335693359375
5.7299999,-9.579200744628906,-0.6967126727104187,1.9560627937316895,-0.06103515625,-0.762939453125,1.0986328125
5.749999900000001,-9.586383819580078,-0.7182605266571045,1.9632453918457031,-0.1220703125,-1.03759765625,1.40380859375
5.7699999,-9.588777542114258,-0.768538773059845,1.9393033981323242,0.1983642578125,1.922607421875,-0.396728515625
5.789999900000001,-9.579200744628906,-0.7852981686592102,1.9249382019042969,0.4119873046875,3.173828125,-2.9754638671875
5.8099999,-9.57201862335205,-0.790086567401886,1.9488801956176758,0.518798828125,1.03759765625,-1.3885498046875
5.829999900000001,-9.57201862335205,-0.7493851184844971,1.9823989868164062,-0.2288818359375,-2.13623046875,0.9918212890625
5.8499999,-9.583989143371582,-0.7134721279144287,2.027888774871826,0.3662109375,-1.800537109375,0.640869140625
5.869999900000001,-9.586383819580078,-0.7015010714530945,1.9369091987609863,-0.6561279296875,1.9683837890625,-0.5645751953125
5.8899999,-9.57441234588623,-0.7230489253997803,1.889025092124939,0.0152587890625,2.4261474609375,-0.4425048828125
5.909999900000001,-9.5624418258667,-0.7206547260284424,1.8818424940109253,0.8392333984375,0.8087158203125,-1.0833740234375
5.9299999,-9.5624418258667,-0.7182605266571045,1.9153614044189453,1.708984375,0.3509521484375,1.068115234375
5.949999900000001,-9.576807022094727,-0.6991068720817566,1.9488801956176758,1.3885498046875,0.4730224609375,2.288818359375
5.9699999,-9.59835433959961,-0.6943184733390808,1.9752163887023926,0.0152587890625,0.762939453125,0.4119873046875
5.989999900000001,-9.619902610778809,-0.7086837291717529,2.006340980529785,0.1678466796875,0.640869140625,-1.3885498046875
6.0099999,-9.62947940826416,-0.7015010714530945,2.0039467811584473,-0.8087158203125,-0.732421875,-1.617431640625
6.029999900000001,-9.624691009521484,-0.7158663272857666,2.0039467811584473,-0.518798828125,-0.213623046875,0.9918212890625
6.0499999,-9.607931137084961,-0.7182605266571045,1.987187385559082,-0.7476806640625,0.396728515625,0.54931640625
6.069999900000001,-9.586383819580078,-0.7326257228851318,1.9847931861877441,-0.1068115234375,0.30517578125,-1.434326171875
6.0899999000000005,-9.567230224609375,-0.727837324142456,1.9919757843017578,0.3509521484375,-1.556396484375,-1.7242431640625
6.109999900000001,-9.545681953430176,-0.7038952708244324,1.98958158493042,0.0762939453125,-2.5634765625,0.91552734375
6.1299999000000005,-9.528923034667969,-0.6943184733390808,1.9632453918457031,-0.9613037109375,-0.9307861328125,2.288818359375
6.149999900000001,-9.516951560974121,-0.6967126727104187,1.944091796875,-0.244140625,2.197265625,-0.48828125
6.1699999000000005,-9.50737476348877,-0.7230489253997803,1.9081788063049316,-1.46484375,1.708984375,-2.8228759765625
6.1899999,-9.50498104095459,-0.7757213711738586,1.9129672050476074,-0.8544921875,1.3885498046875,-0.67138671875
6.209999900000001,-9.50737476348877,-0.7805097699165344,1.9105730056762695,0.30517578125,1.6326904296875,-0.335693359375
6.2299999,-9.519346237182617,-0.7924807667732239,1.9512743949890137,1.8157958984375,3.1890869140625,-0.3662109375
6.249999900000001,-9.5408935546875,-0.7757213711738586,1.9847931861877441,0.9002685546875,1.6632080078125,-0.1068115234375
6.2699999,-9.564835548400879,-0.7541735172271729,2.0254945755004883,-0.7476806640625,-0.2899169921875,0.6561279296875
6.289999900000001,-9.581595420837402,-0.7589619159698486,2.0422539710998535,-0.579833984375,0.1983642578125,1.2664794921875
6.3099999,-9.583989143371582,-0.7493851184844971,2.0159177780151367,-0.1373291015625,1.678466796875,-0.701904296875
6.329999900000001,-9.581595420837402,-0.7661445140838623,1.9967641830444336,0.274658203125,2.86865234375,-0.701904296875
6.3499999,-9.586383819580078,-0.7565677165985107,1.9919757843017578,0.3662109375,1.7547607421875,0.3204345703125
6.369999900000001,-9.593565940856934,-0.7374141216278076,2.027888774871826,0.48828125,-0.6561279296875,0.2593994140625
6.3899999,-9.588777542114258,-0.7254431247711182,2.0374655723571777,0.54931640625,-2.1514892578125,-0.244140625
6.409999900000001,-9.557653427124023,-0.7134721279144287,1.9991583824157715,0.3509521484375,-0.6103515625,-1.5716552734375
6.4299999,-9.514557838439941,-0.7086837291717529,1.9536685943603516,0.5035400390625,3.204345703125,-1.6937255859375
6.449999900000001,-9.478644371032715,-0.6751648783683777,1.9081788063049316,0.335693359375,3.7994384765625,-0.6103515625
6.4699999,-9.473855972290039,-0.6871358752250671,1.900996208190918,-0.3662109375,1.1444091796875,2.3651123046875
6.489999900000001,-9.509769439697266,-0.7254431247711182,1.9249382019042969,0.4425048828125,1.3885498046875,1.77001953125
6.5099999,-9.5624418258667,-0.7805097699165344,1.9536685943603516,0.732421875,2.105712890625,-2.5177001953125
6.529999900000001,-9.607931137084961,-0.811634361743927,1.9752163887023926,0.091552734375,1.495361328125,-3.23486328125
6.5499999,-9.639056205749512,-0.811634361743927,2.013523578643799,0.1373291015625,0.9002685546875,0.4425048828125
6.569999900000001,-9.648633003234863,-0.7757213711738586,2.030282974243164,0.0457763671875,-0.5645751953125,1.739501953125
6.5899999000000005,-9.651026725769043,-0.7493851184844971,2.0446481704711914,-0.244140625,-0.0457763671875,-0.457763671875
6.609999900000001,-9.651026725769043,-0.7493851184844971,2.0470423698425293,-0.5645751953125,0.8087158203125,-1.6632080078125
6.6299999000000005,-9.648633003234863,-0.7422025203704834,2.032677173614502,-0.3509521484375,-0.2288818359375,-0.8392333984375
6.649999900000001,-9.643844604492188,-0.7254431247711182,2.0183119773864746,-0.4730224609375,-0.5645751953125,-0.030517578125
6.6699999000000005,-9.627084732055664,-0.706289529800415,2.0159177780151367,-1.007080078125,0.5340576171875,-0.30517578125
6.6899999,-9.59835433959961,-0.7086837291717529,1.9776105880737305,-1.28173828125,-0.213623046875,-0.0762939453125
6.709999900000001,-9.564835548400879,-0.7158663272857666,1.965639591217041,-0.9613037109375,0.732421875,-0.67138671875
6.7299999,-9.526528358459473,-0.7134721279144287,1.968033790588379,-0.6256103515625,1.6937255859375,-1.4801025390625
6.749999900000001,-9.476250648498535,-0.6943184733390808,1.944091796875,-0.762939453125,-0.79345703125,0.244140625
6.7699999,-9.435548782348633,-0.6919242739677429,1.9297266006469727,-0.213623046875,-0.3814697265625,2.8228759765625
6.789999900000001,-9.418789863586426,-0.689530074596405,1.9177556037902832,0.5645751953125,3.11279296875,1.617431640625
6.8099999,-9.425971984863281,-0.7254431247711182,1.886630892753601,-0.4119873046875,2.685546875,0.18310546875
6.829999900000001,-9.464279174804688,-0.790086567401886,1.8722656965255737,-1.03759765625,1.2054443359375,0.8697509765625
6.8499999,-9.524134635925293,-0.8236053586006165,1.922544002532959,-0.0152587890625,3.11279296875,-0.48828125
6.869999900000001,-9.57441234588623,-0.828393816947937,1.9488801956176758,0.30517578125,1.7242431640625,-1.0223388671875
6.8899999,-9.617507934570312,-0.8307880163192749,1.98958158493042,0.4425048828125,-0.1678466796875,1.2664794921875
6.909999900000001,-9.648633003234863,-0.8140285611152649,2.0159177780151367,0.030517578125,0.79345703125,1.0223388671875
6.9299999,-9.66299819946289,-0.811634361743927,2.013523578643799,-0.4119873046875,1.983642578125,-0.8087158203125
6.949999900000001,-9.667786598205566,-0.8188169598579407,2.008735179901123,-0.91552734375,1.220703125,-0.9765625
6.9699999,-9.660603523254395,-0.8307880163192749,2.0254945755004883,-0.3509521484375,0.640869140625,-0.732421875
6.989999900000001,-9.646238327026367,-0.8020575642585754,2.0207061767578125,-0.54931640625,-0.4119873046875,-1.678466796875
7.0099999,-9.63187313079834,-0.7757213711738586,2.03507137298584,0.152587890625,0.3204345703125,-0.5645751953125
7.029999900000001,-9.612719535827637,-0.7445967197418213,2.0207061767578125,-0.335693359375,0.1678466796875,0.5340576171875
7.0499999,-9.593565940856934,-0.7254431247711182,2.0015525817871094,-0.3662109375,-0.0762939453125,0
7.069999900000001,-9.57201862335205,-0.7230489253997803,1.9919757843017578,-0.2899169921875,0.8087158203125,-1.2664794921875
7.0899999000000005,-9.555258750915527,-0.7350199222564697,1.9847931861877441,0.030517578125,0.640869140625,-0.9002685546875
7.109999900000001,-9.548076629638672,-0.727837324142456,1.9823989868164062,0.06103515625,-0.274658203125,0.0152587890625
7.1299999000000005,-9.550470352172852,-0.730231523513794,1.9967641830444336,-0.06103515625,-0.152587890625,0.7781982421875
7.149999900000001,-9.557653427124023,-0.7206547260284424,1.9943699836730957,-0.67138671875,-0.457763671875,0.30517578125
7.1699999000000005,-9.5624418258667,-0.7158663272857666,1.9991583824157715,0.274658203125,0.5340576171875,0.06103515625
7.1899999,-9.552865028381348,-0.7206547260284424,1.9800047874450684,-0.732421875,0.3814697265625,0.6103515625
7.209999900000001,-9.5408935546875,-0.751779317855835,1.9752163887023926,-0.9918212890625,0.8544921875,0.8087158203125
7.2299999,-9.528923034667969,-0.7709329724311829,1.9752163887023926,-0.9307861328125,1.068115234375,-0.6866455078125
7.249999900000001,-9.516951560974121,-0.790086567401886,1.9632453918457031,-0.4730224609375,-0.030517578125,-0.701904296875
7.2699999,-9.50737476348877,-0.7996633648872375,1.968033790588379,-0.0152587890625,0.274658203125,1.15966796875
7.289999900000001,-9.493009567260742,-0.7829039692878723,1.944091796875,-0.67138671875,1.0528564453125,1.0528564453125
7.3099999,-9.48343276977539,-0.7709329724311829,1.9321208000183105,-1.8463134765625,2.288818359375,-0.091552734375
7.329999900000001,-9.48343276977539,-0.7876923680305481,1.9512743949890137,-0.6103515625,3.3416748046875,0.06103515625
7.3499999,-9.495404243469238,-0.811634361743927,1.9776105880737305,0.6866455078125,0.91552734375,0.030517578125
7.369999900000001,-9.521739959716797,-0.8307880163192749,2.011129379272461,1.4495849609375,-0.457763671875,-0.701904296875
7.3899999,-9.569623947143555,-0.8307880163192749,2.006340980529785,-0.8087158203125,2.197265625,0.0152587890625
7.409999900000001,-9.581595420837402,-0.7876923680305481,2.006340980529785,-0.640869140625,2.227783203125,-0.640869140625
7.4299999,-9.588777542114258,-0.7398083209991455,2.006340980529785,-0.1373291015625,0.2899169921875,-0.4425048828125
7.449999900000001,-9.59596061706543,-0.7134721279144287,2.0254945755004883,-0.213623046875,0.2899169921875,1.3885498046875
7.4699999,-9.600749015808105,-0.706289529800415,2.0614075660705566,0.396728515625,1.678466796875,1.190185546875
7.489999900000001,-9.59835433959961,-0.727837324142456,2.0446481704711914,-0.762939453125,-0.79345703125,-0.48828125
7.5099999,-9.586383819580078,-0.7541735172271729,2.027888774871826,-1.0986328125,-0.640869140625,-0.885009765625
7.529999900000001,-9.569623947143555,-0.7781155705451965,2.0039467811584473,-0.1678466796875,1.8157958984375,0.54931640625
7.5499999,-9.550470352172852,-0.7757213711738586,1.987187385559082,0.42724609375,1.7547607421875,1.068115234375
7.569999900000001,-9.533711433410645,-0.7541735172271729,1.9823989868164062,-0.213623046875,-0.4425048828125,0.1068115234375
7.5899999000000005,-9.519346237182617,-0.7613561153411865,1.987187385559082,-0.457763671875,-0.5035400390625,1.007080078125
7.609999900000001,-9.502586364746094,-0.7637503147125244,1.9560627937316895,-0.640869140625,0.9918212890625,0.3662109375
7.6299999000000005,-9.495404243469238,-0.7876923680305481,1.9321208000183105,0.18310546875,3.2806396484375,-0.7476806640625
7.649999900000001,-9.502586364746094,-0.8020575642585754,1.9249382019042969,1.1138916015625,3.204345703125,-1.15966796875
7.6699999000000005,-9.528923034667969,-0.8044517636299133,1.9512743949890137,0.518798828125,1.251220703125,-0.5950927734375
7.6899999,-9.564835548400879,-0.7781155705451965,1.98958158493042,0.1983642578125,0.3662109375,-0.0152587890625
7.709999900000001,-9.59596061706543,-0.7493851184844971,2.0207061767578125,-0.3814697265625,0.885009765625,0.732421875
7.7299999,-9.615114212036133,-0.7398083209991455,2.03507137298584,-0.030517578125,1.220703125,0.8544921875
7.749999900000001,-9.617507934570312,-0.7350199222564697,2.032677173614502,-0.1983642578125,0.335693359375,-0.335693359375
7.7699999,-9.612719535827637,-0.7469909191131592,2.0422539710998535,0.396728515625,0.732421875,-0.1373291015625
7.789999900000001,-9.605537414550781,-0.727837324142456,2.0207061767578125,-0.0457763671875,0.06103515625,-0.1373291015625
7.8099999,-9.600749015808105,-0.730231523513794,2.0039467811584473,0.0457763671875,0.5950927734375,1.129150390625
7.829999900000001,-9.593565940856934,-0.7326257228851318,1.9704279899597168,-0.5340576171875,0.823974609375,0.9918212890625
7.8499999,-9.583989143371582,-0.7541735172271729,1.9536685943603516,-0.1373291015625,1.0833740234375,-0.4425048828125
7.869999900000001,-9.567230224609375,-0.7781155705451965,1.9728221893310547,0.9918212890625,1.4495849609375,-0.7781982421875
7.8899999,-9.536105155944824,-0.7781155705451965,1.9943699836730957,0.213623046875,0.1220703125,-0.1983642578125
7.909999900000001,-9.497797966003418,-0.7709329724311829,2.0183119773864746,-0.06103515625,-0.4425048828125,1.007080078125
7.9299999,-9.461885452270508,-0.7829039692878723,2.030282974243164,0.91552734375,1.2359619140625,1.2359619140625
7.949999900000001,-9.430760383605957,-0.8068459630012512,1.9991583824157715,0.5645751953125,1.373291015625,-0.213623046875
7.9699999,-9.435548782348633,-0.8331822156906128,1.9776105880737305,0.4119873046875,1.800537109375,-0.6561279296875
7.989999900000001,-9.464279174804688,-0.8619126081466675,1.9632453918457031,0.6866455078125,1.0528564453125,0.518798828125
8.0099999,-9.50737476348877,-0.8810662031173706,1.9249382019042969,1.0528564453125,-0.18310546875,0.3662109375
8.0299999,-9.53849983215332,-0.8882488012313843,1.9321208000183105,1.373291015625,1.678466796875,-1.2359619140625
8.049999900000001,-9.552865028381348,-0.8906430602073669,1.9153614044189453,1.5716552734375,2.410888671875,-1.953125
8.069999900000001,-9.560047149658203,-0.8738836050033569,1.946485996246338,1.8463134765625,3.0059814453125,-0.823974609375
8.0899999,-9.586383819580078,-0.8068459630012512,1.9823989868164062,0.7476806640625,2.44140625,-1.7852783203125
8.1099999,-9.636661529541016,-0.7422025203704834,2.0470423698425293,1.0223388671875,1.6632080078125,-0.8087158203125
8.129999900000001,-9.682151794433594,-0.6751648783683777,2.073378562927246,0.0457763671875,-0.457763671875,0.6256103515625
8.149999900000001,-9.713275909423828,-0.6368576288223267,2.1045033931732178,0.5035400390625,-0.0152587890625,1.6021728515625
8.1699999,-9.6989107131958,-0.6200982332229614,2.0829553604125977,0.18310546875,-0.091552734375,0.9613037109375
8.1899999,-9.66299819946289,-0.6392518281936646,2.051830768585205,0.2899169921875,0.2593994140625,0.3509521484375
8.2099999,-9.63187313079834,-0.6560112833976746,2.0159177780151367,0.1678466796875,1.3885498046875,-0.1983642578125
8.229999900000001,-9.605537414550781,-0.6943184733390808,1.9991583824157715,-0.762939453125,1.2969970703125,-0.06103515625
8.2499999,-9.581595420837402,-0.7134721279144287,1.9967641830444336,-1.3885498046875,0.3814697265625,-1.251220703125
8.2699999,-9.560047149658203,-0.7350199222564697,1.987187385559082,-1.2969970703125,-0.1068115234375,-2.0294189453125
8.2899999,-9.528923034667969,-0.7398083209991455,2.011129379272461,0.30517578125,1.3885498046875,-1.2054443359375
8.309999900000001,-9.48343276977539,-0.727837324142456,1.9632453918457031,-1.9989013671875,-0.701904296875,-0.335693359375
8.3299999,-9.442731857299805,-0.7422025203704834,1.9512743949890137,-0.8697509765625,0.946044921875,1.708984375
8.3499999,-9.428366661071777,-0.7541735172271729,1.920149803161621,0.701904296875,3.4942626953125,0.54931640625
8.3699999,-9.44752025604248,-0.8044517636299133,1.946485996246338,1.800537109375,3.4332275390625,0
8.389999900000001,-9.493009567260742,-0.8140285611152649,1.9847931861877441,0.946044921875,-0.8544921875,-0.2899169921875
8.4099999,-9.536105155944824,-0.811634361743927,2.011129379272461,0.2899169921875,-2.716064453125,1.373291015625
8.4299999,-9.555258750915527,-0.7876923680305481,1.987187385559082,-0.030517578125,0.579833984375,3.0364990234375
8.4499999,-9.555258750915527,-0.7661445140838623,1.9823989868164062,1.220703125,5.7373046875,1.3427734375
8.469999900000001,-9.564835548400879,-0.7422025203704834,1.9776105880737305,-0.0457763671875,2.9296875,0.06103515625
8.4899999,-9.588777542114258,-0.751779317855835,2.027888774871826,-0.274658203125,-1.5869140625,1.312255859375
8.5099999,-9.612719535827637,-0.751779317855835,2.0685901641845703,0.3204345703125,-1.9683837890625,1.0986328125
8.5299999,-9.610325813293457,-0.7565677165985107,2.056619167327881,0.5645751953125,-0.30517578125,0.3204345703125
8.549999900000001,-9.583989143371582,-0.7661445140838623,2.011129379272461,0.3204345703125,1.03759765625,0.640869140625
8.569999900000001,-9.557653427124023,-0.7541735172271729,1.9728221893310547,0.3662109375,1.8157958984375,0.1068115234375
8.5899999,-9.555258750915527,-0.7398083209991455,1.9512743949890137,0.5950927734375,1.6021728515625,-0.1373291015625
8.6099999,-9.581595420837402,-0.7326257228851318,1.9608511924743652,-0.5645751953125,1.0528564453125,-0.396728515625
8.629999900000001,-9.617507934570312,-0.7493851184844971,1.9847931861877441,-0.91552734375,0.54931640625,-0.3204345703125
8.649999900000001,-9.62947940826416,-0.768538773059845,1.9967641830444336,-1.3275146484375,-0.335693359375,-1.4190673828125
8.6699999,-9.610325813293457,-0.7805097699165344,1.9847931861877441,-0.7781982421875,-0.1373291015625,-1.6021728515625
8.6899999,-9.579200744628906,-0.7709329724311829,1.9823989868164062,0.1373291015625,1.6021728515625,-0.4119873046875
8.709999900000001,-9.560047149658203,-0.751779317855835,2.008735179901123,1.373291015625,1.7242431640625,0.7476806640625
8.729999900000001,-9.550470352172852,-0.7086837291717529,1.9991583824157715,-0.1068115234375,-2.6092529296875,0.030517578125
8.7499999,-9.5624418258667,-0.730231523513794,2.0207061767578125,0.732421875,-1.5716552734375,1.1749267578125
8.7699999,-9.579200744628906,-0.7493851184844971,2.0015525817871094,0.732421875,1.3275146484375,-0.1678466796875
8.7899999,-9.593565940856934,-0.7781155705451965,1.9823989868164062,0.0457763671875,0.6256103515625,-1.5716552734375
8.809999900000001,-9.603142738342285,-0.7972691655158997,1.9967641830444336,0.579833984375,-0.8087158203125,-0.579833984375
8.8299999,-9.59596061706543,-0.790086567401886,2.027888774871826,2.3651123046875,-1.0833740234375,1.220703125
8.8499999,-9.560047149658203,-0.7733271718025208,2.032677173614502,1.64794921875,-0.9002685546875,1.2359619140625
8.8699999,-9.516951560974121,-0.768538773059845,2.0398597717285156,-0.1373291015625,1.5716552734375,-0.6561279296875
8.889999900000001,-9.488221168518066,-0.7733271718025208,2.0398597717285156,0.1220703125,3.082275390625,-1.2054443359375
8.9099999,-9.500192642211914,-0.727837324142456,2.097320795059204,-0.6103515625,-1.03759765625,0.396728515625
8.9299999,-9.509769439697266,-0.7015010714530945,2.073378562927246,-0.7476806640625,-1.77001953125,1.708984375
8.9499999,-9.502586364746094,-0.7398083209991455,2.03507137298584,-0.396728515625,1.8310546875,1.5411376953125
8.969999900000001,-9.485827445983887,-0.7661445140838623,1.9823989868164062,-0.579833984375,3.875732421875,-2.044677734375
8.9899999,-9.48343276977539,-0.8044517636299133,1.9943699836730957,0.244140625,2.9296875,-1.5869140625
9.0099999,-9.493009567260742,-0.8236053586006165,2.030282974243164,1.190185546875,-1.3580322265625,1.129150390625
9.0299999,-9.497797966003418,-0.8092401623725891,2.0422539710998535,0.640869140625,-3.1890869140625,0.7781982421875
9.049999900000001,-9.48343276977539,-0.8331822156906128,2.0015525817871094,0.42724609375,1.1749267578125,-0.4730224609375
9.069999900000001,-9.454702377319336,-0.8523358106613159,1.946485996246338,-0.152587890625,5.8746337890625,-2.6092529296875
9.0899999,-9.435548782348633,-0.8355764150619507,1.9369091987609863,0.701904296875,5.767822265625,-3.1890869140625
9.1099999,-9.445125579833984,-0.8020575642585754,1.9847931861877441,1.312255859375,1.373291015625,0.0152587890625
9.129999900000001,-9.47146224975586,-0.7469909191131592,2.0207061767578125,0.8544921875,-0.3509521484375,1.28173828125
9.149999900000001,-9.50498104095459,-0.7374141216278076,2.0446481704711914,0.701904296875,3.4942626953125,-0.3662109375
9.1699999,-9.536105155944824,-0.7398083209991455,2.006340980529785,0.1678466796875,5.18798828125,-2.8228759765625
9.1899999,-9.581595420837402,-0.7445967197418213,2.0159177780151367,0.91552734375,3.96728515625,-2.777099609375
9.209999900000001,-9.63187313079834,-0.6943184733390808,2.051830768585205,1.1749267578125,1.251220703125,-0.5340576171875
9.229999900000001,-9.677363395690918,-0.6631938815116882,2.0805611610412598,0.8697509765625,-1.5411376953125,2.9144287109375
9.2499999,-9.696516990661621,-0.6727706789970398,2.0614075660705566,-0.0152587890625,0.5035400390625,2.2430419921875
9.2699999,-9.696516990661621,-0.7374141216278076,2.013523578643799,0.2288818359375,4.0130615234375,-1.7547607421875
9.2899999,-9.694122314453125,-0.8044517636299133,1.9823989868164062,-0.6103515625,3.387451171875,-4.058837890625
9.309999900000001,-9.701305389404297,-0.8619126081466675,2.0015525817871094,0.5950927734375,0.244140625,-1.03759765625
9.3299999,-9.708487510681152,-0.849941611289978,1.9991583824157715,0.8697509765625,-3.8909912109375,-0.1220703125
9.3499999,-9.6989107131958,-0.8643068075180054,1.9728221893310547,-0.8087158203125,-1.4190673828125,-1.0223388671875
9.3699999,-9.66299819946289,-0.8738836050033569,1.941697597503662,-0.885009765625,3.326416015625,-2.5482177734375
9.389999900000001,-9.607931137084961,-0.8355764150619507,1.922544002532959,0.3662109375,1.4801025390625,-3.5247802734375
9.4099999,-9.550470352172852,-0.8020575642585754,1.9752163887023926,1.6021728515625,-1.0528564453125,-0.0457763671875
9.4299999,-9.497797966003418,-0.7398083209991455,2.027888774871826,0.030517578125,-1.64794921875,0.885009765625
9.4499999,-9.459490776062012,-0.6871358752250671,2.0398597717285156,-2.5787353515625,0.67138671875,-2.25830078125
9.469999900000001,-9.440337181091309,-0.6560112833976746,2.032677173614502,-2.1209716796875,3.5858154296875,-2.044677734375
9.4899999,-9.44991397857666,-0.6703764796257019,1.9991583824157715,-0.8087158203125,1.89208984375,2.0294189453125
9.5099999,-9.493009567260742,-0.7110779285430908,1.9991583824157715,0.91552734375,0.457763671875,2.9296875
9.5299999,-9.545681953430176,-0.7637503147125244,2.0015525817871094,0.79345703125,0.9002685546875,-0.6561279296875
9.549999900000001,-9.586383819580078,-0.8475474119186401,2.0015525817871094,-0.54931640625,0.9765625,-1.007080078125
9.569999900000001,-9.605537414550781,-0.8834604024887085,2.0015525817871094,-1.7242431640625,1.0986328125,-0.42724609375
9.5899999,-9.607931137084961,-0.8930372595787048,2.0159177780151367,-1.15966796875,0.823974609375,-0.1983642578125
9.6099999,-9.600749015808105,-0.8978256583213806,2.027888774871826,-0.30517578125,-0.030517578125,0.030517578125
9.629999900000001,-9.583989143371582,-0.8906430602073669,2.0159177780151367,-0.8087158203125,-0.67138671875,-1.0833740234375
9.649999900000001,-9.560047149658203,-0.871489405632019,2.0183119773864746,-1.03759765625,1.220703125,-1.556396484375
9.6699999,-9.526528358459473,-0.8331822156906128,1.9967641830444336,0.030517578125,0.9918212890625,0.4730224609375
9.6899999,-9.485827445983887,-0.8164227604866028,1.9584569931030273,0.1373291015625,-0.3204345703125,2.62451171875
9.709999900000001,-9.459490776062012,-0.8092401623725891,1.9393033981323242,0.5340576171875,2.1209716796875,1.434326171875
9.729999900000001,-9.452308654785156,-0.8403648138046265,1.9249382019042969,1.1444091796875,3.692626953125,-0.3509521484375
9.7499999,-9.473855972290039,-0.849941611289978,1.944091796875,1.1749267578125,2.44140625,-0.762939453125
9.7699999,-9.514557838439941,-0.8355764150619507,1.9919757843017578,0.885009765625,0.5950927734375,0.579833984375
9.7899999,-9.560047149658203,-0.7996633648872375,2.049436569213867,0.48828125,0.152587890625,1.4495849609375
9.809999900000001,-9.591172218322754,-0.7709329724311829,2.0590133666992188,0.06103515625,0.54931640625,0.396728515625
9.8299999,-9.593565940856934,-0.7781155705451965,2.03507137298584,-1.3275146484375,1.708984375,-1.2359619140625
9.8499999,-9.586383819580078,-0.7852981686592102,2.0231003761291504,-0.762939453125,3.326416015625,-1.922607421875
9.8699999,-9.576807022094727,-0.7948749661445618,1.9943699836730957,-0.5035400390625,1.1138916015625,-0.4425048828125
9.889999900000001,-9.57201862335205,-0.7876923680305481,1.9967641830444336,0.3814697265625,-0.0762939453125,1.7242431640625
9.9099999,-9.579200744628906,-0.7781155705451965,1.98958158493042,0.7476806640625,1.0986328125,1.3275146484375
9.9299999,-9.593565940856934,-0.7733271718025208,1.987187385559082,-0.06103515625,2.4566650390625,0.6103515625
9.9499999,-9.619902610778809,-0.7805097699165344,1.9943699836730957,-0.9002685546875,1.9073486328125,0.091552734375
9.969999900000001,-9.651026725769043,-0.7829039692878723,2.030282974243164,-0.5340576171875,0.6866455078125,0.518798828125
9.9899999,-9.672574996948242,-0.7948749661445618,2.054224967956543,-0.6561279296875,-1.1138916015625,0.6866455078125
10.0099999,-9.672574996948242,-0.8212111592292786,2.0614075660705566,0.0152587890625,-0.8544921875,0.8392333984375
10.0299999,-9.648633003234863,-0.8259995579719543,2.03507137298584,-0.5950927734375,0.3814697265625,-0.9918212890625
10.049999900000001,-9.610325813293457,-0.8212111592292786,1.9943699836730957,-0.8544921875,0.9307861328125,-1.2664794921875
10.069999900000001,-9.57441234588623,-0.8379706144332886,1.9608511924743652,-0.7781982421875,0.9918212890625,-0.06103515625
10.0899999,-9.543288230895996,-0.828393816947937,1.9297266006469727,0.091552734375,1.1444091796875,-2.288818359375
10.1099999,-9.516951560974121,-0.8307880163192749,1.8938134908676147,0.2899169921875,1.5869140625,-4.69970703125
10.129999900000001,-9.500192642211914,-0.8523358106613159,1.8579005002975464,-0.0762939453125,3.72314453125,-4.3487548828125
10.149999900000001,-9.488221168518066,-0.849941611289978,1.8291701078414917,-2.288818359375,6.0272216796875,-5.9051513671875
10.1699999,-9.493009567260742,-0.8427590131759644,1.8387469053268433,-3.082275390625,6.561279296875,-7.7667236328125
10.1899999,-9.512163162231445,-0.8451532125473022,1.8938134908676147,-2.166748046875,6.1187744140625,-7.476806640625
10.209999900000001,-9.53849983215332,-0.8475474119186401,1.968033790588379,-3.41796875,3.4332275390625,-6.8817138671875
10.229999900000001,-9.564835548400879,-0.8762778043746948,2.0446481704711914,-4.1656494140625,2.38037109375,-6.53076171875
10.2499999,-9.581595420837402,-1.0558429956436157,2.032677173614502,-4.2572021484375,1.0986328125,-5.126953125
10.2699999,-9.610325813293457,-1.5466543436050415,1.9345149993896484,-2.4871826171875,2.0904541015625,-8.056640625
10.2899999,-9.651026725769043,-2.3104045391082764,1.7549498081207275,-0.701904296875,4.547119140625,-23.345947265625
10.309999900000001,-9.72285270690918,-3.2106244564056396,1.5514427423477173,4.57763671875,6.2408447265625,-41.93115234375
10.3299999,-9.821015357971191,-3.9624037742614746,1.4652514457702637,12.87841796875,7.14111328125,-49.8199462890625
10.3499999,-9.885659217834473,-4.436455726623535,1.403002142906189,19.6380615234375,0.2593994140625,-45.5322265625
10.3699999,-9.907206535339355,-4.668693542480469,1.381454348564148,26.1993408203125,-1.5869140625,-47.210693359375
10.389999900000001,-9.864110946655273,-5.027823448181152,1.2090718746185303,33.1268310546875,4.1961669921875,-60.0433349609375
10.4099999,-9.785101890563965,-5.542576789855957,0.8882488012313843,38.02490234375,17.730712890625,-95.5047607421875
10.4299999,-9.691728591918945,-6.18182897567749,-0.1412578970193863,29.78515625,54.2449951171875,-174.0875244140625
10.4499999,-9.782708168029785,-5.367800235748291,-0.3280056416988373,33.0352783203125,79.3609619140625,-185.2874755859375
10.469999900000001,-9.947908401489258,-3.337517261505127,0.05506663769483566,32.3486328125,85.3729248046875,-167.022705078125
10.4899999,-10.180145263671875,-0.33039984107017517,1.1779472827911377,28.961181640625,53.314208984375,-94.1619873046875
10.5099999,-10.395624160766602,2.80361008644104,2.609679937362671,24.505615234375,5.7525634765625,2.960205078125
10.5299999,-10.515334129333496,4.908113479614258,3.8163576126098633,16.2506103515625,-25.299072265625,75.347900390625
10.549999900000001,-10.548852920532227,5.556941986083984,4.345476150512695,4.608154296875,-28.3050537109375,82.2906494140625
10.569999900000001,-10.608707427978516,5.17626428604126,4.3406877517700195,-12.8021240234375,-24.5513916015625,69.2596435546875
10.5899999,-10.807426452636719,5.0685248374938965,4.185064792633057,-37.1246337890625,-37.872314453125,94.7265625
10.6099999,-11.317391395568848,5.841852188110352,4.170699596405029,-60.1654052734375,-71.8994140625,184.7381591796875
10.629999900000001,-12.148179054260254,7.156269073486328,4.077325344085693,-80.0018310546875,-106.99462890625,297.5006103515625
10.649999900000001,-13.0914945602417,7.704541206359863,3.5051112174987793,-101.9287109375,-122.7874755859375,364.44091796875
10.6699999,-13.740324020385742,6.0836663246154785,2.097320795059204,-101.0894775390625,-105.712890625,365.6158447265625
10.6899999,-13.7666597366333,2.1045033931732178,0.17477671802043915,-76.2786865234375,-51.4984130859375,292.3736572265625
10.709999900000001,-13.163320541381836,-2.9328970909118652,-1.6663644313812256,-52.581787109375,9.7808837890625,166.6259765625
10.729999900000001,-12.203246116638184,-7.156269073486328,-2.6144683361053467,-54.107666015625,40.3900146484375,62.9730224609375
10.7499999,-11.307814598083496,-9.765948295593262,-2.513911724090576,-42.54150390625,35.919189453125,42.4346923828125
10.7699999,-10.735600471496582,-10.381258964538574,-1.6400281190872192,-21.453857421875,27.3895263671875,19.4091796875
10.7899999,-10.517727851867676,-9.99339771270752,-0.5410895943641663,-3.2501220703125,31.768798828125,-40.71044921875
10.809999900000001,-10.520122528076172,-9.66299819946289,0.10295066982507706,17.425537109375,43.0145263671875,-103.3782958984375
10.8299999,-10.759542465209961,-9.986215591430664,0.035913024097681046,37.628173828125,57.80029296875,-163.1622314453125
10.8499999,-11.291055679321289,-10.759542465209961,-0.5363011956214905,50.0946044921875,97.10693359375,-260.772705078125
10.8699999,-12.215216636657715,-11.54005241394043,-1.625662922859192,47.42431640625,130.3253173828125,-366.14990234375
10.889999900000001,-13.498509407043457,-11.499350547790527,-2.655169725418091,43.914794921875,168.365478515625,-433.685302734375
10.9099999,-14.889540672302246,-10.038887977600098,-3.2393548488616943,51.3916015625,205.047607421875,-441.9403076171875
10.9299999,-16.012420654296875,-7.3693528175354,-3.1100680828094482,66.680908203125,212.1124267578125,-407.3486328125
10.9499999,-16.438589096069336,-3.667917013168335,-2.1930887699127197,62.835693359375,189.849853515625,-367.00439453125
10.969999900000001,-15.98129653930664,-0.009576806798577309,-0.7398083209991455,51.8035888671875,155.3192138671875,-286.2091064453125
10.9899999,-14.834473609924316,3.5434184074401855,1.1827356815338135,48.8739013671875,121.673583984375,-181.5185546875
11.0099999,-13.333309173583984,6.756437301635742,3.136404275894165,27.3895263671875,62.469482421875,-72.9217529296875
11.0299999,-12.15296745300293,9.272743225097656,5.044582843780518,14.923095703125,-25.360107421875,78.216552734375
11.049999900000001,-11.765107154846191,10.869675636291504,6.390124320983887,6.7596435546875,-102.8289794921875,227.2186279296875
11.069999900000001,-12.471396446228027,11.535264015197754,6.799532890319824,-12.3138427734375,-162.4603271484375,342.193603515625
11.0899999,-14.362815856933594,11.3269681930542,6.172252178192139,-46.234130859375,-194.8089599609375,432.2509765625
11.1099999,-17.154455184936523,9.945513725280762,4.817133903503418,-79.620361328125,-213.2720947265625,499.9847412109375
11.129999900000001,-19.92933464050293,7.206547260284424,2.9927520751953125,-102.7984619140625,-233.367919921875,499.9847412109375
11.149999900000001,-21.557392120361328,2.7485435009002686,0.19632454216480255,-132.7362060546875,-248.8250732421875,499.9847412109375
11.1699999,-21.13840675354004,-3.8067808151245117,-3.0861260890960693,-108.3984375,-162.017822265625,392.8070068359375
11.1899999,-18.811243057250977,-10.034099578857422,-6.004657745361328,-49.774169921875,4.852294921875,175.384521484375
11.209999900000001,-15.514427185058594,-14.381969451904297,-7.55131196975708,-19.7296142578125,78.0792236328125,18.2647705078125
11.229999900000001,-12.483367919921875,-15.310919761657715,-6.840234279632568,-15.9454345703125,62.469482421875,-20.721435546875
11.2499999,-10.54645824432373,-13.893552780151367,-4.766855716705322,-23.5137939453125,28.4423828125,-5.1116943359375
11.2699999,-9.832986831665039,-11.6430025100708,-2.513911724090576,12.51220703125,46.417236328125,-57.6324462890625
11.2899999,-10.108319282531738,-10.3549222946167,-1.1324573755264282,41.4886474609375,85.8154296875,-179.0924072265625
11.309999900000001,-11.192893028259277,-10.587160110473633,-0.8236053586006165,47.42431640625,107.4066162109375,-280.8380126953125
11.3299999,-12.85207462310791,-10.912771224975586,-1.0582371950149536,59.5550537109375,130.035400390625,-381.0577392578125
11.3499999,-14.657302856445312,-10.5344877243042,-1.800439715385437,40.8935546875,153.900146484375,-453.2318115234375
11.3699999,-16.203956604003906,-8.959102630615234,-2.583343744277954,47.943115234375,186.676025390625,-449.7528076171875
11.389999900000001,-17.118541717529297,-6.361393928527832,-2.942473888397217,81.1920166015625,220.52001953125,-415.4815673828125
11.4099999,-17.171215057373047,-3.1100680828094482,-2.5665841102600098,89.5843505859375,214.9505615234375,-385.55908203125
11.4299999,-16.27578353881836,0.363918662071228,-1.2737152576446533,55.572509765625,171.3104248046875,-333.4503173828125
11.4499999,-14.618995666503906,3.732560396194458,0.6919242739677429,31.31103515625,121.429443359375,-219.390869140625
11.469999900000001,-12.634202003479004,6.670246124267578,2.851494312286377,28.289794921875,61.4471435546875,-72.967529296875
11.4899999,-10.922348022460938,8.75080680847168,4.819528102874756,19.622802734375,-8.9263916015625,49.74365234375
11.5099999,-10.146626472473145,9.785101890563965,6.308721542358398,-2.0599365234375,-86.8682861328125,152.4505615234375
11.5299999,-10.613495826721191,9.478644371032715,6.904877662658691,-25.115966796875,-162.0330810546875,262.908935546875
11.549999900000001,-12.174515724182129,8.29590892791748,6.610390663146973,-41.9464111328125,-209.1064453125,345.8709716796875
11.569999900000001,-14.441824913024902,6.809109687805176,5.3797712326049805,-64.8193359375,-232.8948974609375,379.0283203125
11.5899999,-16.785747528076172,4.764461517333984,3.442862033843994,-89.0960693359375,-253.8909912109375,423.431396484375
11.6099999,-18.547880172729492,2.5115175247192383,1.2449848651885986,-106.2164306640625,-248.321533203125,446.075439453125
11.629999900000001,-19.182344436645508,-0.35913026332855225,-1.2832920551300049,-117.1875,-219.9554443359375,409.85107421875
11.649999900000001,-18.377891540527344,-4.63517427444458,-4.0078935623168945,-111.02294921875,-169.0826416015625,335.601806640625
11.6699999,-16.361974716186523,-9.308655738830566,-6.229712963104248,-66.741943359375,-56.488037109375,175.750732421875
11.6899999,-13.833697319030762,-13.03403377532959,-7.448361396789551,-29.815673828125,38.2080078125,3.1280517578125
11.709999900000001,-11.566388130187988,-14.803349494934082,-7.2137298583984375,-13.2904052734375,65.1092529296875,-62.225341796875
11.729999900000001,-10.153809547424316,-14.587870597839355,-5.738901615142822,4.9591064453125,61.7523193359375,-53.314208984375
11.7499999,-9.651026725769043,-13.776236534118652,-4.206612586975098,21.0418701171875,65.5059814453125,-89.4012451171875
11.7699999,-10.127472877502441,-14.113819122314453,-3.864241600036621,44.7845458984375,96.1151123046875,-191.4215087890625
11.7899999,-11.532869338989258,-15.258247375488281,-4.627991676330566,76.385498046875,188.6444091796875,-360.7330322265625
11.809999900000001,-13.711592674255371,-16.062698364257812,-6.0597243309021,96.405029296875,276.7181396484375,-485.7635498046875
11.8299999,-16.328454971313477,-15.093047142028809,-6.943184852600098,110.015869140625,308.4716796875,-500
11.8499999,-18.63646697998047,-11.662156105041504,-6.289567947387695,115.9820556640625,307.5714111328125,-474.853515625
11.8699999,-19.766529083251953,-6.265625953674316,-4.2544965744018555,94.1162109375,265.44189453125,-418.2891845703125
11.889999900000001,-19.306842803955078,-0.4596867263317108,-1.235408067703247,78.521728515625,196.77734375,-287.200927734375
11.9099999,-17.393875122070312,4.656722068786621,1.8962076902389526,79.28466796875,123.1689453125,-139.9078369140625
11.9299999,-14.67406177520752,8.027758598327637,4.355052947998047,53.3599853515625,49.1485595703125,-30.2886962890625
11.9499999,-10.620678901672363,9.655815124511719,6.864176273345947,12.8936767578125,-60.455322265625,147.8118896484375
11.969999900000001,-10.666168212890625,9.469067573547363,7.2568254470825195,-17.730712890625,-133.514404296875,251.5869140625
11.9899999,-12.385205268859863,9.248801231384277,7.129932880401611,-59.2193603515625,-214.8590087890625,370.0408935546875
12.0099999,-15.49766731262207,9.045293807983398,6.3949127197265625,-93.536376953125,-283.4930419921875,482.2845458984375
12.0299999,-19.24698829650879,7.9176249504089355,4.90571928024292,-109.31396484375,-312.07275390625,499.9847412109375
12.049999900000001,-22.380996704101562,4.953603267669678,2.3247697353363037,-135.9405517578125,-324.188232421875,499.9847412109375
12.069999900000001,-23.594858169555664,0.19632454216480255,-1.2042834758758545,-145.4315185546875,-287.1551513671875,472.2442626953125
12.0899999,-22.258893966674805,-6.270414352416992,-5.4444146156311035,-128.631591796875,-183.89892578125,317.7490234375
12.1099999,-18.88546371459961,-12.713211059570312,-9.08838939666748,-56.304931640625,-28.564453125,143.829345703125
12.129999900000001,-14.856021881103516,-16.34760856628418,-10.587160110473633,4.8675537109375,98.69384765625,-44.281005859375
12.149999900000001,-11.561599731445312,-16.862361907958984,-9.495404243469238,12.63427734375,92.6361083984375,-86.4105224609375
12.1699999,-9.792284965515137,-14.563928604125977,-6.251260757446289,9.09423828125,31.524658203125,-26.7181396484375
12.1899999,-9.39245319366455,-11.714828491210938,-2.6384103298187256,28.4881591796875,18.0206298828125,-38.2232666015625
12.209999900000001,-9.919178009033203,-10.819397926330566,-0.6512228846549988,39.031982421875,33.63037109375,-138.12255859375
12.229999900000001,-11.12106704711914,-11.640608787536621,-0.6105214357376099,43.51806640625,95.428466796875,-308.1512451171875
12.2499999,-12.770671844482422,-12.933477401733398,-1.9512743949890137,55.908203125,179.5196533203125,-434.356689453125
12.2699999,-14.67406177520752,-12.883199691772461,-3.5482068061828613,69.7021484375,233.94775390625,-464.080810546875
12.289999900000002,-16.452953338623047,-10.769119262695312,-4.242525577545166,74.676513671875,252.4871826171875,-445.2972412109375
12.309999900000001,-17.6332950592041,-6.878541469573975,-3.4380736351013184,75.958251953125,243.9117431640625,-408.0352783203125
12.3299999,-17.839197158813477,-1.9967641830444336,-1.1204863786697388,73.5321044921875,198.2574462890625,-334.0911865234375
12.3499999,-16.88630485534668,3.2297780513763428,2.1356279850006104,64.178466796875,109.893798828125,-205.6121826171875
12.3699999,-15.081076622009277,7.412448406219482,4.994304656982422,50.59814453125,-8.8958740234375,-22.369384765625
12.389999900000001,-12.969390869140625,9.718064308166504,6.957550048828125,44.464111328125,-71.5789794921875,111.175537109375
12.4099999,-11.27190113067627,9.742006301879883,7.422025203704834,37.872314453125,-90.118408203125,162.4603271484375
12.4299999,-10.56800651550293,8.279149055480957,6.89530086517334,21.7437744140625,-120.60546875,190.2008056640625
12.4499999,-11.037269592285156,6.71334171295166,6.0621185302734375,-5.1116943359375,-159.36279296875,249.5880126953125
12.469999900000001,-12.536040306091309,6.011840343475342,5.260061264038086,-32.5927734375,-193.572998046875,336.5020751953125
12.4899999,-14.870387077331543,6.497863292694092,4.960785865783691,-49.957275390625,-214.29443359375,416.8853759765625
12.5099999,-17.55668067932129,6.811503887176514,4.534617900848389,-84.4268798828125,-255.92041015625,499.725341796875
12.5299999,-19.771318435668945,5.509057998657227,3.469198226928711,-119.9798583984375,-297.5921630859375,499.9847412109375
12.549999900000001,-20.446481704711914,0.912190854549408,0.586579442024231,-147.4761962890625,-270.1416015625,470.3216552734375
12.569999900000001,-19.24938201904297,-6.473921298980713,-3.797203779220581,-115.142822265625,-125.213623046875,258.453369140625
12.5899999,-16.678009033203125,-12.801796913146973,-7.16584587097168,-23.590087890625,120.361328125,-51.6204833984375
12.6099999,-13.725957870483398,-16.503232955932617,-8.403648376464844,-10.6201171875,166.5496826171875,-121.9024658203125
12.629999900000001,-11.535264015197754,-15.835249900817871,-6.538564682006836,-33.447265625,70.8160400390625,-30.0750732421875
12.649999900000001,-10.417171478271484,-13.069947242736816,-3.19865345954895,-22.52197265625,35.5224609375,-15.7470703125
12.6699999,-10.218452453613281,-11.499350547790527,-0.9193734526634216,-2.105712890625,72.8607177734375,-102.569580078125
12.6899999,-10.951078414916992,-12.30859088897705,-0.7038952708244324,14.95361328125,146.1639404296875,-259.0484619140625
12.709999900000001,-12.610260009765625,-14.144943237304688,-1.9560627937316895,28.533935546875,226.6845703125,-427.06298828125
12.729999900000001,-14.954183578491211,-15.184026718139648,-3.5242648124694824,27.435302734375,280.4107666015625,-500
12.7499999,-17.420211791992188,-14.09466552734375,-4.20421838760376,44.6624755859375,304.9468994140625,-500
12.7699999,-19.19192123413086,-10.60391902923584,-3.6343982219696045,52.6123046875,293.304443359375,-463.7603759765625
12.789999900000002,-19.551050186157227,-5.6191911697387695,-1.886630892753601,34.8968505859375,257.3089599609375,-406.9061279296875
12.809999900000001,-18.368314743041992,-0.3016694188117981,0.5291185975074768,33.0352783203125,206.97021484375,-294.403076171875
12.8299999,-15.959748268127441,4.383783340454102,3.004723072052002,31.5399169921875,139.617919921875,-153.7628173828125
12.8499999,-13.105859756469727,7.663839817047119,5.109226226806641,24.3072509765625,68.3441162109375,-25.5126953125
12.8699999,-10.735600471496582,9.473855972290039,6.722918510437012,16.693115234375,3.23486328125,75.7293701171875
12.889999900000001,-9.648633003234863,10.158597946166992,7.766790390014648,9.033203125,-71.7620849609375,186.1724853515625
12.9099999,-10.381258964538574,10.350133895874023,8.434772491455078,-1.9989013671875,-152.9083251953125,314.056396484375
12.9299999,-12.899958610534668,9.955090522766113,8.480262756347656,-21.1334228515625,-235.3668212890625,452.0263671875
12.9499999,-16.620548248291016,9.078812599182129,7.680599212646484,-52.215576171875,-299.591064453125,499.9847412109375
12.969999900000001,-20.561403274536133,6.936002254486084,5.808333396911621,-79.498291015625,-321.2432861328125,499.9847412109375
12.9899999,-23.33867835998535,3.1220390796661377,2.8203697204589844,-91.1102294921875,-300.0946044921875,499.9847412109375
13.0099999,-23.9420166015625,-2.188300371170044,-0.9959878921508789,-91.5679931640625,-238.28125,449.0203857421875
13.0299999,-22.086511611938477,-8.645462036132812,-5.082890033721924,-75.1190185546875,-131.8817138671875,268.035888671875
13.049999900000001,-18.629283905029297,-13.900734901428223,-8.061277389526367,-48.919677734375,1.190185546875,59.3414306640625
13.069999900000001,-14.834473609924316,-16.53914451599121,-8.987833023071289,-13.97705078125,91.6290283203125,-58.197021484375
13.0899999,-11.923124313354492,-16.060304641723633,-7.663839817047119,-2.7923583984375,78.8116455078125,-51.544189453125
13.1099999,-10.414777755737305,-13.414711952209473,-4.81473970413208,-6.3934326171875,42.17529296875,-46.8902587890625
13.129999900000001,-10.08437728881836,-11.465831756591797,-2.3582887649536133,-0.4730224609375,41.1529541015625,-86.212158203125
13.149999900000001,-10.704475402832031,-11.396400451660156,-1.601720929145813,18.9361572265625,91.8731689453125,-199.9053955078125
13.1699999,-12.102689743041992,-12.770671844482422,-2.3989901542663574,51.116943359375,184.234619140625,-368.0419921875
13.1899999,-14.089877128601074,-13.960590362548828,-4.084507942199707,66.2384033203125,250.2288818359375,-476.1199951171875
13.209999900000001,-16.259023666381836,-13.555970191955566,-5.2265424728393555,78.9337158203125,282.012939453125,-482.9559326171875
13.229999900000001,-18.04988670349121,-11.12106704711914,-5.410895824432373,98.9227294921875,284.7442626953125,-447.113037109375
13.2499999,-18.9022216796875,-7.1251444816589355,-4.553771495819092,98.358154296875,271.66748046875,-423.0804443359375
13.2699999,-18.58139991760254,-2.492363929748535,-2.6168625354766846,86.2579345703125,259.8419189453125,-364.471435546875
13.289999900000002,-17.13530158996582,2.2194249629974365,0.11013327538967133,72.3724365234375,208.0078125,-246.337890625
13.309999900000001,-14.966155052185059,6.428431510925293,3.1244332790374756,51.81884765625,99.822998046875,-94.1925048828125
13.3299999,-12.660538673400879,9.648633003234863,5.947196960449219,25.2227783203125,1.40380859375,43.243408203125
13.3499999,-11.073183059692383,11.602301597595215,8.26478385925293,16.3116455078125,-61.614990234375,173.4161376953125
13.3699999,-10.917559623718262,12.552799224853516,9.818621635437012,0.0762939453125,-140.2130126953125,302.978515625
13.389999900000001,-12.660538673400879,12.904747009277344,10.33098030090332,-42.1600341796875,-258.331298828125,431.1676025390625
13.4099999,-15.976508140563965,12.351686477661133,9.557653427124023,-64.727783203125,-338.6688232421875,499.9847412109375
13.4299999,-20.037073135375977,10.488997459411621,7.33583402633667,-67.7337646484375,-341.36962890625,499.9847412109375
13.4499999,-23.640348434448242,6.847416877746582,3.9025487899780273,-55.419921875,-304.3365478515625,499.9847412109375
13.469999900000001,-24.705766677856445,-5.1595048904418945,-3.8379054069519043,-68.084716796875,-183.4259033203125,377.227783203125
13.4899999,-21.74653434753418,-10.424354553222656,-6.627150535583496,-65.948486328125,-60.3485107421875,167.7398681640625
13.5099999,-17.599777221679688,-13.251906394958496,-7.709329605102539,-48.3245849609375,42.9229736328125,34.97314453125
13.5299999,-13.694833755493164,-13.716381072998047,-7.206547260284424,-35.2020263671875,68.8629150390625,14.8162841796875
13.549999900000001,-11.111490249633789,-12.253523826599121,-5.276820659637451,-25.87890625,73.4710693359375,-31.1126708984375
13.569999900000001,-10.177751541137695,-11.202469825744629,-3.44765043258667,-16.357421875,93.3685302734375,-112.762451171875
13.5899999,-10.735600471496582,-11.681309700012207,-2.497152328491211,-11.627197265625,138.4735107421875,-209.7625732421875
13.6099999,-12.497733116149902,-13.055582046508789,-2.6862943172454834,-8.2855224609375,211.8682861328125,-363.8153076171875
13.629999900000001,-15.097835540771484,-14.528016090393066,-3.6583402156829834,0.3814697265625,271.1944580078125,-488.8916015625
13.649999900000001,-18.05467414855957,-15.040374755859375,-4.381389141082764,38.6962890625,315.338134765625,-500
13.6699999,-20.70745086669922,-13.342885971069336,-4.616020679473877,54.351806640625,322.418212890625,-500
13.6899999,-22.30438232421875,-9.375694274902344,-3.88818359375,14.7247314453125,311.1114501953125,-500
13.709999900000001,-22.211009979248047,-3.5721490383148193,-2.008735179901123,14.404296875,302.734375,-433.929443359375
13.729999900000001,-20.42254066467285,2.8778305053710938,0.7829039692878723,55.1605224609375,224.1973876953125,-229.766845703125
13.7499999,-17.470489501953125,8.38688850402832,3.97916316986084,64.3157958984375,86.8682861328125,-33.935546875
13.7699999,-14.300566673278809,11.626243591308594,6.773196697235107,55.4962158203125,-27.3590087890625,98.9532470703125
13.789999900000002,-12.069170951843262,12.492944717407227,8.671798706054688,59.844970703125,-94.207763671875,198.9898681640625
13.809999900000001,-11.5065336227417,11.647790908813477,9.41639518737793,55.35888671875,-157.2113037109375,302.642822265625
13.8299999,-12.75870132446289,9.854534149169922,9.20091724395752,32.684326171875,-233.856201171875,408.3709716796875
13.8499999,-15.452178001403809,8.214506149291992,8.69334602355957,7.9498291015625,-277.6336669921875,470.27587890625
13.8699999,-18.808849334716797,6.62236213684082,7.2137298583984375,-46.5240478515625,-323.577880859375,499.9847412109375
13.889999900000001,-21.672313690185547,4.527435302734375,5.171475887298584,-72.723388671875,-338.19580078125,499.9847412109375
13.9099999,-23.058557510375977,1.7381904125213623,2.1715409755706787,-85.357666015625,-295.83740234375,499.9847412109375
13.9299999,-22.498313903808594,-2.516305923461914,-1.5658079385757446,-87.158203125,-228.5003662109375,433.2733154296875
13.9499999,-20.192697525024414,-7.975085735321045,-5.279214859008789,-35.7818603515625,-111.9537353515625,298.858642578125
13.969999900000001,-17.108964920043945,-12.253523826599121,-7.587224960327148,7.2174072265625,17.9901123046875,99.42626953125
13.9899999,-14.221558570861816,-14.405911445617676,-7.970297336578369,-1.7547607421875,72.723388671875,-28.289794921875
14.0099999,-12.20803451538086,-13.941436767578125,-6.392518520355225,-20.01953125,48.6907958984375,-30.7159423828125
14.0299999,-11.113883972167969,-11.961431503295898,-3.9671921730041504,-0.244140625,45.59326171875,-46.1273193359375
14.049999900000001,-10.924742698669434,-10.733205795288086,-2.492363929748535,23.8189697265625,76.1566162109375,-128.997802734375
14.069999900000001,-11.659762382507324,-11.164162635803223,-2.3367409706115723,41.229248046875,158.538818359375,-280.029296875
14.0899999,-13.431471824645996,-12.382811546325684,-3.550601005554199,45.501708984375,241.424560546875,-449.7528076171875
14.1099999,-16.081851959228516,-13.057975769042969,-4.9368438720703125,58.746337890625,302.30712890625,-500
14.129999900000001,-19.07699966430664,-11.78904914855957,-5.521028995513916,73.2421875,342.437744140625,-500
14.149999900000001,-21.45444107055664,-8.032546997070312,-4.7836151123046875,55.7708740234375,340.5303955078125,-500
14.1699999,-22.318748474121094,-2.741360902786255,-2.580949544906616,52.825927734375,299.1790771484375,-439.14794921875
14.1899999,-21.392192840576172,2.983175277709961,0.45250412821769714,61.34033203125,217.83447265625,-280.303955078125
14.209999900000001,-18.947711944580078,8.1139497756958,3.751713991165161,53.6346435546875,126.6632080078125,-139.83154296875
14.229999900000001,-15.969325065612793,11.4849853515625,6.627150535583496,49.5147705078125,37.3687744140625,1.1138916015625
14.2499999,-13.560758590698242,13.153743743896484,8.829815864562988,53.131103515625,-56.304931640625,139.4195556640625
14.2699999,-12.588712692260742,13.376404762268066,10.101137161254883,37.78076171875,-152.1453857421875,257.3089599609375
14.289999900000002,-13.39316463470459,12.662932395935059,10.362105369567871,14.862060546875,-234.5428466796875,371.1090087890625
14.309999900000001,-15.818490982055664,11.628637313842773,9.696516990661621,-10.4217529296875,-286.5753173828125,467.46826171875
14.3299999,-19.3044490814209,10.287884712219238,8.056488990783691,-43.9605712890625,-325.1953125,499.9847412109375
14.3499999,-22.634782791137695,7.5632829666137695,5.415684223175049,-65.6280517578125,-355.438232421875,499.9847412109375
14.3699999,-24.463953018188477,3.4596214294433594,1.8171991109848022,-87.4786376953125,-320.1904296875,499.9847412109375
14.389999900000001,-23.784000396728516,-2.499546527862549,-2.827552318572998,-99.212646484375,-222.4578857421875,397.3541259765625
14.4099999,-20.78406524658203,-9.402029991149902,-7.6782050132751465,-68.8323974609375,-70.9075927734375,216.0491943359375
14.4299999,-16.658855438232422,-14.597447395324707,-10.639832496643066,3.875732421875,117.340087890625,8.3770751953125
14.4499999,-13.043610572814941,-17.01319694519043,-11.08994197845459,21.1029052734375,176.7425537109375,-122.6806640625
14.469999900000001,-10.967838287353516,-16.5247802734375,-8.820239067077637,7.2174072265625,128.7689208984375,-128.96728515625
14.4899999,-10.591948509216309,-14.81771469116211,-5.57370138168335,13.1683349609375,108.3221435546875,-142.1661376953125
14.5099999,-11.571176528930664,-13.342885971069336,-2.9233202934265137,18.6614990234375,162.9791259765625,-270.3857421875
14.5299999,-13.498509407043457,-12.899958610534668,-1.8579005002975464,27.191162109375,226.5777587890625,-423.3856201171875
14.549999900000001,-15.952566146850586,-12.627019882202148,-1.8124107122421265,31.1279296875,263.9923095703125,-500
14.569999900000001,-18.452112197875977,-11.216835021972656,-2.051830768585205,38.818359375,283.5845947265625,-500
14.5899999,-20.324378967285156,-8.04930591583252,-1.9129672050476074,43.182373046875,287.7655029296875,-500
14.6099999,-20.84391975402832,-3.3925838470458984,-0.751779317855835,42.05322265625,274.59716796875,-431.2286376953125
14.629999900000001,-19.740192413330078,1.6903064250946045,1.2042834758758545,47.5006103515625,194.1986083984375,-277.984619140625
14.649999900000001,-17.269376754760742,6.253654956817627,3.555389642715454,41.046142578125,77.7435302734375,-121.0784912109375
14.6699999,-14.109030723571777,9.153033256530762,5.47075080871582,31.494140625,1.89208984375,-2.899169921875
14.6899999,-11.334151268005371,10.180145263671875,6.445190906524658,17.730712890625,-47.2412109375,94.940185546875
14.709999900000001,-9.847352027893066,10.031704902648926,6.780379295349121,17.608642578125,-85.5865478515625,179.74853515625
14.729999900000001,-10.268731117248535,10.014945983886719,6.871358871459961,0.091552734375,-154.296875,276.641845703125
14.7499999,-12.737153053283691,9.880870819091797,6.967126846313477,-26.8096923828125,-244.0948486328125,432.4951171875
14.7699999,-16.857574462890625,10.163386344909668,6.900089263916016,-55.6793212890625,-316.58935546875,499.9847412109375
14.789999900000002,-21.787235260009766,9.32302188873291,5.999869346618652,-87.9364013671875,-364.4256591796875,499.9847412109375
14.809999900000001,-26.13031768798828,6.495469093322754,4.1156325340271,-102.7984619140625,-379.1656494140625,499.9847412109375
14.8299999,-28.13187026977539,0.26575639843940735,0.30885201692581177,-115.3717041015625,-365.509033203125,499.9847412109375
14.8499999,-26.827030181884766,-8.65743350982666,-5.188235282897949,-134.918212890625,-259.4146728515625,364.4561767578125
14.8699999,-22.924480438232422,-16.22071647644043,-10.158597946166992,-53.3294677734375,15.3350830078125,-40.52734375
14.889999900000001,-17.729063034057617,-20.23579216003418,-12.536040306091309,43.7469482421875,218.2159423828125,-218.231201171875
14.9099999,-13.189657211303711,-18.545486450195312,-10.975020408630371,37.1551513671875,165.4815673828125,-124.114990234375
14.9299999,-10.32858657836914,-13.747506141662598,-6.847416877746582,-0.18310546875,37.90283203125,-32.1044921875
14.9499999,-9.222464561462402,-9.888052940368652,-3.0406360626220703,0.1678466796875,44.7845458984375,-90.3778076171875
14.969999900000001,-9.86889934539795,-9.059659004211426,-1.8076223134994507,31.3720703125,171.1883544921875,-273.9715576171875
14.9899999,-15.416264533996582,-11.73398208618164,-4.546588897705078,82.763671875,342.7581787109375,-500
15.0099999,-19.031509399414062,-11.135432243347168,-5.051765441894531,97.0001220703125,344.970703125,-500
15.0299999,-21.75371742248535,-7.970297336578369,-4.350264549255371,73.1353759765625,305.1910400390625,-495.60546875
15.049999900000001,-22.634782791137695,-3.1890766620635986,-2.2912509441375732,68.7408447265625,276.67236328125,-409.9884033203125
15.069999900000001,-21.540632247924805,2.03507137298584,0.4405331015586853,85.0372314453125,222.3358154296875,-268.218994140625
15.0899999,-18.978836059570312,6.485892295837402,3.268085241317749,62.3321533203125,113.7542724609375,-130.2642822265625
15.1099999,-15.808914184570312,9.133879661560059,5.664681434631348,39.0777587890625,16.326904296875,-16.0675048828125
15.129999900000001,-12.988544464111328,9.988609313964844,7.161057472229004,20.8740234375,-43.487548828125,68.328857421875
15.149999900000001,-11.24795913696289,9.864110946655273,7.790732383728027,8.3160400390625,-88.623046875,145.5230712890625
15.1699999,-11.065999984741211,9.543288230895996,7.826645374298096,-8.7738037109375,-153.7628173828125,248.4283447265625
15.1899999,-12.550405502319336,9.569623947143555,7.548917770385742,-37.872314453125,-231.414794921875,371.5057373046875
15.209999900000001,-15.416264533996582,9.533711433410645,6.653486728668213,-78.399658203125,-301.971435546875,480.6671142578125
15.229999900000001,-18.907011032104492,8.719682693481445,4.963180065155029,-102.8289794921875,-329.16259765625,499.9847412109375
15.2499999,-21.866243362426758,6.004657745361328,2.073378562927246,-119.781494140625,-322.7691650390625,499.9847412109375
15.2699999,-23.075315475463867,0.9576807022094727,-1.8842366933822632,-117.767333984375,-270.172119140625,491.3330078125
15.289999900000002,-21.962011337280273,-6.160281181335449,-6.299144744873047,-91.1712646484375,-153.2135009765625,315.338134765625
15.309999900000001,-18.983625411987305,-13.223176002502441,-9.931148529052734,-45.623779296875,9.27734375,68.9544677734375
15.3299999,-15.354015350341797,-17.820043563842773,-11.508927345275879,-10.711669921875,129.4403076171875,-128.84521484375
15.3499999,-12.392388343811035,-18.629283905029297,-10.345345497131348,8.3770751953125,151.214599609375,-169.37255859375
15.3699999,-10.809821128845215,-16.519990921020508,-7.232883453369141,11.2152099609375,116.02783203125,-139.1754150390625
15.389999900000001,-10.654197692871094,-13.558363914489746,-3.861847400665283,8.1634521484375,90.4541015625,-172.30224609375
15.4099999,-11.477803230285645,-11.678915977478027,-1.9033904075622559,4.180908203125,131.1492919921875,-293.548583984375
15.4299999,-13.053187370300293,-11.525687217712402,-2.0398597717285156,14.2822265625,199.9664306640625,-393.096923828125
15.4499999,-15.13614273071289,-11.556811332702637,-3.2345664501190186,48.8739013671875,279.8614501953125,-470.8251953125
15.469999900000001,-17.269376754760742,-10.711658477783203,-4.2975921630859375,71.7010498046875,314.4683837890625,-500
15.4899999,-18.84476089477539,-7.977479934692383,-4.134786128997803,59.6466064453125,288.7725830078125,-464.5843505859375
15.5099999,-19.242198944091797,-3.222595453262329,-1.9129672050476074,61.8133544921875,246.76513671875,-359.4207763671875
15.5299999,-18.241422653198242,3.4380736351013184,2.1045033931732178,64.7125244140625,165.10009765625,-201.7669677734375
15.549999900000001,-16.440982818603516,9.44752025604248,6.445190906524658,47.1343994140625,-33.966064453125,69.3359375
15.569999900000001,-14.844050407409668,14.360422134399414,10.345345497131348,23.681640625,-194.03076171875,285.5987548828125
15.5899999,-14.410699844360352,15.940594673156738,12.12902545928955,0.4425048828125,-264.801025390625,403.5491943359375
15.6099999,-15.207969665527344,13.637372970581055,11.061211585998535,-27.1148681640625,-334.197998046875,499.9847412109375
15.629999900000001,-16.51280975341797,8.736441612243652,7.718906402587891,-56.7169189453125,-317.3828125,470.5810546875
15.649999900000001,-17.389087677001953,2.983175277709961,3.4141316413879395,-65.185546875,-230.8349609375,359.4818115234375
15.6699999,-17.288530349731445,-1.6974890232086182,-0.6655880808830261,-68.2830810546875,-171.295166015625,301.1932373046875
15.6899999,-16.15607261657715,-5.092466831207275,-3.2848446369171143,-60.577392578125,-150.1007080078125,318.66455078125
15.709999900000001,-14.377181053161621,-6.57926607131958,-4.41969633102417,-53.863525390625,-117.034912109375,246.9024658203125
15.729999900000001,-12.447454452514648,-7.450755596160889,-4.9368438720703125,-68.8629150390625,-80.13916015625,135.589599609375
15.7499999,-10.714052200317383,-8.341399192810059,-4.865017890930176,-44.3115234375,0.457763671875,76.7822265625
15.7699999,-9.555258750915527,-9.016563415527344,-4.747702121734619,-18.3258056640625,61.767578125,3.4332275390625
15.789999900000002,-9.232041358947754,-9.464279174804688,-4.137180328369141,-6.04248046875,90.240478515625,-101.7913818359375
15.809999900000001,-9.670180320739746,-10.146626472473145,-3.488351821899414,-2.6702880859375,109.5733642578125,-176.666259765625
15.8299999,-10.805032730102539,-11.583148002624512,-3.450044631958008,-3.7841796875,134.5672607421875,-222.7020263671875
15.8499999,-12.732364654541016,-13.012486457824707,-3.9264907836914062,22.3846435546875,218.8262939453125,-353.515625
15.869999900000002,-15.15769100189209,-14.109030723571777,-4.709394931793213,43.02978515625,305.023193359375,-500
15.889999900000001,-17.764976501464844,-14.346056938171387,-5.130774021148682,63.2476806640625,316.10107421875,-500
15.9099999,-19.81680679321289,-12.212822914123535,-4.565742492675781,78.857421875,305.8013916015625,-500
15.9299999,-20.491971969604492,-8.111555099487305,-2.956839084625244,54.1839599609375,290.10009765625,-475.555419921875
15.9499999,-19.347543716430664,-2.5234885215759277,-0.2801215946674347,34.1033935546875,250.48828125,-357.5592041015625
15.969999900000001,-16.711528778076172,3.423708438873291,2.8203697204589844,35.3851318359375,141.17431640625,-164.00146484375
15.9899999,-13.493721008300781,8.501810073852539,6.021417140960693,24.505615234375,19.927978515625,21.9573974609375
16.0099999,-10.869675636291504,11.425130844116211,8.643068313598633,21.6217041015625,-66.4215087890625,168.2891845703125
16.0299999,-9.892841339111328,11.911153793334961,10.000580787658691,3.387451171875,-166.961669921875,281.951904296875
16.0499999,-10.917559623718262,10.678139686584473,10.199298858642578,-23.193359375,-248.7335205078125,363.494873046875
16.0699999,-13.596671104431152,8.597578048706055,8.87051773071289,-50.933837890625,-315.277099609375,444.061279296875
16.089999900000002,-17.118541717529297,6.069301128387451,6.418854713439941,-70.7550048828125,-335.7696533203125,499.9847412109375
16.109999900000002,-20.310012817382812,2.738966703414917,3.2393548488616943,-76.4007568359375,-319.9920654296875,499.9847412109375
16.1299999,-22.06496238708496,-1.4628572463989258,-0.5506663918495178,-94.5892333984375,-298.3245849609375,480.682373046875
16.1499999,-21.724987030029297,-6.756437301635742,-4.364629745483398,-90.5609130859375,-234.466552734375,346.6033935546875
16.1699999,-19.364303588867188,-11.956643104553223,-7.766790390014648,-47.393798828125,-99.609375,190.0634765625
16.1899999,-15.978901863098145,-15.600618362426758,-9.873687744140625,-10.528564453125,26.30615234375,37.17041015625
16.2099999,-12.72757625579834,-16.96770668029785,-9.986215591430664,19.4244384765625,92.6055908203125,-58.04443359375
16.2299999,-10.575188636779785,-16.03875732421875,-8.259995460510254,31.3568115234375,90.63720703125,-98.3123779296875
16.249999900000002,-9.768342971801758,-14.18803882598877,-5.813121795654297,38.8031005859375,87.158203125,-132.7362060546875
16.269999900000002,-10.11789608001709,-12.732364654541016,-4.048594951629639,50.7659912109375,121.368408203125,-201.23291015625
16.2899999,-11.362881660461426,-12.327744483947754,-3.77565598487854,64.7735595703125,191.131591796875,-315.948486328125
16.3099999,-13.316550254821777,-12.567164421081543,-4.632780075073242,87.7838134765625,268.402099609375,-420.623779296875
16.3299999,-15.665261268615723,-12.251130104064941,-5.477933406829834,104.9346923828125,324.737548828125,-478.69873046875
16.3499999,-17.949329376220703,-10.06043529510498,-5.377377033233643,104.67529296875,328.582763671875,-484.710693359375
16.3699999,-19.278112411499023,-5.3582234382629395,-3.3423056602478027,94.512939453125,296.1273193359375,-416.9158935546875
16.3899999,-19.184738159179688,1.3120225667953491,0.5722141861915588,77.4688720703125,202.667236328125,-228.45458984375
16.4099999,-17.779342651367188,8.276755332946777,5.1595048904418945,64.7735595703125,25.7720947265625,24.261474609375
16.429999900000002,-15.806519508361816,12.945448875427246,8.860940933227539,48.4771728515625,-144.6075439453125,253.2958984375
16.4499999,-14.18803882598877,14.267047882080078,10.807426452636719,38.7420654296875,-192.657470703125,337.5396728515625
16.4699999,-13.623007774353027,12.401965141296387,10.407594680786133,11.4898681640625,-206.54296875,342.2393798828125
16.4899999,-14.247894287109375,9.339780807495117,8.69095230102539,-22.88818359375,-236.81640625,366.241455078125
16.5099999,-17.67399787902832,4.618414878845215,4.654327869415283,-74.005126953125,-289.6270751953125,499.0386962890625
16.5299999,-18.854337692260742,2.1930887699127197,2.2409727573394775,-88.8214111328125,-292.388916015625,482.0709228515625
16.5499999,-18.564640045166016,-1.723825216293335,-0.9217676520347595,-90.2099609375,-223.9532470703125,363.372802734375
16.5699999,-16.71392250061035,-6.955155849456787,-4.656722068786621,-62.07275390625,-93.9178466796875,209.9761962890625
16.589999900000002,-14.027627944946289,-11.350910186767578,-7.4316020011901855,-15.80810546875,60.211181640625,20.0347900390625
16.609999900000002,-11.544840812683105,-13.88158130645752,-8.425195693969727,1.7852783203125,122.7569580078125,-94.390869140625
16.6299999,-10.034099578857422,-13.802573204040527,-7.129932880401611,0.1983642578125,106.231689453125,-114.776611328125
16.6499999,-9.63187313079834,-12.270283699035645,-4.853046894073486,2.7618408203125,88.6077880859375,-124.267578125
16.6699999,-10.096348762512207,-10.96544361114502,-2.9927520751953125,16.998291015625,123.321533203125,-184.2041015625
16.6899999,-11.355698585510254,-10.862493515014648,-2.5689783096313477,34.8052978515625,195.465087890625,-300.9796142578125
16.7099999,-13.26866626739502,-11.24795913696289,-2.980781078338623,42.083740234375,273.37646484375,-432.373046875
16.7299999,-15.619771957397461,-11.195286750793457,-3.3710360527038574,54.26025390625,317.2454833984375,-487.1826171875
16.749999900000002,-17.832014083862305,-9.493009567260742,-2.964021682739258,56.09130859375,305.2215576171875,-474.853515625
16.769999900000002,-19.110517501831055,-6.13633918762207,-1.5634137392044067,39.8406982421875,267.8680419921875,-425.750732421875
16.7899999,-18.89982795715332,-1.8195933103561401,0.5937620401382446,43.304443359375,225.8148193359375,-327.5146484375
16.8099999,-17.243040084838867,2.6144683361053467,2.985569477081299,40.83251953125,152.8472900390625,-199.8748779296875
16.8299999,-14.841656684875488,6.768408298492432,5.626373767852783,27.9998779296875,64.178466796875,-70.4498291015625
16.8499999,-12.741941452026367,10.381258964538574,8.293514251708984,12.237548828125,-33.5540771484375,76.0498046875
16.8699999,-12.217611312866211,13.311761856079102,10.350133895874023,-20.538330078125,-188.812255859375,273.773193359375
16.8899999,-13.769054412841797,14.271836280822754,11.18092155456543,-42.022705078125,-319.4580078125,477.9205322265625
16.9099999,-16.859968185424805,12.598289489746094,10.156203269958496,-50.689697265625,-371.6888427734375,499.9847412109375
16.929999900000002,-20.05143928527832,7.716512203216553,6.845022678375244,-87.2039794921875,-367.7520751953125,499.9847412109375
16.9499999,-21.559785842895508,0.011971008032560349,1.5059528350830078,-106.048583984375,-320.3125,412.7655029296875
16.9699999,-20.590133666992188,-8.60236644744873,-4.8602294921875,-83.06884765625,-189.4989013671875,246.2310791015625
16.9899999,-17.657238006591797,-15.7107515335083,-10.314221382141113,-22.76611328125,14.6942138671875,28.900146484375
17.0099999,-14.192827224731445,-18.84476089477539,-12.878411293029785,19.9127197265625,156.9366455078125,-143.24951171875
17.0299999,-11.420342445373535,-17.003620147705078,-11.348516464233398,28.2440185546875,160.1104736328125,-153.3355712890625
17.0499999,-9.943120002746582,-11.707646369934082,-6.854599475860596,8.48388671875,53.9398193359375,-20.1263427734375
17.0699999,-9.485827445983887,-5.583278179168701,-1.460463047027588,-0.8392333984375,-24.505615234375,64.422607421875
17.089999900000002,-9.53849983215332,-1.3670891523361206,2.580949544906616,4.82177734375,-12.4053955078125,27.984619140625
17.109999900000002,-9.75397777557373,0.26336219906806946,4.49870491027832,8.5906982421875,8.7738037109375,-28.1219482421875
17.1299999,-9.892841339111328,0.12928688526153564,4.685452938079834,8.8958740234375,7.14111328125,-30.3497314453125
17.1499999,-9.892841339111328,-0.6057330369949341,3.9240965843200684,5.5694580078125,-3.2501220703125,-10.3759765625
17.1699999,-9.782708168029785,-1.6136919260025024,2.7724854946136475,11.23046875,2.9296875,-3.0975341796875
17.1899999,-9.593565940856934,-2.717418909072876,1.6184803247451782,22.003173828125,20.0042724609375,-24.90234375
17.2099999,-9.390059471130371,-3.7876269817352295,0.5626373887062073,24.505615234375,23.895263671875,-47.9278564453125
17.2299999,-9.229647636413574,-4.592078685760498,-0.1173158809542656,28.13720703125,29.510498046875,-53.985595703125
17.249999900000002,-9.150638580322266,-4.987122058868408,-0.4836287498474121,37.322998046875,42.9840087890625,-59.112548828125
17.269999900000002,-9.196128845214844,-5.0685248374938965,-0.43335050344467163,47.6226806640625,56.610107421875,-75.13427734375
17.2899999,-9.404424667358398,-4.553771495819092,0.3734954595565796,55.023193359375,59.661865234375,-93.719482421875
17.3099999,-9.679757118225098,-3.622427225112915,1.5849615335464478,49.560546875,25.69580078125,-80.0628662109375
17.3299999,-9.864110946655273,-2.449268341064453,2.889801502227783,37.3687744140625,-15.5181884765625,-35.4156494140625
17.3499999,-9.849745750427246,-1.5825673341751099,3.7612907886505127,27.4200439453125,-19.6533203125,-15.9149169921875
17.3699999,-9.708487510681152,-1.3910311460494995,3.9695863723754883,17.9901123046875,-4.2724609375,-36.529541015625
17.3899999,-9.696516990661621,-1.4748282432556152,4.216189384460449,15.2740478515625,3.448486328125,-67.56591796875
17.409999900000003,-9.928754806518555,-1.2521674633026123,4.704606533050537,23.2696533203125,-32.989501953125,-59.1583251953125
17.429999900000002,-10.381258964538574,-0.27054479718208313,4.9152960777282715,-7.4462890625,-110.41259765625,-10.1470947265625
17.4499999,-10.8505220413208,0.6967126727104187,5.099649429321289,-11.65771484375,-105.3466796875,50.4913330078125
17.4699999,-11.17852783203125,1.4676456451416016,4.6471452713012695,-3.8604736328125,-76.1566162109375,50.1251220703125
17.4899999,-11.36048698425293,1.6543933153152466,4.189853191375732,-14.8162841796875,-83.7249755859375,22.9339599609375
17.5099999,-11.405977249145508,1.7836803197860718,3.8714241981506348,-17.547607421875,-113.4033203125,35.736083984375
17.5299999,-11.338939666748047,2.0638017654418945,3.397372245788574,-35.7666015625,-133.056640625,77.8350830078125
17.5499999,-11.109095573425293,2.075772762298584,2.873042106628418,-28.0609130859375,-92.8497314453125,113.4796142578125
17.5699999,-10.742782592773438,1.843535304069519,2.126051187515259,-27.069091796875,-62.6220703125,86.9598388671875
17.589999900000002,-10.326191902160645,1.3239935636520386,1.6927006244659424,-36.8194580078125,-58.1817626953125,55.419921875
17.609999900000002,-9.93593692779541,0.9672574996948242,1.4867992401123047,-41.1834716796875,-62.5762939453125,71.35009765625
17.6299999,-9.600749015808105,0.7924807667732239,1.4844050407409668,-36.529541015625,-45.7916259765625,102.783203125
17.6499999,-9.29189682006836,0.6416460275650024,1.2497732639312744,-36.102294921875,-22.3846435546875,96.3134765625
17.6699999,-9.023746490478516,0.29209262132644653,1.0845733880996704,-39.7796630859375,0.640869140625,68.1915283203125
17.6899999,-8.860940933227539,-0.10055647045373917,1.0031704902648926,-42.4346923828125,14.7552490234375,58.746337890625
17.7099999,-8.822632789611816,-0.31364041566848755,1.194706678390503,-40.2069091796875,17.974853515625,73.9593505859375
17.7299999,-8.889671325683594,-0.2825157940387726,1.357512354850769,-41.5802001953125,16.1590576171875,80.56640625
17.749999900000002,-8.992621421813965,-0.5602431893348694,1.4269442558288574,-36.19384765625,24.322509765625,82.183837890625
17.769999900000002,-9.090784072875977,-1.2401964664459229,1.2210428714752197,-22.796630859375,39.520263671875,68.17626953125
17.7899999,-9.153033256530762,-2.1308395862579346,0.8762778043746948,-14.678955078125,45.5322265625,40.8172607421875
17.8099999,-9.246406555175781,-2.719813108444214,0.5363011956214905,-6.5765380859375,44.86083984375,24.5513916015625
17.8299999,-9.397241592407227,-3.1100680828094482,0.30885201692581177,7.38525390625,44.2657470703125,40.740966796875
17.8499999,-9.533711433410645,-2.9951462745666504,0.011971008032560349,6.2103271484375,45.501708984375,34.027099609375
17.8699999,-9.674968719482422,-2.7078421115875244,-0.2106897532939911,15.13671875,58.28857421875,14.9993896484375
17.8899999,-9.813833236694336,-2.3032219409942627,-0.33518823981285095,32.5775146484375,68.145751953125,14.0838623046875
17.909999900000003,-9.971850395202637,-2.03507137298584,-0.07900865375995636,49.1485595703125,60.8673095703125,32.28759765625
17.929999900000002,-10.105925559997559,-1.821987509727478,0.40940847992897034,54.38232421875,36.92626953125,21.331787109375
17.9499999,-10.120290756225586,-1.4676456451416016,0.8786720037460327,45.2423095703125,19.34814453125,-8.392333984375
17.9699999,-10.031704902648926,-1.6184803247451782,1.0079588890075684,45.7916259765625,26.6571044921875,4.852294921875
17.9899999,-9.840168952941895,-1.8986018896102905,0.9696516990661621,76.2481689453125,51.513671875,7.6446533203125
18.0099999,-9.607931137084961,-2.140416383743286,0.608127236366272,79.9560546875,46.875,-41.5802001953125
18.0299999,-9.35654067993164,-2.609679937362671,-0.10534487664699554,89.9658203125,71.380615234375,-41.107177734375
18.0499999,-9.366117477416992,-2.6240451335906982,-0.2059013396501541,112.030029296875,96.61865234375,-45.7916259765625
18.0699999,-9.512163162231445,-2.765302896499634,-0.0933738648891449,113.037109375,85.3118896484375,-75.592041015625
18.089999900000002,-9.84256362915039,-3.1507694721221924,0.3758896589279175,114.0899658203125,81.4056396484375,-93.3685302734375
18.109999900000002,-10.285490036010742,-3.4620156288146973,1.094150185585022,128.7841796875,93.8720703125,-100.1434326171875
18.1299999,-10.773907661437988,-3.5386300086975098,1.8339585065841675,135.467529296875,83.6029052734375,-107.9559326171875
18.1499999,-11.207258224487305,-3.3470940589904785,2.652775526046753,131.7596435546875,61.58447265625,-107.8643798828125
18.1699999,-11.523292541503906,-3.028665065765381,3.509899616241455,131.561279296875,51.1322021484375,-93.4906005859375
18.1899999,-11.678915977478027,-2.5330653190612793,4.223371982574463,126.8463134765625,41.6107177734375,-88.07373046875
18.2099999,-11.719616889953613,-2.008735179901123,4.965574264526367,116.39404296875,26.1688232421875,-87.46337890625
18.2299999,-11.597513198852539,-1.2258312702178955,5.585672378540039,101.2420654296875,-4.7149658203125,-77.7587890625
18.249999900000002,-11.307814598083496,-0.3064578175544739,5.805939197540283,82.7484130859375,-36.895751953125,-41.839599609375
18.269999900000002,-10.92953109741211,0.24660277366638184,5.803544998168945,82.9010009765625,-33.2183837890625,4.1961669921875
18.2899999,-10.57040023803711,0.2944868206977844,5.506663799285889,79.620361328125,-28.5186767578125,-0.9918212890625
18.3099999,-10.326191902160645,0.014365210197865963,5.327098846435547,52.91748046875,-46.2799072265625,-39.12353515625
18.3299999,-10.177751541137695,0.2346317619085312,5.044582843780518,3.0059814453125,-74.0203857421875,-50.4150390625
18.3499999,-10.089165687561035,0.4141969084739685,4.685452938079834,-14.8162841796875,-77.33154296875,19.34814453125
18.3699999,-10.02691650390625,0.31124621629714966,3.9671921730041504,-13.153076171875,-56.2591552734375,45.013427734375
18.3899999,-10.0580415725708,-0.19632454216480255,3.287238836288452,-22.430419921875,-41.1376953125,-40.6494140625
18.409999900000003,-10.223240852355957,-0.5410895943641663,2.9448680877685547,-49.560546875,-48.5382080078125,-107.3150634765625
18.429999900000002,-10.51054573059082,0.33279404044151306,3.136404275894165,-73.822021484375,-77.8350830078125,-55.8013916015625
18.4499999,-10.828974723815918,1.9033904075622559,3.445256233215332,-69.1375732421875,-113.616943359375,64.2242431640625
18.4699999,-11.075576782226562,3.3710360527038574,3.35667085647583,-75.927734375,-130.767822265625,83.80126953125
18.4899999,-11.185709953308105,3.1866824626922607,2.63362193107605,-84.2132568359375,-116.3787841796875,37.29248046875
18.5099999,-11.094730377197266,2.5282769203186035,1.1659762859344482,-102.0965576171875,-87.738037109375,-17.120361328125
18.5299999,-10.953473091125488,2.0422539710998535,-0.08379705995321274,-113.555908203125,-57.92236328125,-2.2430419921875
18.5499999,-10.809821128845215,2.1116859912872314,-0.7206547260284424,-82.21435546875,-45.867919921875,80.413818359375
18.5699999,-10.735600471496582,2.7054479122161865,-0.7829039692878723,-80.26123046875,-81.787109375,103.0731201171875
18.589999900000002,-10.66137981414795,2.849100112915039,-0.6775590777397156,-85.2508544921875,-82.427978515625,91.97998046875
18.609999900000002,-10.517727851867676,2.2912509441375732,-0.7565677165985107,-79.315185546875,-37.8570556640625,92.2393798828125
18.6299999,-10.278307914733887,1.843535304069519,-1.2401964664459229,-81.60400390625,4.180908203125,75.7598876953125
18.6499999,-10.074800491333008,1.280897855758667,-1.4867992401123047,-81.4666748046875,16.6473388671875,80.8563232421875
18.6699999,-9.974244117736816,0.7134721279144287,-1.2449848651885986,-66.22314453125,19.8516845703125,92.3919677734375
18.6899999,-9.947908401489258,0,-0.8259995579719543,-68.817138671875,10.986328125,73.0743408203125
18.7099999,-9.947908401489258,-0.7086837291717529,-0.2753331959247589,-79.4219970703125,21.4385986328125,35.1409912109375
18.7299999,-9.93593692779541,-1.400607943534851,0.22026655077934265,-84.9761962890625,35.1104736328125,19.4854736328125
18.749999900000002,-9.921571731567383,-1.4748282432556152,0.6224924325942993,-74.127197265625,24.169921875,25.9552001953125
18.769999900000002,-9.940725326538086,-1.5538369417190552,0.8882488012313843,-68.572998046875,0.7781982421875,44.3115234375
18.7899999,-9.967061996459961,-1.9560627937316895,0.9888052940368652,-48.065185546875,-0.1068115234375,44.98291015625
18.8099999,-9.964667320251465,-2.6144683361053467,0.4908113479614258,-29.449462890625,3.1585693359375,5.2490234375
18.8299999,-9.955090522766113,-3.354276657104492,-0.22026655077934265,-33.111572265625,15.68603515625,-22.4761962890625
18.8499999,-10.014945983886719,-3.914519786834717,-0.8236053586006165,-27.40478515625,29.296875,-7.5531005859375
18.8699999,-10.127472877502441,-4.043806552886963,-1.2689268589019775,-12.0697021484375,17.1966552734375,1.0223388671875
18.8899999,-10.29746150970459,-4.441244125366211,-1.3479355573654175,0.7781982421875,7.4005126953125,-8.758544921875
18.909999900000003,-10.402806282043457,-4.611232280731201,-1.45806884765625,14.251708984375,12.20703125,-40.740966796875
18.929999900000002,-10.41956615447998,-4.462791919708252,-1.556231141090393,10.3912353515625,19.7906494140625,-49.6368408203125
18.9499999,-10.381258964538574,-4.01268196105957,-1.5322890281677246,28.167724609375,25.238037109375,-2.0751953125
18.9699999,-10.271124839782715,-3.272873640060425,-1.5873557329177856,30.3955078125,10.040283203125,18.8140869140625
18.9899999,-10.103530883789062,-2.9975404739379883,-1.4221558570861816,35.64453125,14.58740234375,16.7999267578125
19.0099999,-9.835380554199219,-3.071760892868042,-1.4293384552001953,45.7305908203125,32.8521728515625,4.2572021484375
19.0299999,-9.548076629638672,-3.512293815612793,-1.6089035272598267,45.0592041015625,42.1600341796875,7.14111328125
19.0499999,-9.351752281188965,-3.780444383621216,-1.534683346748352,55.4046630859375,67.1844482421875,10.2691650390625
19.0699999,-9.35654067993164,-3.823540210723877,-1.2090718746185303,60.577392578125,76.5533447265625,5.889892578125
19.089999900000002,-9.528923034667969,-3.9480385780334473,-0.15562310814857483,73.211669921875,74.462890625,21.1639404296875
19.109999900000002,-9.780313491821289,-4.388571739196777,1.235408067703247,90.301513671875,54.99267578125,23.895263671875
19.1299999,-9.964667320251465,-5.066130638122559,2.6384103298187256,90.850830078125,33.782958984375,-14.3890380859375
19.1499999,-10.017339706420898,-6.054935932159424,3.7421371936798096,95.367431640625,37.0025634765625,-50.9796142578125
19.1699999,-9.971850395202637,-6.653486728668213,4.548983097076416,108.1085205078125,50.9490966796875,-71.685791015625
19.1899999,-9.883264541625977,-6.782773494720459,5.245696067810059,119.720458984375,43.701171875,-76.629638671875
19.2099999,-9.763554573059082,-6.303933143615723,5.861005783081055,120.42236328125,23.193359375,-82.1685791015625
19.2299999,-9.612719535827637,-5.351040840148926,6.251260757446289,104.8126220703125,14.434814453125,-92.193603515625
19.249999900000002,-9.421183586120605,-4.158728122711182,6.481103897094727,92.681884765625,29.60205078125,-86.48681640625
19.269999900000002,-9.186552047729492,-3.1004912853240967,6.502651691436768,85.0067138671875,19.9127197265625,-62.2711181640625
19.2899999,-8.93037223815918,-2.4420857429504395,6.538564682006836,79.925537109375,-11.8560791015625,-46.6766357421875
19.3099999,-8.645462036132812,-2.7892448902130127,6.2201361656188965,73.3642578125,-43.15185546875,-47.3480224609375
19.3299999,-8.274360656738281,-3.4524388313293457,5.279214859008789,60.516357421875,-41.19873046875,-78.4454345703125
19.3499999,-7.891288757324219,-4.165910720825195,3.8810009956359863,53.2684326171875,-5.5999755859375,-97.686767578125
19.3699999,-7.594407558441162,-4.388571739196777,2.6623523235321045,65.00244140625,23.040771484375,-79.7271728515625
19.3899999,-7.577648162841797,-4.005499362945557,2.2218191623687744,64.63623046875,6.317138671875,-63.6138916015625
19.409999900000003,-7.848193168640137,-2.937685489654541,2.6455929279327393,50.1861572265625,-26.9317626953125,-68.8018798828125
19.429999900000002,-8.372523307800293,-1.601720929145813,3.3494882583618164,19.256591796875,-50.59814453125,-54.7943115234375
19.4499999,-8.999804496765137,-0.21787235140800476,4.0294413566589355,10.6201171875,-42.05322265625,-10.5743408203125
19.4699999,-9.653421401977539,0.9409212470054626,4.3622355461120605,-2.960205078125,-47.2564697265625,7.9498291015625
19.4899999,-10.302249908447266,1.656787633895874,4.675876140594482,-14.2669677734375,-64.88037109375,6.072998046875
19.5099999,-10.8505220413208,2.0159177780151367,4.37420654296875,-42.8314208984375,-98.663330078125,9.82666015625
19.5299999,-11.226411819458008,1.9943699836730957,3.825934410095215,-58.6700439453125,-87.7838134765625,34.2254638671875
19.5499999,-11.492168426513672,1.9704279899597168,1.9321208000183105,-77.728271484375,-48.2635498046875,44.464111328125
19.5699999,-11.504138946533203,1.8100165128707886,1.41257905960083,-77.8045654296875,-66.8182373046875,55.694580078125
19.589999900000002,-11.470620155334473,1.6879122257232666,0.9672574996948242,-103.5614013671875,-84.7320556640625,54.26025390625
19.609999900000002,-11.444284439086914,1.6687586307525635,0.8834604024887085,-108.1695556640625,-50.689697265625,63.4613037109375
19.6299999,-11.425130844116211,1.5418659448623657,0.6440402865409851,-95.4742431640625,-39.794921875,87.4176025390625
19.6499999,-11.403582572937012,1.0342950820922852,0.28730419278144836,-92.498779296875,-66.864013671875,99.212646484375
19.6699999,-11.396400451660156,-0.004788403399288654,-0.08140286058187485,-90.8660888671875,-61.03515625,78.06396484375
19.6899999,-11.329362869262695,-1.3072341680526733,-0.6248866319656372,-91.461181640625,-23.0255126953125,42.572021484375
19.7099999,-11.140220642089844,-2.346317768096924,-1.1013327836990356,-91.97998046875,-5.157470703125,27.6641845703125
19.7299999,-10.903194427490234,-2.6240451335906982,-0.9672574996948242,-73.760986328125,-10.6201171875,41.93115234375
19.749999900000002,-10.587160110473633,-2.363077163696289,-0.4668693244457245,-55.5877685546875,-31.341552734375,70.6024169921875
19.769999900000002,-10.18493366241455,-1.9728221893310547,0.06703764945268631,-47.8668212890625,-37.811279296875,79.864501953125
19.7899999,-9.737217903137207,-1.8579005002975464,0.2561795711517334,-50.140380859375,-13.3819580078125,62.469482421875
19.8099999,-9.315838813781738,-1.9345149993896484,0.15562310814857483,-54.87060546875,12.9241943359375,43.487548828125
19.8299999,-9.05247688293457,-2.0374655723571777,-0.014365210197865963,-53.802490234375,16.1895751953125,47.5006103515625
19.8499999,-8.990227699279785,-2.1092917919158936,0.07422025501728058,-34.8663330078125,8.8653564453125,71.3958740234375
19.8699999,-9.078812599182129,-2.2649147510528564,0.043095629662275314,-25.0091552734375,-0.732421875,79.9713134765625
19.8899999,-9.227252960205078,-2.7246015071868896,-0.17238251864910126,-22.5677490234375,10.7421875,68.511962890625
19.909999900000003,-9.423578262329102,-3.4787750244140625,-0.6727706789970398,-18.2647705078125,37.2467041015625,52.3529052734375
19.929999900000002,-9.670180320739746,-4.065354347229004,-0.9672574996948242,-10.25390625,57.9071044921875,33.6456298828125
19.9499999,-9.940725326538086,-4.2951979637146,-1.036689281463623,-3.7078857421875,45.501708984375,32.2418212890625
19.9699999,-10.168174743652344,-4.213795185089111,-0.8810662031173706,0.4119873046875,27.9541015625,45.166015625
19.9899999,-10.271124839782715,-4.0078935623168945,-0.8212111592292786,4.669189453125,40.95458984375,45.745849609375
20.0099999,-10.266336441040039,-3.93367338180542,-0.9696516990661621,6.5155029296875,67.0928955078125,25.7720947265625
20.0299999,-10.251971244812012,-4.175487995147705,-1.137245774269104,11.2457275390625,80.596923828125,6.1492919921875
20.0499999,-10.213664054870605,-4.448426723480225,-1.2114660739898682,16.845703125,71.014404296875,-7.0648193359375
20.0699999,-10.1753568649292,-4.900930881500244,-1.3838485479354858,12.1917724609375,59.814453125,-13.153076171875
20.089999900000002,-10.017339706420898,-5.427655220031738,-1.4269442558288574,31.951904296875,88.3331298828125,-22.796630859375
20.109999900000002,-9.77791976928711,-6.081272125244141,-1.6519991159439087,50.5523681640625,107.666015625,-43.914794921875
20.1299999,-9.50498104095459,-6.543353080749512,-1.5083470344543457,59.326171875,110.0616455078125,-67.9779052734375
20.1499999,-9.39245319366455,-6.92881965637207,-1.235408067703247,67.8558349609375,100.830078125,-67.9473876953125
20.1699999,-9.390059471130371,-6.789956092834473,-0.5626373887062073,85.906982421875,105.95703125,-65.704345703125
20.1899999,-9.478644371032715,-6.531382083892822,0.016759412363171577,95.6573486328125,99.395751953125,-62.31689453125
