# Time (seconds),Accel_X,Accel_Y,Accel_Z,Gyro_X,Gyro_Y,Gyro_Z
0.0099999,2.647987127304077,-9.473855972290039,-1.194706678390503,0.6103515625,-1.3427734375,-0.1678466796875
0.029999900000000003,2.6455929279327393,-9.47146224975586,-1.192312479019165,0.9002685546875,-0.762939453125,-0.732421875
0.0499999,2.6431987285614014,-9.466673851013184,-1.1827356815338135,1.373291015625,-0.946044921875,-0.946044921875
0.0699999,2.6431987285614014,-9.466673851013184,-1.173158884048462,1.2969970703125,-2.01416015625,-0.396728515625
0.08999990000000001,2.6455929279327393,-9.454702377319336,-1.1540051698684692,0.885009765625,-1.922607421875,-0.335693359375
0.10999990000000001,2.650381326675415,-9.44991397857666,-1.1468225717544556,0.640869140625,-1.708984375,-0.1068115234375
0.1299999,2.655169725418091,-9.454702377319336,-1.1468225717544556,1.15966796875,-1.9683837890625,-0.0152587890625
0.14999990000000002,2.655169725418091,-9.464279174804688,-1.1516109704971313,1.3885498046875,-2.1820068359375,-0.4425048828125
0.1699999,2.652775526046753,-9.478644371032715,-1.1683704853057861,1.2054443359375,-1.9989013671875,-0.8087158203125
0.1899999,2.650381326675415,-9.473855972290039,-1.1803414821624756,1.1749267578125,-0.9613037109375,-0.8087158203125
0.20999990000000002,2.647987127304077,-9.457097053527832,-1.1875240802764893,0.732421875,-0.6866455078125,0.0762939453125
0.2299999,2.647987127304077,-9.435548782348633,-1.1851298809051514,-0.3204345703125,-0.91552734375,1.15966796875
0.2499999,2.650381326675415,-9.423578262329102,-1.161187767982483,-1.007080078125,-0.67138671875,1.312255859375
0.2699999,2.650381326675415,-9.430760383605957,-1.1563993692398071,-0.8544921875,-1.2664794921875,0.8697509765625
0.28999990000000003,2.647987127304077,-9.44991397857666,-1.1516109704971313,-0.7171630859375,-0.9918212890625,0.67138671875
0.3099999,2.6455929279327393,-9.454702377319336,-1.158793568611145,-0.396728515625,-0.1983642578125,0.7476806640625
0.3299999,2.6455929279327393,-9.459490776062012,-1.1492167711257935,0.518798828125,-0.42724609375,1.15966796875
0.34999990000000003,2.6408045291900635,-9.457097053527832,-1.137245774269104,0.396728515625,-2.0751953125,1.6021728515625
0.3699999,2.6408045291900635,-9.44752025604248,-1.1109095811843872,0.0152587890625,-2.5787353515625,1.190185546875
0.3899999,2.6360161304473877,-9.452308654785156,-1.1061211824417114,-0.732421875,-2.7618408203125,1.8157958984375
0.40999990000000003,2.626439332962036,-9.464279174804688,-1.1180921792984009,-0.6103515625,-2.532958984375,1.8463134765625
0.4299999,2.612074136734009,-9.48343276977539,-1.139639973640442,-0.152587890625,-2.2735595703125,0.7781982421875
0.4499999,2.5953147411346436,-9.516951560974121,-1.1659762859344482,0.1983642578125,-1.953125,-0.1220703125
0.4699999,2.585737943649292,-9.536105155944824,-1.1803414821624756,-0.1220703125,-1.8463134765625,-0.732421875
0.4899999,2.583343744277954,-9.5408935546875,-1.1875240802764893,-0.274658203125,-1.64794921875,-0.8697509765625
0.5099999,2.585737943649292,-9.528923034667969,-1.1899182796478271,0.2593994140625,-1.800537109375,-0.701904296875
0.5299999,2.5929205417633057,-9.512163162231445,-1.1875240802764893,0.8544921875,-1.556396484375,-0.5950927734375
0.5499999,2.6024973392486572,-9.502586364746094,-1.1827356815338135,0.640869140625,-1.2969970703125,-0.9307861328125
0.5699999,2.607285737991333,-9.493009567260742,-1.170764684677124,0.5340576171875,-1.2969970703125,-1.8463134765625
0.5899998999999999,2.612074136734009,-9.495404243469238,-1.1635819673538208,0.8392333984375,-1.9989013671875,-1.5869140625
0.6099998999999999,2.6144683361053467,-9.48343276977539,-1.1492167711257935,0.9307861328125,-1.6021728515625,-1.5869140625
0.6299999,2.6144683361053467,-9.47146224975586,-1.1563993692398071,0.9002685546875,-1.52587890625,-1.40380859375
0.6499999,2.6168625354766846,-9.459490776062012,-1.1635819673538208,0.8392333984375,-1.251220703125,-0.9918212890625
0.6699999,2.6216509342193604,-9.44991397857666,-1.173158884048462,0.4119873046875,-0.6866455078125,-1.129150390625
0.6899999,2.626439332962036,-9.442731857299805,-1.1755530834197998,0.091552734375,-0.6866455078125,-0.9002685546875
0.7099999,2.63362193107605,-9.437943458557129,-1.1659762859344482,0.0762939453125,-0.762939453125,-0.2593994140625
0.7299998999999999,2.6360161304473877,-9.442731857299805,-1.1563993692398071,0.1220703125,-0.9307861328125,-0.0762939453125
0.7499998999999999,2.6384103298187256,-9.459490776062012,-1.1492167711257935,0.18310546875,-1.0528564453125,-0.2899169921875
0.7699999,2.6384103298187256,-9.473855972290039,-1.1468225717544556,-0.091552734375,-0.8544921875,-1.0528564453125
0.7899999,2.6408045291900635,-9.473855972290039,-1.1468225717544556,-0.1068115234375,-0.762939453125,-0.91552734375
0.8099999,2.6408045291900635,-9.473855972290039,-1.1563993692398071,0.0152587890625,-0.9918212890625,0.3204345703125
0.8299999,2.6431987285614014,-9.454702377319336,-1.1468225717544556,-0.0457763671875,-0.5340576171875,0.0152587890625
0.8499998999999999,2.6431987285614014,-9.44752025604248,-1.1468225717544556,0.1983642578125,-0.9002685546875,0.0152587890625
0.8699998999999999,2.6431987285614014,-9.440337181091309,-1.137245774269104,0.030517578125,-1.251220703125,0.5340576171875
0.8899999,2.6431987285614014,-9.442731857299805,-1.1444283723831177,-0.54931640625,-1.1138916015625,0.885009765625
0.9099999,2.6408045291900635,-9.454702377319336,-1.1563993692398071,-1.3427734375,-0.5950927734375,0.6866455078125
0.9299999,2.6384103298187256,-9.481039047241211,-1.1683704853057861,-1.251220703125,0.2593994140625,-0.1373291015625
0.9499999,2.6384103298187256,-9.495404243469238,-1.1779472827911377,-0.885009765625,0.0152587890625,-0.8697509765625
0.9699998999999999,2.6384103298187256,-9.500192642211914,-1.170764684677124,-0.823974609375,-0.274658203125,-0.6866455078125
0.9899998999999999,2.6384103298187256,-9.481039047241211,-1.1563993692398071,-0.8087158203125,-0.4425048828125,0.1220703125
1.0099999,2.6360161304473877,-9.464279174804688,-1.1468225717544556,-0.5340576171875,-0.91552734375,0.54931640625
1.0299999,2.63362193107605,-9.459490776062012,-1.137245774269104,-0.152587890625,-1.007080078125,0.18310546875
1.0499999,2.631227731704712,-9.461885452270508,-1.1324573755264282,0.213623046875,-1.1138916015625,-0.54931640625
1.0699999,2.628833532333374,-9.478644371032715,-1.137245774269104,0.3509521484375,-1.6326904296875,-0.67138671875
1.0899999,2.626439332962036,-9.50498104095459,-1.1516109704971313,0.3662109375,-1.52587890625,-0.732421875
1.1099999,2.6240451335906982,-9.521739959716797,-1.1683704853057861,-0.4119873046875,-0.518798828125,-2.0904541015625
1.1299999,2.626439332962036,-9.526528358459473,-1.1683704853057861,0.091552734375,-0.030517578125,-3.1890869140625
1.1499999,2.63362193107605,-9.519346237182617,-1.170764684677124,0.732421875,-1.708984375,-2.3956298828125
1.1699998999999999,2.6455929279327393,-9.478644371032715,-1.158793568611145,0.1068115234375,-2.044677734375,-1.6632080078125
1.1899998999999999,2.6575639247894287,-9.44752025604248,-1.1563993692398071,0,-1.068115234375,-0.91552734375
1.2099999,2.669534921646118,-9.41400146484375,-1.170764684677124,0.0152587890625,-1.0528564453125,-0.8087158203125
1.2299999,2.676717519760132,-9.399636268615723,-1.1659762859344482,0.1678466796875,-0.5645751953125,-0.54931640625
1.2499999,2.6791117191314697,-9.397241592407227,-1.170764684677124,-0.152587890625,-1.5106201171875,0.152587890625
1.2699999,2.6815059185028076,-9.402029991149902,-1.158793568611145,-0.4730224609375,-1.4190673828125,0.1678466796875
1.2899999,2.6791117191314697,-9.428366661071777,-1.1563993692398071,-0.457763671875,-1.0833740234375,0.152587890625
1.3099999,2.6791117191314697,-9.440337181091309,-1.1563993692398071,0.0457763671875,-0.8697509765625,-0.5035400390625
1.3299999,2.674323320388794,-9.457097053527832,-1.158793568611145,0.4730224609375,-1.129150390625,-0.335693359375
1.3499999,2.671929121017456,-9.478644371032715,-1.1683704853057861,0.457763671875,-1.495361328125,0.2593994140625
1.3699999,2.6647465229034424,-9.555258750915527,-1.1971008777618408,-0.091552734375,-0.9307861328125,-0.9307861328125
1.3899999,2.6575639247894287,-9.607931137084961,-1.2114660739898682,-0.9002685546875,1.312255859375,-5.9814453125
1.4099999,2.655169725418091,-9.615114212036133,-1.1971008777618408,0.3204345703125,1.40380859375,-8.4228515625
1.4299998999999999,2.6671407222747803,-9.557653427124023,-1.1875240802764893,2.1209716796875,-1.6326904296875,-4.150390625
1.4499999,2.691082715988159,-9.430760383605957,-1.137245774269104,0.457763671875,-1.617431640625,-1.190185546875
1.4699999,2.7222073078155518,-9.344569206237793,-1.113303780555725,-1.068115234375,-0.640869140625,-0.152587890625
1.4899999,2.7509377002716064,-9.349357604980469,-1.1085153818130493,-0.091552734375,-1.4190673828125,-1.5869140625
1.5099999,2.7724854946136475,-9.366117477416992,-1.1061211824417114,0.640869140625,-1.5411376953125,-4.2724609375
1.5299999,2.782062292098999,-9.397241592407227,-1.1252747774124146,0.885009765625,-1.6326904296875,-3.570556640625
1.5499999,2.7772738933563232,-9.394847869873047,-1.1492167711257935,0.18310546875,-1.068115234375,-0.42724609375
1.5699999,2.7772738933563232,-9.368511199951172,-1.161187767982483,-1.03759765625,-0.1068115234375,0.0762939453125
1.5899999,2.7700912952423096,-9.39245319366455,-1.1755530834197998,-1.0833740234375,-0.732421875,-0.3662109375
1.6099999,2.765302896499634,-9.423578262329102,-1.1803414821624756,-1.068115234375,-1.220703125,-1.77001953125
1.6299999,2.765302896499634,-9.452308654785156,-1.1635819673538208,-0.91552734375,-0.06103515625,-2.593994140625
1.6499999,2.765302896499634,-9.461885452270508,-1.1683704853057861,-0.48828125,-0.732421875,-1.617431640625
1.6699999,2.7724854946136475,-9.466673851013184,-1.161187767982483,0.213623046875,-0.732421875,-1.03759765625
1.6899998999999999,2.786850690841675,-9.430760383605957,-1.1516109704971313,0.1220703125,-0.30517578125,-2.7313232421875
1.7099999,2.80361008644104,-9.428366661071777,-1.1492167711257935,0.823974609375,-1.1138916015625,-1.64794921875
1.7299999,2.8203697204589844,-9.402029991149902,-1.1420341730117798,0.518798828125,-1.5411376953125,-0.6866455078125
1.7499999,2.827552318572998,-9.38048267364502,-1.139639973640442,0.3662109375,-1.52587890625,-0.7476806640625
1.7699999,2.82515811920166,-9.375694274902344,-1.1444283723831177,1.708984375,-1.6021728515625,-0.2288818359375
1.7899999,2.8203697204589844,-9.370905876159668,-1.137245774269104,2.349853515625,-1.3885498046875,-0.396728515625
1.8099999,2.8155810832977295,-9.378087997436523,-1.1468225717544556,1.6632080078125,-1.9683837890625,0.1068115234375
1.8299999,2.8131868839263916,-9.390059471130371,-1.1492167711257935,0.0762939453125,-1.6937255859375,0.7171630859375
1.8499999,2.8155810832977295,-9.409213066101074,-1.1516109704971313,-0.7476806640625,-0.518798828125,0.244140625
1.8699999,2.8155810832977295,-9.41639518737793,-1.1659762859344482,-0.3814697265625,-0.8087158203125,-0.1983642578125
1.8899999,2.8155810832977295,-9.421183586120605,-1.1635819673538208,-0.0457763671875,-0.79345703125,0.640869140625
1.9099999,2.8107926845550537,-9.411606788635254,-1.1683704853057861,-0.701904296875,-0.5035400390625,1.220703125
1.9299998999999999,2.80361008644104,-9.406818389892578,-1.1683704853057861,-1.15966796875,-0.091552734375,1.2359619140625
1.9499999,2.7988216876983643,-9.41400146484375,-1.173158884048462,-0.7476806640625,0.091552734375,0.885009765625
1.9699999,2.7940332889556885,-9.406818389892578,-1.1779472827911377,0.0152587890625,0.1678466796875,0.3662109375
1.9899999,2.7940332889556885,-9.402029991149902,-1.1827356815338135,0.1068115234375,0.42724609375,1.617431640625
2.0099999,2.7964274883270264,-9.39245319366455,-1.1755530834197998,-0.7781982421875,1.03759765625,2.5482177734375
2.0299999,2.7988216876983643,-9.385271072387695,-1.1635819673538208,-1.77001953125,0.640869140625,2.3956298828125
2.0499999,2.7964274883270264,-9.387664794921875,-1.1420341730117798,-1.5869140625,-0.4425048828125,2.3193359375
2.0699999,2.7916390895843506,-9.402029991149902,-1.1300631761550903,-0.9307861328125,-0.8544921875,2.8228759765625
2.0899999,2.779668092727661,-9.425971984863281,-1.139639973640442,-1.03759765625,-0.3509521484375,2.86865234375
2.1099999,2.7700912952423096,-9.437943458557129,-1.1468225717544556,-1.129150390625,0.5950927734375,1.64794921875
2.1299999,2.7557260990142822,-9.459490776062012,-1.158793568611145,-0.3509521484375,0.335693359375,1.617431640625
2.1499999,2.7437551021575928,-9.476250648498535,-1.170764684677124,-0.213623046875,-0.91552734375,1.9989013671875
2.1699999,2.7317841053009033,-9.481039047241211,-1.1683704853057861,-0.762939453125,-0.030517578125,1.129150390625
2.1899999,2.7246015071868896,-9.473855972290039,-1.1635819673538208,-0.4119873046875,0.67138671875,0.6866455078125
2.2099999,2.719813108444214,-9.454702377319336,-1.1540051698684692,0.152587890625,-0.7476806640625,1.8310546875
2.2299999,2.719813108444214,-9.41639518737793,-1.1420341730117798,-0.091552734375,-1.6632080078125,2.716064453125
2.2499999,2.717418909072876,-9.390059471130371,-1.1276689767837524,-0.640869140625,-1.3427734375,3.326416015625
2.2699999,2.7126305103302,-9.378087997436523,-1.1444283723831177,-0.457763671875,-1.220703125,3.5858154296875
2.2899999,2.7006595134735107,-9.390059471130371,-1.161187767982483,-0.152587890625,-0.7781982421875,3.9215087890625
2.3099999,2.6862943172454834,-9.423578262329102,-1.1803414821624756,-0.6561279296875,-0.3204345703125,3.509521484375
2.3299999,2.671929121017456,-9.47146224975586,-1.1971008777618408,-1.64794921875,-0.244140625,2.655029296875
2.3499999,2.6575639247894287,-9.50737476348877,-1.1971008777618408,-2.044677734375,-0.030517578125,1.556396484375
2.3699999,2.6455929279327393,-9.543288230895996,-1.2018892765045166,-1.708984375,-0.091552734375,1.434326171875
2.3899999,2.6384103298187256,-9.543288230895996,-1.194706678390503,-1.1749267578125,-0.1068115234375,1.1444091796875
2.4099999,2.631227731704712,-9.524134635925293,-1.1827356815338135,-0.6561279296875,-0.1220703125,0.823974609375
2.4299999,2.626439332962036,-9.509769439697266,-1.173158884048462,0.1373291015625,-0.9002685546875,1.6937255859375
2.4499999,2.6240451335906982,-9.485827445983887,-1.1683704853057861,0.335693359375,-0.9613037109375,0.9002685546875
2.4699999,2.6240451335906982,-9.478644371032715,-1.158793568611145,0.42724609375,-0.79345703125,0.4425048828125
2.4899999,2.6192567348480225,-9.488221168518066,-1.1683704853057861,0.8697509765625,-1.2969970703125,0.5340576171875
2.5099999,2.6216509342193604,-9.478644371032715,-1.158793568611145,0.5950927734375,-0.9613037109375,-0.335693359375
2.5299999,2.6192567348480225,-9.493009567260742,-1.1683704853057861,0.1678466796875,-1.3580322265625,-0.2899169921875
2.5499999,2.6216509342193604,-9.485827445983887,-1.158793568611145,-0.3509521484375,-1.617431640625,-0.2288818359375
2.5699999,2.6240451335906982,-9.478644371032715,-1.1683704853057861,-0.274658203125,-1.6937255859375,-0.54931640625
2.5899999,2.626439332962036,-9.466673851013184,-1.173158884048462,0.457763671875,-1.617431640625,0.1983642578125
2.6099999,2.626439332962036,-9.464279174804688,-1.1899182796478271,0.701904296875,-1.2969970703125,0.396728515625
2.6299999,2.626439332962036,-9.445125579833984,-1.194706678390503,0.396728515625,-1.007080078125,-0.3509521484375
2.6499999,2.6240451335906982,-9.452308654785156,-1.2042834758758545,0.18310546875,-1.3885498046875,0.3662109375
2.6699999,2.6240451335906982,-9.445125579833984,-1.1971008777618408,-0.4730224609375,-1.007080078125,0.8087158203125
2.6899999,2.6240451335906982,-9.442731857299805,-1.194706678390503,-1.1138916015625,-0.91552734375,0.7476806640625
2.7099999,2.6216509342193604,-9.44752025604248,-1.192312479019165,-0.9307861328125,-0.7781982421875,0.8392333984375
2.7299999,2.6192567348480225,-9.44991397857666,-1.1851298809051514,-1.0223388671875,-0.518798828125,1.251220703125
2.7499999,2.612074136734009,-9.459490776062012,-1.1827356815338135,-1.5411376953125,-0.5645751953125,1.2969970703125
2.7699999,2.604891538619995,-9.466673851013184,-1.1803414821624756,-1.6937255859375,-0.946044921875,1.007080078125
2.7899999,2.6001031398773193,-9.478644371032715,-1.1827356815338135,-1.0223388671875,-0.701904296875,0.7781982421875
2.8099999,2.5929205417633057,-9.488221168518066,-1.1851298809051514,-0.06103515625,-0.6256103515625,0.946044921875
2.8299999,2.58813214302063,-9.493009567260742,-1.1899182796478271,0.1068115234375,-1.1138916015625,0.6866455078125
2.8499999,2.58813214302063,-9.497797966003418,-1.1827356815338135,0.1373291015625,-1.495361328125,0.4425048828125
2.8699999,2.58813214302063,-9.495404243469238,-1.1827356815338135,-0.030517578125,-1.77001953125,0.274658203125
2.8899999,2.58813214302063,-9.493009567260742,-1.1803414821624756,-0.1220703125,-1.739501953125,0.3509521484375
2.9099999,2.5905263423919678,-9.481039047241211,-1.1827356815338135,-0.42724609375,-1.678466796875,0.3814697265625
2.9299999,2.58813214302063,-9.476250648498535,-1.1875240802764893,-0.030517578125,-2.227783203125,0.5645751953125
2.9499999,2.58813214302063,-9.457097053527832,-1.1875240802764893,0.18310546875,-2.2125244140625,0.3509521484375
2.9699999,2.583343744277954,-9.478644371032715,-1.2090718746185303,0.2288818359375,-2.044677734375,1.0833740234375
2.9899999,2.5761611461639404,-9.493009567260742,-1.216254472732544,-0.3509521484375,-1.3427734375,0.152587890625
3.0099999,2.5713725090026855,-9.526528358459473,-1.237802267074585,-0.1983642578125,-1.0833740234375,-1.8157958984375
3.0299999,2.5689783096313477,-9.550470352172852,-1.2401964664459229,0.54931640625,-0.79345703125,-2.1209716796875
3.0499999,2.5689783096313477,-9.548076629638672,-1.235408067703247,0.0152587890625,-0.457763671875,-1.7242431640625
3.0699999,2.5761611461639404,-9.526528358459473,-1.216254472732544,-0.8697509765625,-1.0986328125,-1.6632080078125
3.0899999,2.583343744277954,-9.500192642211914,-1.1994950771331787,-0.54931640625,-1.708984375,-1.5869140625
3.1099999,2.5905263423919678,-9.469067573547363,-1.1827356815338135,0.42724609375,-1.708984375,-1.6326904296875
3.1299999,2.5977089405059814,-9.445125579833984,-1.1803414821624756,0.823974609375,-1.8768310546875,-1.068115234375
3.1499999,2.6024973392486572,-9.428366661071777,-1.1755530834197998,1.007080078125,-1.6632080078125,-0.6256103515625
3.1699999,2.607285737991333,-9.425971984863281,-1.1755530834197998,1.0528564453125,-2.166748046875,-0.5950927734375
3.1899999,2.609679937362671,-9.437943458557129,-1.1755530834197998,1.2969970703125,-2.655029296875,-0.8392333984375
3.2099999,2.612074136734009,-9.464279174804688,-1.1683704853057861,1.2054443359375,-2.4566650390625,-1.03759765625
3.2299999,2.612074136734009,-9.478644371032715,-1.173158884048462,1.3275146484375,-2.9144287109375,-1.6021728515625
3.2499999,2.609679937362671,-9.490615844726562,-1.1755530834197998,2.0294189453125,-3.1585693359375,-1.28173828125
3.2699999,2.612074136734009,-9.48343276977539,-1.1827356815338135,2.1514892578125,-2.6702880859375,-1.129150390625
3.2899999,2.6144683361053467,-9.473855972290039,-1.1899182796478271,1.7547607421875,-2.593994140625,-0.91552734375
3.3099999,2.6216509342193604,-9.452308654785156,-1.1899182796478271,1.52587890625,-2.655029296875,-0.9918212890625
3.3299999000000002,2.628833532333374,-9.437943458557129,-1.194706678390503,1.3885498046875,-2.777099609375,-0.1983642578125
3.3499999,2.63362193107605,-9.41639518737793,-1.194706678390503,0.7476806640625,-2.1820068359375,0.5035400390625
3.3699999,2.6384103298187256,-9.404424667358398,-1.1971008777618408,-0.030517578125,-1.5106201171875,1.0223388671875
3.3899999,2.6360161304473877,-9.406818389892578,-1.1875240802764893,-1.2664794921875,-1.6021728515625,1.617431640625
3.4099999,2.631227731704712,-9.409213066101074,-1.1683704853057861,-1.9683837890625,-2.1820068359375,1.40380859375
3.4299999,2.6216509342193604,-9.421183586120605,-1.1683704853057861,-1.556396484375,-2.7923583984375,1.8768310546875
3.4499999,2.612074136734009,-9.421183586120605,-1.1540051698684692,-0.9613037109375,-1.861572265625,2.716064453125
3.4699999,2.6024973392486572,-9.41400146484375,-1.1683704853057861,-0.7171630859375,-2.25830078125,3.11279296875
3.4899999,2.5905263423919678,-9.445125579833984,-1.2210428714752197,1.4495849609375,-2.9754638671875,3.7384033203125
3.5099999,2.5785553455352783,-9.478644371032715,-1.1994950771331787,0.762939453125,0.30517578125,2.5634765625
3.5299999,2.5665841102600098,-9.516951560974121,-1.2449848651885986,-0.1220703125,-1.556396484375,-0.06103515625
3.5499999,2.557007312774658,-9.550470352172852,-1.2186486721038818,1.3885498046875,-1.7242431640625,0.91552734375
3.5699999,2.5498247146606445,-9.548076629638672,-1.2018892765045166,1.3580322265625,-1.068115234375,1.15966796875
3.5899999,2.5474305152893066,-9.526528358459473,-1.192312479019165,0.9307861328125,-1.2969970703125,1.007080078125
3.6099999,2.5450363159179688,-9.512163162231445,-1.170764684677124,0.9765625,-1.312255859375,1.15966796875
3.6299999,2.5450363159179688,-9.495404243469238,-1.1683704853057861,0.8544921875,-1.922607421875,1.1138916015625
3.6499999,2.542642116546631,-9.500192642211914,-1.158793568611145,0.48828125,-1.556396484375,1.1138916015625
3.6699999,2.537853717803955,-9.50498104095459,-1.1659762859344482,0.06103515625,-1.129150390625,0.335693359375
3.6899999,2.5330653190612793,-9.514557838439941,-1.170764684677124,0.1678466796875,-1.3580322265625,0.1068115234375
3.7099999,2.5282769203186035,-9.528923034667969,-1.1827356815338135,0.091552734375,-1.15966796875,-0.0457763671875
3.7299999,2.5234885215759277,-9.521739959716797,-1.1875240802764893,-0.3204345703125,-0.640869140625,-0.6256103515625
3.7499999,2.5234885215759277,-9.531316757202148,-1.1971008777618408,-0.457763671875,-0.335693359375,-0.2288818359375
3.7699999,2.5234885215759277,-9.526528358459473,-1.194706678390503,-0.4730224609375,-0.3204345703125,-0.6561279296875
3.7899999,2.5258827209472656,-9.526528358459473,-1.194706678390503,-0.457763671875,-0.5340576171875,-1.3275146484375
3.8099999,2.5306711196899414,-9.524134635925293,-1.1803414821624756,-0.3662109375,-0.2593994140625,-1.3580322265625
3.8299999000000002,2.537853717803955,-9.512163162231445,-1.1683704853057861,-0.152587890625,-0.30517578125,-1.2969970703125
3.8499999,2.5450363159179688,-9.50498104095459,-1.158793568611145,0.213623046875,-1.2054443359375,-1.03759765625
3.8699999,2.5522189140319824,-9.485827445983887,-1.1444283723831177,0.457763671875,-1.40380859375,-1.556396484375
3.8899999,2.557007312774658,-9.493009567260742,-1.1492167711257935,0.5950927734375,-1.52587890625,-0.8087158203125
3.9099999,2.559401512145996,-9.48343276977539,-1.1492167711257935,-0.030517578125,-1.2054443359375,-1.373291015625
3.9299999,2.561795711517334,-9.485827445983887,-1.161187767982483,-0.1220703125,-1.5869140625,-1.556396484375
3.9499999,2.561795711517334,-9.478644371032715,-1.1659762859344482,0.244140625,-1.6326904296875,-1.007080078125
3.9699999,2.5689783096313477,-9.459490776062012,-1.170764684677124,0.1983642578125,-1.15966796875,-0.48828125
3.9899999,2.5713725090026855,-9.440337181091309,-1.170764684677124,0.2593994140625,-1.46484375,0.3204345703125
4.0099999,2.5737667083740234,-9.428366661071777,-1.170764684677124,0.1068115234375,-1.77001953125,1.190185546875
4.029999900000001,2.5737667083740234,-9.425971984863281,-1.1635819673538208,-0.3814697265625,-1.4495849609375,1.1138916015625
4.0499999,2.5713725090026855,-9.437943458557129,-1.161187767982483,-0.5645751953125,-1.4801025390625,1.1749267578125
4.069999900000001,2.564189910888672,-9.459490776062012,-1.161187767982483,-0.67138671875,-1.7242431640625,1.2359619140625
4.0899999000000005,2.559401512145996,-9.473855972290039,-1.1659762859344482,-0.518798828125,-1.678466796875,0.91552734375
4.1099999,2.5522189140319824,-9.488221168518066,-1.173158884048462,-0.2288818359375,-1.46484375,1.007080078125
4.1299999000000005,2.5474305152893066,-9.488221168518066,-1.1779472827911377,-0.152587890625,-1.4801025390625,1.2664794921875
4.1499999,2.542642116546631,-9.488221168518066,-1.1827356815338135,-0.6103515625,-1.6937255859375,1.46484375
4.1699999000000005,2.540247917175293,-9.488221168518066,-1.1779472827911377,-0.4730224609375,-1.7852783203125,1.4190673828125
4.1899999,2.535459518432617,-9.502586364746094,-1.1827356815338135,0.1068115234375,-1.953125,1.1444091796875
4.209999900000001,2.5306711196899414,-9.512163162231445,-1.1803414821624756,0.4425048828125,-1.8768310546875,0.274658203125
4.2299999,2.5258827209472656,-9.526528358459473,-1.1851298809051514,0.67138671875,-1.7547607421875,-0.0457763671875
4.249999900000001,2.5234885215759277,-9.519346237182617,-1.1875240802764893,0.701904296875,-1.8310546875,0.06103515625
4.2699999,2.5234885215759277,-9.516951560974121,-1.192312479019165,0.5645751953125,-1.7547607421875,0.42724609375
4.289999900000001,2.52109432220459,-9.502586364746094,-1.1875240802764893,0.1983642578125,-1.6326904296875,0.2593994140625
4.3099999,2.52109432220459,-9.500192642211914,-1.1851298809051514,0.30517578125,-1.8157958984375,0.2288818359375
4.329999900000001,2.516305923461914,-9.490615844726562,-1.1803414821624756,0.4425048828125,-1.861572265625,0.18310546875
4.3499999,2.513911724090576,-9.48343276977539,-1.1755530834197998,0.1983642578125,-1.5716552734375,0.5035400390625
4.369999900000001,2.5091233253479004,-9.481039047241211,-1.1803414821624756,0.1373291015625,-1.5869140625,0.885009765625
4.3899999,2.5067291259765625,-9.48343276977539,-1.1827356815338135,-0.213623046875,-1.64794921875,0.79345703125
4.409999900000001,2.5019407272338867,-9.497797966003418,-1.192312479019165,-0.3204345703125,-1.3885498046875,0.48828125
4.4299999,2.499546527862549,-9.512163162231445,-1.2018892765045166,-0.42724609375,-1.15966796875,0.091552734375
4.449999900000001,2.494758129119873,-9.519346237182617,-1.2066776752471924,-0.244140625,-0.701904296875,-0.2899169921875
4.4699999,2.492363929748535,-9.521739959716797,-1.2042834758758545,-0.06103515625,-0.9918212890625,0.030517578125
4.489999900000001,2.494758129119873,-9.512163162231445,-1.194706678390503,0.06103515625,-1.1138916015625,-0.152587890625
4.5099999,2.497152328491211,-9.502586364746094,-1.1803414821624756,0.1983642578125,-1.1444091796875,0.06103515625
4.529999900000001,2.499546527862549,-9.495404243469238,-1.173158884048462,0.42724609375,-1.3427734375,0.3814697265625
4.5499999,2.499546527862549,-9.493009567260742,-1.1683704853057861,0.5035400390625,-1.373291015625,0.274658203125
4.569999900000001,2.497152328491211,-9.497797966003418,-1.1635819673538208,0.701904296875,-1.3427734375,-0.06103515625
4.5899999000000005,2.494758129119873,-9.509769439697266,-1.1659762859344482,0.9613037109375,-1.5106201171875,-0.274658203125
4.609999900000001,2.492363929748535,-9.509769439697266,-1.1659762859344482,0.8087158203125,-1.434326171875,-0.5645751953125
4.6299999000000005,2.4899697303771973,-9.509769439697266,-1.170764684677124,0.5340576171875,-1.5106201171875,-0.244140625
4.6499999,2.494758129119873,-9.509769439697266,-1.1755530834197998,0.274658203125,-1.0986328125,0.0457763671875
4.6699999000000005,2.497152328491211,-9.495404243469238,-1.1779472827911377,0.1220703125,-0.8087158203125,-0.3814697265625
4.6899999,2.5019407272338867,-9.502586364746094,-1.1803414821624756,0.2899169921875,-1.2054443359375,0.1068115234375
4.709999900000001,2.5019407272338867,-9.495404243469238,-1.173158884048462,0.1220703125,-1.0528564453125,-0.06103515625
4.7299999,2.5019407272338867,-9.495404243469238,-1.173158884048462,-0.0152587890625,-0.9613037109375,-0.18310546875
4.749999900000001,2.499546527862549,-9.50498104095459,-1.1755530834197998,0.274658203125,-1.0528564453125,0.213623046875
4.7699999,2.499546527862549,-9.50498104095459,-1.1779472827911377,0.0762939453125,-0.79345703125,-0.1983642578125
4.789999900000001,2.499546527862549,-9.509769439697266,-1.1803414821624756,-0.335693359375,-0.213623046875,-0.4119873046875
4.8099999,2.499546527862549,-9.514557838439941,-1.1827356815338135,-0.457763671875,-0.1068115234375,-0.396728515625
4.829999900000001,2.497152328491211,-9.531316757202148,-1.1851298809051514,-0.9002685546875,-0.2593994140625,-0.5035400390625
4.8499999,2.499546527862549,-9.528923034667969,-1.1755530834197998,-1.4495849609375,0.244140625,-1.7242431640625
4.869999900000001,2.499546527862549,-9.536105155944824,-1.1755530834197998,-0.9613037109375,-0.152587890625,-1.5106201171875
4.8899999,2.5043349266052246,-9.50498104095459,-1.1563993692398071,-0.640869140625,-0.3662109375,-1.0528564453125
4.909999900000001,2.5091233253479004,-9.490615844726562,-1.1563993692398071,-0.4730224609375,-1.0986328125,0.2288818359375
4.9299999,2.516305923461914,-9.459490776062012,-1.1468225717544556,-0.5950927734375,-0.823974609375,0.3509521484375
4.949999900000001,2.516305923461914,-9.473855972290039,-1.1635819673538208,-0.30517578125,-0.732421875,0.0457763671875
4.9699999,2.516305923461914,-9.481039047241211,-1.1683704853057861,-0.244140625,-0.30517578125,-0.7476806640625
4.989999900000001,2.513911724090576,-9.502586364746094,-1.173158884048462,-0.030517578125,-0.518798828125,-1.2054443359375
5.0099999,2.513911724090576,-9.512163162231445,-1.1755530834197998,0.30517578125,-1.2664794921875,-0.6103515625
5.029999900000001,2.516305923461914,-9.50498104095459,-1.173158884048462,0.3814697265625,-1.28173828125,-0.8392333984375
5.0499999,2.518700122833252,-9.500192642211914,-1.173158884048462,0.91552734375,-1.068115234375,-0.6561279296875
5.069999900000001,2.52109432220459,-9.495404243469238,-1.1779472827911377,1.4801025390625,-1.4190673828125,-0.3204345703125
5.0899999000000005,2.52109432220459,-9.488221168518066,-1.1755530834197998,1.5411376953125,-1.4801025390625,-0.518798828125
5.109999900000001,2.52109432220459,-9.488221168518066,-1.1755530834197998,1.373291015625,-1.373291015625,-0.518798828125
5.1299999000000005,2.5234885215759277,-9.490615844726562,-1.170764684677124,0.6256103515625,-1.251220703125,-0.396728515625
5.1499999,2.5234885215759277,-9.493009567260742,-1.1659762859344482,0,-1.007080078125,-0.579833984375
5.1699999000000005,2.5258827209472656,-9.497797966003418,-1.1635819673538208,-0.2288818359375,-1.1444091796875,-0.5950927734375
5.1899999,2.5282769203186035,-9.493009567260742,-1.158793568611145,-0.1678466796875,-1.0986328125,-0.5950927734375
5.209999900000001,2.5330653190612793,-9.48343276977539,-1.1540051698684692,-0.1068115234375,-1.1444091796875,-0.2593994140625
5.2299999,2.5330653190612793,-9.481039047241211,-1.1516109704971313,0,-1.3885498046875,0.4730224609375
5.249999900000001,2.535459518432617,-9.476250648498535,-1.1492167711257935,0.42724609375,-1.3885498046875,0.1373291015625
5.2699999,2.5306711196899414,-9.495404243469238,-1.1516109704971313,1.0833740234375,-1.556396484375,-0.0152587890625
5.289999900000001,2.5306711196899414,-9.500192642211914,-1.1468225717544556,1.03759765625,-1.6937255859375,-0.79345703125
5.3099999,2.5282769203186035,-9.50737476348877,-1.1468225717544556,0.6866455078125,-2.13623046875,-0.5950927734375
5.329999900000001,2.5282769203186035,-9.502586364746094,-1.1468225717544556,0.2593994140625,-2.0599365234375,0.1678466796875
5.3499999,2.5306711196899414,-9.490615844726562,-1.1492167711257935,-0.0152587890625,-1.434326171875,0.06103515625
5.369999900000001,2.5306711196899414,-9.481039047241211,-1.1563993692398071,0.030517578125,-1.5869140625,0.3662109375
5.3899999,2.5282769203186035,-9.478644371032715,-1.1659762859344482,-0.091552734375,-1.64794921875,0.48828125
5.409999900000001,2.5258827209472656,-9.481039047241211,-1.1683704853057861,-0.48828125,-1.2664794921875,0.4425048828125
5.4299999,2.5234885215759277,-9.485827445983887,-1.1755530834197998,-1.03759765625,-0.9918212890625,0.4119873046875
5.449999900000001,2.52109432220459,-9.490615844726562,-1.1803414821624756,-0.9613037109375,-1.03759765625,0.518798828125
5.4699999,2.52109432220459,-9.493009567260742,-1.1803414821624756,-0.762939453125,-0.9765625,0.640869140625
5.489999900000001,2.52109432220459,-9.488221168518066,-1.1779472827911377,-0.6256103515625,-0.701904296875,0.5950927734375
5.5099999,2.518700122833252,-9.495404243469238,-1.173158884048462,-0.5340576171875,-0.946044921875,0.9002685546875
5.529999900000001,2.516305923461914,-9.493009567260742,-1.1659762859344482,-0.5340576171875,-1.190185546875,0.3814697265625
5.5499999,2.5115175247192383,-9.502586364746094,-1.1659762859344482,-0.3204345703125,-1.15966796875,0.2593994140625
5.569999900000001,2.5091233253479004,-9.500192642211914,-1.1635819673538208,-0.152587890625,-0.946044921875,0.396728515625
5.5899999000000005,2.5067291259765625,-9.50498104095459,-1.1683704853057861,0.1068115234375,-1.2359619140625,0.6561279296875
5.609999900000001,2.5043349266052246,-9.50498104095459,-1.1683704853057861,-0.030517578125,-1.434326171875,0.244140625
5.6299999000000005,2.5043349266052246,-9.509769439697266,-1.170764684677124,-0.18310546875,-1.251220703125,0.1983642578125
5.6499999,2.499546527862549,-9.50737476348877,-1.170764684677124,-0.3814697265625,-1.129150390625,0.2593994140625
5.6699999000000005,2.497152328491211,-9.50498104095459,-1.1755530834197998,-0.3204345703125,-1.3580322265625,0.3662109375
5.6899999,2.494758129119873,-9.50498104095459,-1.1755530834197998,-0.1678466796875,-1.220703125,0.5340576171875
5.709999900000001,2.494758129119873,-9.500192642211914,-1.1779472827911377,-0.18310546875,-1.129150390625,0.18310546875
5.7299999,2.494758129119873,-9.50498104095459,-1.1851298809051514,-0.030517578125,-1.1749267578125,0.18310546875
5.749999900000001,2.494758129119873,-9.495404243469238,-1.1827356815338135,0.0762939453125,-0.8697509765625,0.18310546875
5.7699999,2.494758129119873,-9.497797966003418,-1.1875240802764893,0.335693359375,-1.220703125,0.5950927734375
5.789999900000001,2.494758129119873,-9.500192642211914,-1.1851298809051514,0.1983642578125,-1.007080078125,0.79345703125
5.8099999,2.492363929748535,-9.50737476348877,-1.1899182796478271,-0.091552734375,-0.7781982421875,0.030517578125
5.829999900000001,2.4875755310058594,-9.524134635925293,-1.194706678390503,-0.030517578125,-0.457763671875,-0.213623046875
5.8499999,2.4851813316345215,-9.536105155944824,-1.192312479019165,0.0762939453125,-0.244140625,-0.3509521484375
5.869999900000001,2.4827871322631836,-9.536105155944824,-1.1971008777618408,-0.2288818359375,-0.5035400390625,-0.823974609375
5.8899999,2.4851813316345215,-9.526528358459473,-1.173158884048462,0.244140625,-0.1678466796875,-0.54931640625
5.909999900000001,2.4899697303771973,-9.512163162231445,-1.161187767982483,0.335693359375,-1.0986328125,-0.1068115234375
5.9299999,2.494758129119873,-9.497797966003418,-1.1444283723831177,0.54931640625,-1.5869140625,-0.244140625
5.949999900000001,2.497152328491211,-9.495404243469238,-1.1324573755264282,0.8544921875,-1.434326171875,-0.2593994140625
5.9699999,2.497152328491211,-9.500192642211914,-1.1348515748977661,0.9918212890625,-1.6326904296875,-0.518798828125
5.989999900000001,2.494758129119873,-9.50498104095459,-1.137245774269104,1.0223388671875,-1.861572265625,-0.9307861328125
6.0099999,2.494758129119873,-9.50498104095459,-1.1516109704971313,0.762939453125,-2.13623046875,-0.6561279296875
6.029999900000001,2.494758129119873,-9.502586364746094,-1.158793568611145,0.5035400390625,-1.4495849609375,-0.3509521484375
6.0499999,2.494758129119873,-9.497797966003418,-1.173158884048462,0.30517578125,-1.1749267578125,-0.396728515625
6.069999900000001,2.494758129119873,-9.50498104095459,-1.1779472827911377,0.48828125,-1.2054443359375,-0.3662109375
6.0899999000000005,2.494758129119873,-9.493009567260742,-1.1755530834197998,0.3509521484375,-1.2054443359375,-0.7781982421875
6.109999900000001,2.497152328491211,-9.497797966003418,-1.173158884048462,0.274658203125,-1.251220703125,-0.1678466796875
6.1299999000000005,2.499546527862549,-9.490615844726562,-1.1659762859344482,0.0457763671875,-1.0528564453125,0.244140625
6.149999900000001,2.499546527862549,-9.493009567260742,-1.1635819673538208,0.091552734375,-1.129150390625,-0.2288818359375
6.1699999000000005,2.5019407272338867,-9.502586364746094,-1.158793568611145,0.640869140625,-1.129150390625,-0.4730224609375
6.1899999,2.5019407272338867,-9.50737476348877,-1.1540051698684692,0.640869140625,-1.4495849609375,-0.640869140625
6.209999900000001,2.5019407272338867,-9.509769439697266,-1.1492167711257935,0.4730224609375,-1.3275146484375,-0.640869140625
6.2299999,2.5019407272338867,-9.50737476348877,-1.1468225717544556,0.457763671875,-1.3580322265625,-0.274658203125
6.249999900000001,2.5019407272338867,-9.50737476348877,-1.1468225717544556,0.7476806640625,-1.3580322265625,-0.213623046875
6.2699999,2.5043349266052246,-9.509769439697266,-1.1444283723831177,1.15966796875,-1.52587890625,-0.518798828125
6.289999900000001,2.5067291259765625,-9.514557838439941,-1.1468225717544556,1.4801025390625,-1.434326171875,-0.946044921875
6.3099999,2.5091233253479004,-9.516951560974121,-1.1492167711257935,1.495361328125,-1.2359619140625,-0.8697509765625
6.329999900000001,2.5115175247192383,-9.516951560974121,-1.1516109704971313,1.2359619140625,-1.28173828125,-0.67138671875
6.3499999,2.516305923461914,-9.509769439697266,-1.1468225717544556,1.0833740234375,-1.068115234375,-0.9307861328125
6.369999900000001,2.52109432220459,-9.497797966003418,-1.1348515748977661,0.91552734375,-1.2359619140625,-0.79345703125
6.3899999,2.5234885215759277,-9.495404243469238,-1.1180921792984009,0.885009765625,-1.4495849609375,-0.1373291015625
6.409999900000001,2.5258827209472656,-9.481039047241211,-1.1085153818130493,0.4425048828125,-1.739501953125,-0.4119873046875
6.4299999,2.5258827209472656,-9.48343276977539,-1.1013327836990356,0.335693359375,-1.4801025390625,-0.1068115234375
6.449999900000001,2.5234885215759277,-9.490615844726562,-1.1109095811843872,0.5950927734375,-1.3580322265625,0.18310546875
6.4699999,2.52109432220459,-9.495404243469238,-1.115697979927063,0.42724609375,-1.0986328125,-0.5035400390625
6.489999900000001,2.516305923461914,-9.512163162231445,-1.1324573755264282,0.274658203125,-1.2054443359375,-0.5035400390625
6.5099999,2.516305923461914,-9.516951560974121,-1.1252747774124146,0,-0.5340576171875,-0.5035400390625
6.529999900000001,2.518700122833252,-9.521739959716797,-1.1276689767837524,-0.30517578125,-0.9613037109375,-0.5950927734375
6.5499999,2.52109432220459,-9.521739959716797,-1.1180921792984009,-0.2593994140625,-1.2359619140625,-0.579833984375
6.569999900000001,2.5234885215759277,-9.519346237182617,-1.115697979927063,0.06103515625,-0.946044921875,-0.946044921875
6.5899999000000005,2.5282769203186035,-9.509769439697266,-1.1085153818130493,0.54931640625,-1.007080078125,-0.823974609375
6.609999900000001,2.5306711196899414,-9.502586364746094,-1.1085153818130493,0.8392333984375,-1.3885498046875,-0.54931640625
6.6299999000000005,2.5330653190612793,-9.495404243469238,-1.1037269830703735,1.007080078125,-1.9073486328125,-0.5340576171875
6.649999900000001,2.535459518432617,-9.497797966003418,-1.1061211824417114,1.2664794921875,-1.9989013671875,-0.8087158203125
6.6699999000000005,2.535459518432617,-9.502586364746094,-1.1061211824417114,1.40380859375,-1.64794921875,-1.0528564453125
6.6899999,2.537853717803955,-9.500192642211914,-1.1061211824417114,1.2969970703125,-1.6937255859375,-0.9613037109375
6.709999900000001,2.537853717803955,-9.500192642211914,-1.1085153818130493,0.9765625,-2.0294189453125,-0.5645751953125
6.7299999,2.540247917175293,-9.488221168518066,-1.1061211824417114,0.2593994140625,-1.6021728515625,-0.30517578125
6.749999900000001,2.542642116546631,-9.485827445983887,-1.113303780555725,-0.18310546875,-1.1444091796875,-0.1983642578125
6.7699999,2.542642116546631,-9.485827445983887,-1.113303780555725,-0.091552734375,-1.0986328125,-0.0152587890625
6.789999900000001,2.5450363159179688,-9.481039047241211,-1.1085153818130493,-0.091552734375,-1.2969970703125,-0.244140625
6.8099999,2.5474305152893066,-9.485827445983887,-1.1037269830703735,-0.152587890625,-1.46484375,0.2593994140625
6.829999900000001,2.5450363159179688,-9.488221168518066,-1.1013327836990356,-0.5645751953125,-1.312255859375,0.5645751953125
6.8499999,2.5450363159179688,-9.488221168518066,-1.0989385843276978,-0.6256103515625,-1.1444091796875,0.18310546875
6.869999900000001,2.5450363159179688,-9.495404243469238,-1.094150185585022,-0.091552734375,-1.1138916015625,0.152587890625
6.8899999,2.542642116546631,-9.500192642211914,-1.0965443849563599,0.1068115234375,-1.5716552734375,0.152587890625
6.909999900000001,2.537853717803955,-9.497797966003418,-1.094150185585022,-0.1983642578125,-1.6021728515625,0.06103515625
6.9299999,2.535459518432617,-9.500192642211914,-1.0989385843276978,-0.3814697265625,-1.46484375,0.335693359375
6.949999900000001,2.5330653190612793,-9.497797966003418,-1.1037269830703735,-0.18310546875,-1.3580322265625,0.5035400390625
6.9699999,2.535459518432617,-9.500192642211914,-1.1085153818130493,0.06103515625,-1.6632080078125,0.3814697265625
6.989999900000001,2.5330653190612793,-9.500192642211914,-1.1061211824417114,0.091552734375,-1.77001953125,0.0762939453125
7.0099999,2.5330653190612793,-9.497797966003418,-1.1061211824417114,0,-1.5716552734375,0.3509521484375
7.029999900000001,2.5306711196899414,-9.500192642211914,-1.1085153818130493,-0.4119873046875,-1.678466796875,0.8697509765625
7.0499999,2.5258827209472656,-9.500192642211914,-1.1085153818130493,-0.6866455078125,-1.678466796875,0.48828125
7.069999900000001,2.52109432220459,-9.502586364746094,-1.1085153818130493,-0.3814697265625,-1.6937255859375,0.1678466796875
7.0899999000000005,2.516305923461914,-9.50737476348877,-1.115697979927063,0.1068115234375,-1.9989013671875,0.3814697265625
7.109999900000001,2.5115175247192383,-9.509769439697266,-1.113303780555725,0.0457763671875,-1.7852783203125,0.335693359375
7.1299999000000005,2.5091233253479004,-9.50737476348877,-1.115697979927063,0.213623046875,-1.5106201171875,-0.06103515625
7.149999900000001,2.5091233253479004,-9.50498104095459,-1.113303780555725,0.457763671875,-1.953125,0.335693359375
7.1699999000000005,2.5091233253479004,-9.497797966003418,-1.1109095811843872,0.3662109375,-1.8463134765625,0.4730224609375
7.1899999,2.5091233253479004,-9.495404243469238,-1.1204863786697388,-0.06103515625,-1.8157958984375,0.701904296875
7.209999900000001,2.5091233253479004,-9.497797966003418,-1.1228805780410767,-0.4119873046875,-1.0986328125,0.6561279296875
7.2299999,2.5091233253479004,-9.502586364746094,-1.1252747774124146,-0.5340576171875,-1.1444091796875,0.1983642578125
7.249999900000001,2.5067291259765625,-9.509769439697266,-1.1228805780410767,-1.007080078125,-1.77001953125,0.1983642578125
7.2699999,2.5067291259765625,-9.500192642211914,-1.0965443849563599,-1.8157958984375,-1.7547607421875,0.48828125
7.289999900000001,2.5043349266052246,-9.488221168518066,-1.094150185585022,-3.0517578125,-2.9754638671875,1.3427734375
7.3099999,2.499546527862549,-9.473855972290039,-1.094150185585022,-1.8463134765625,-3.3416748046875,1.9073486328125
7.329999900000001,2.492363929748535,-9.459490776062012,-1.1252747774124146,-0.732421875,-2.38037109375,2.0599365234375
7.3499999,2.4827871322631836,-9.457097053527832,-1.173158884048462,-0.1068115234375,-1.15966796875,2.2735595703125
7.369999900000001,2.473210334777832,-9.497797966003418,-1.1827356815338135,2.0904541015625,-0.0152587890625,2.838134765625
7.3899999,2.4636335372924805,-9.509769439697266,-1.1851298809051514,1.220703125,-1.9683837890625,0.9002685546875
7.409999900000001,2.456450939178467,-9.5624418258667,-1.1516109704971313,0.579833984375,-3.11279296875,0.4119873046875
7.4299999,2.454056739807129,-9.569623947143555,-1.1276689767837524,0.091552734375,-2.532958984375,0.5340576171875
7.449999900000001,2.451662540435791,-9.567230224609375,-1.1228805780410767,0.7171630859375,-2.044677734375,0.48828125
7.4699999,2.4468741416931152,-9.557653427124023,-1.1324573755264282,1.77001953125,-2.0294189453125,0.5645751953125
7.489999900000001,2.4444799423217773,-9.533711433410645,-1.1444283723831177,2.1820068359375,-1.8463134765625,0.48828125
7.5099999,2.4420857429504395,-9.521739959716797,-1.1540051698684692,1.8157958984375,-1.373291015625,0.8392333984375
7.529999900000001,2.4372973442077637,-9.509769439697266,-1.1563993692398071,1.2054443359375,-1.068115234375,1.1444091796875
7.5499999,2.4396915435791016,-9.50737476348877,-1.1468225717544556,1.068115234375,-0.8087158203125,0.701904296875
7.569999900000001,2.4372973442077637,-9.516951560974121,-1.1348515748977661,1.0833740234375,-1.0528564453125,0.701904296875
7.5899999000000005,2.4372973442077637,-9.521739959716797,-1.113303780555725,0.3662109375,-1.28173828125,0.67138671875
7.609999900000001,2.434903144836426,-9.524134635925293,-1.1061211824417114,-0.274658203125,-1.4190673828125,0.7781982421875
7.6299999000000005,2.43011474609375,-9.526528358459473,-1.0965443849563599,-0.1373291015625,-1.0833740234375,1.1749267578125
7.649999900000001,2.4229321479797363,-9.516951560974121,-1.1085153818130493,0.18310546875,-1.0833740234375,0.91552734375
7.6699999000000005,2.4181437492370605,-9.521739959716797,-1.0965443849563599,0.335693359375,-0.732421875,1.2664794921875
7.6899999,2.4133553504943848,-9.524134635925293,-1.1013327836990356,-0.1068115234375,-1.617431640625,1.007080078125
7.709999900000001,2.4133553504943848,-9.521739959716797,-1.1061211824417114,-0.18310546875,-2.044677734375,0.701904296875
7.7299999,2.408566951751709,-9.536105155944824,-1.1061211824417114,0.2288818359375,-0.6866455078125,1.312255859375
7.749999900000001,2.403778553009033,-9.531316757202148,-1.1204863786697388,0.762939453125,-0.457763671875,0.9307861328125
7.7699999,2.3989901542663574,-9.5408935546875,-1.1180921792984009,1.1444091796875,-1.15966796875,0.6561279296875
7.789999900000001,2.3965959548950195,-9.543288230895996,-1.1061211824417114,0.54931640625,-1.3427734375,0.701904296875
7.8099999,2.3918075561523438,-9.552865028381348,-1.0893617868423462,-2.105712890625,-1.52587890625,0.762939453125
7.829999900000001,2.389413356781006,-9.548076629638672,-1.0893617868423462,-2.4871826171875,-2.3651123046875,0.1678466796875
7.8499999,2.38462495803833,-9.548076629638672,-1.0989385843276978,-0.7781982421875,-1.89208984375,0.3204345703125
7.869999900000001,2.382230758666992,-9.545681953430176,-1.1300631761550903,1.373291015625,-0.7476806640625,0.6256103515625
7.8899999,2.382230758666992,-9.543288230895996,-1.1492167711257935,1.5716552734375,0.091552734375,0.274658203125
7.909999900000001,2.382230758666992,-9.555258750915527,-1.1540051698684692,0.9918212890625,-0.152587890625,-0.06103515625
7.9299999,2.382230758666992,-9.564835548400879,-1.137245774269104,0.4425048828125,-0.823974609375,-0.7781982421875
7.949999900000001,2.38462495803833,-9.567230224609375,-1.1085153818130493,-0.091552734375,-0.9765625,-1.0223388671875
7.9699999,2.389413356781006,-9.564835548400879,-1.0869675874710083,-0.18310546875,-1.2359619140625,-0.640869140625
7.989999900000001,2.3918075561523438,-9.548076629638672,-1.0749965906143188,0.457763671875,-1.922607421875,-0.396728515625
8.0099999,2.3942017555236816,-9.5408935546875,-1.0749965906143188,1.312255859375,-1.8768310546875,-0.2899169921875
8.0299999,2.3965959548950195,-9.53849983215332,-1.0797849893569946,1.1444091796875,-1.5411376953125,-0.5035400390625
8.049999900000001,2.3965959548950195,-9.543288230895996,-1.0965443849563599,0.7781982421875,-1.77001953125,-0.9765625
8.069999900000001,2.3989901542663574,-9.555258750915527,-1.1013327836990356,0.701904296875,-1.434326171875,-1.0986328125
8.0899999,2.3989901542663574,-9.555258750915527,-1.1204863786697388,-0.5340576171875,-1.40380859375,-1.40380859375
8.1099999,2.4013843536376953,-9.550470352172852,-1.1252747774124146,-0.18310546875,-0.7171630859375,-1.0833740234375
8.129999900000001,2.403778553009033,-9.552865028381348,-1.1324573755264282,-0.3509521484375,-0.18310546875,-0.6561279296875
8.149999900000001,2.406172752380371,-9.555258750915527,-1.1276689767837524,-0.640869140625,-0.30517578125,-1.52587890625
8.1699999,2.410961151123047,-9.550470352172852,-1.113303780555725,-0.6103515625,-0.152587890625,-2.349853515625
8.1899999,2.4133553504943848,-9.543288230895996,-1.1013327836990356,0.5950927734375,-0.9918212890625,-1.46484375
8.2099999,2.4205379486083984,-9.521739959716797,-1.0773907899856567,1.1749267578125,-0.8392333984375,-0.701904296875
8.229999900000001,2.425326347351074,-9.516951560974121,-1.0821791887283325,0.396728515625,-1.1138916015625,-0.4730224609375
8.2499999,2.43011474609375,-9.533711433410645,-1.0773907899856567,0.2288818359375,-0.701904296875,-1.6326904296875
8.2699999,2.43011474609375,-9.548076629638672,-1.0893617868423462,-0.0762939453125,-0.30517578125,-3.0059814453125
8.2899999,2.427720546722412,-9.591172218322754,-1.113303780555725,0.823974609375,-0.3662109375,-2.7008056640625
8.309999900000001,2.427720546722412,-9.588777542114258,-1.1109095811843872,1.3580322265625,0.518798828125,-3.631591796875
8.3299999,2.432508945465088,-9.579200744628906,-1.113303780555725,2.0294189453125,0.2288818359375,-4.2877197265625
8.3499999,2.4420857429504395,-9.586383819580078,-1.1037269830703735,2.3040771484375,-0.7476806640625,-2.8533935546875
8.3699999,2.4588451385498047,-9.567230224609375,-1.0845733880996704,1.3275146484375,0.06103515625,-4.57763671875
8.389999900000001,2.47560453414917,-9.579200744628906,-1.0869675874710083,1.068115234375,-0.0762939453125,-6.0577392578125
8.4099999,2.499546527862549,-9.550470352172852,-1.0749965906143188,1.983642578125,0.732421875,-6.195068359375
8.4299999,2.518700122833252,-9.552865028381348,-1.0606313943862915,2.6702880859375,0.4119873046875,-4.39453125
8.4499999,2.5450363159179688,-9.478644371032715,-1.0295066833496094,2.01416015625,-0.67138671875,-5.1727294921875
8.469999900000001,2.564189910888672,-9.473855972290039,-0.9983820915222168,1.4495849609375,-1.4801025390625,-3.631591796875
8.4899999,2.585737943649292,-9.428366661071777,-0.9864110946655273,0.3662109375,-1.6937255859375,-3.1890869140625
8.5099999,2.5977089405059814,-9.435548782348633,-0.9983820915222168,-0.030517578125,-0.7476806640625,-2.6702880859375
8.5299999,2.607285737991333,-9.457097053527832,-1.015141487121582,0.9307861328125,-0.1068115234375,-2.9144287109375
8.549999900000001,2.6144683361053467,-9.459490776062012,-1.036689281463623,1.434326171875,-0.2593994140625,-4.7607421875
8.569999900000001,2.6192567348480225,-9.461885452270508,-1.036689281463623,1.495361328125,-0.8544921875,-2.8839111328125
8.5899999,2.628833532333374,-9.44752025604248,-1.0319008827209473,-0.1373291015625,-0.579833984375,-0.8544921875
8.6099999,2.6408045291900635,-9.435548782348633,-1.015141487121582,-0.8087158203125,-0.2899169921875,-1.2054443359375
8.629999900000001,2.652775526046753,-9.435548782348633,-0.9983820915222168,0.30517578125,-0.8392333984375,-2.2735595703125
8.649999900000001,2.6599581241607666,-9.442731857299805,-0.9911994934082031,1.4190673828125,-1.7242431640625,-1.556396484375
8.6699999,2.6671407222747803,-9.423578262329102,-0.9888052940368652,0.701904296875,-1.3885498046875,-0.6103515625
8.6899999,2.6671407222747803,-9.409213066101074,-0.9983820915222168,0.091552734375,-0.8087158203125,0.91552734375
8.709999900000001,2.669534921646118,-9.39245319366455,-0.9983820915222168,0.06103515625,-0.7781982421875,1.5716552734375
8.729999900000001,2.6647465229034424,-9.402029991149902,-0.9911994934082031,0.274658203125,-1.5716552734375,1.4190673828125
8.7499999,2.6599581241607666,-9.437943458557129,-0.9864110946655273,0.3662109375,-2.2735595703125,1.40380859375
8.7699999,2.652775526046753,-9.464279174804688,-0.9792284965515137,-0.0152587890625,-1.739501953125,0.7171630859375
8.7899999,2.6455929279327393,-9.495404243469238,-0.9959878921508789,-0.1220703125,-1.4801025390625,0.762939453125
8.809999900000001,2.6384103298187256,-9.493009567260742,-1.0103530883789062,-0.457763671875,-1.251220703125,1.312255859375
8.8299999,2.63362193107605,-9.490615844726562,-1.0199298858642578,-0.42724609375,-1.220703125,2.0294189453125
8.8499999,2.628833532333374,-9.493009567260742,-1.0247182846069336,-0.640869140625,-1.220703125,1.953125
8.8699999,2.626439332962036,-9.495404243469238,-1.0079588890075684,-0.91552734375,-1.1749267578125,0.8392333984375
8.889999900000001,2.6192567348480225,-9.50498104095459,-1.0079588890075684,-1.0986328125,-1.9073486328125,0.579833984375
8.9099999,2.6168625354766846,-9.500192642211914,-0.9983820915222168,-1.1749267578125,-1.800537109375,1.068115234375
8.9299999,2.612074136734009,-9.478644371032715,-1.0055646896362305,-0.8544921875,-1.3427734375,1.6632080078125
8.9499999,2.609679937362671,-9.466673851013184,-1.015141487121582,-0.3509521484375,-1.4190673828125,2.471923828125
8.969999900000001,2.6024973392486572,-9.44991397857666,-1.01753568649292,-0.7781982421875,-1.434326171875,2.2430419921875
8.9899999,2.5953147411346436,-9.442731857299805,-1.01753568649292,-1.0528564453125,-1.800537109375,2.349853515625
9.0099999,2.585737943649292,-9.428366661071777,-1.0103530883789062,-1.1444091796875,-2.0599365234375,3.753662109375
9.0299999,2.5761611461639404,-9.423578262329102,-1.015141487121582,-1.5106201171875,-2.5482177734375,5.157470703125
9.049999900000001,2.564189910888672,-9.423578262329102,-1.0223240852355957,-1.2359619140625,-2.5177001953125,5.2490234375
9.069999900000001,2.5498247146606445,-9.454702377319336,-1.0247182846069336,-0.823974609375,-1.922607421875,4.9896240234375
9.0899999,2.5330653190612793,-9.488221168518066,-1.0319008827209473,-1.7547607421875,-2.7008056640625,4.4403076171875
9.1099999,2.5115175247192383,-9.533711433410645,-1.0342950820922852,-1.7242431640625,-3.448486328125,3.9520263671875
9.129999900000001,2.4899697303771973,-9.564835548400879,-1.0534487962722778,-1.5716552734375,-2.7618408203125,3.1890869140625
9.149999900000001,2.470816135406494,-9.588777542114258,-1.0654197931289673,-1.220703125,-1.922607421875,2.5787353515625
9.1699999,2.454056739807129,-9.59596061706543,-1.094150185585022,-0.8087158203125,-2.5787353515625,2.1514892578125
9.1899999,2.4444799423217773,-9.591172218322754,-1.0965443849563599,0,-2.4871826171875,1.7242431640625
9.209999900000001,2.4372973442077637,-9.583989143371582,-1.1037269830703735,-0.579833984375,-2.288818359375,1.6632080078125
9.229999900000001,2.434903144836426,-9.5624418258667,-1.0989385843276978,-0.4425048828125,-2.2430419921875,1.3427734375
9.2499999,2.427720546722412,-9.552865028381348,-1.1061211824417114,0.335693359375,-2.4261474609375,1.7852783203125
9.2699999,2.425326347351074,-9.53849983215332,-1.1085153818130493,0.6561279296875,-2.044677734375,1.617431640625
9.2899999,2.4229321479797363,-9.531316757202148,-1.1180921792984009,0.9765625,-1.40380859375,1.46484375
9.309999900000001,2.4181437492370605,-9.536105155944824,-1.1180921792984009,0.0762939453125,-0.91552734375,1.5716552734375
9.3299999,2.4133553504943848,-9.536105155944824,-1.1085153818130493,-1.007080078125,-1.2969970703125,1.220703125
9.3499999,2.403778553009033,-9.550470352172852,-1.091755986213684,-1.7547607421875,-1.8157958984375,1.220703125
9.3699999,2.3942017555236816,-9.548076629638672,-1.0821791887283325,-1.9989013671875,-2.1820068359375,0.640869140625
9.389999900000001,2.387019157409668,-9.557653427124023,-1.0845733880996704,-0.54931640625,-1.64794921875,0.6866455078125
9.4099999,2.382230758666992,-9.555258750915527,-1.091755986213684,0.8697509765625,-1.2664794921875,0.885009765625
9.4299999,2.382230758666992,-9.555258750915527,-1.1013327836990356,1.40380859375,-1.861572265625,0.6561279296875
9.4499999,2.382230758666992,-9.564835548400879,-1.1013327836990356,1.5411376953125,-1.953125,0.4730224609375
9.469999900000001,2.3798365592956543,-9.567230224609375,-1.0893617868423462,0.4119873046875,-1.739501953125,0.06103515625
9.4899999,2.3774423599243164,-9.569623947143555,-1.0893617868423462,0.152587890625,-2.3040771484375,-0.274658203125
9.5099999,2.3750481605529785,-9.567230224609375,-1.0821791887283325,0.213623046875,-2.2125244140625,-0.0762939453125
9.5299999,2.3774423599243164,-9.557653427124023,-1.0893617868423462,0.4119873046875,-2.1209716796875,-0.0762939453125
9.549999900000001,2.3774423599243164,-9.552865028381348,-1.094150185585022,0.5035400390625,-1.8768310546875,-0.335693359375
9.569999900000001,2.382230758666992,-9.545681953430176,-1.0989385843276978,-0.0152587890625,-1.861572265625,-0.457763671875
9.5899999,2.382230758666992,-9.543288230895996,-1.1013327836990356,0,-1.9989013671875,-0.3509521484375
9.6099999,2.382230758666992,-9.53849983215332,-1.094150185585022,0.5645751953125,-1.861572265625,-0.2593994140625
9.629999900000001,2.3798365592956543,-9.548076629638672,-1.094150185585022,0.91552734375,-2.1820068359375,-0.3509521484375
9.649999900000001,2.3774423599243164,-9.567230224609375,-1.0869675874710083,0.946044921875,-2.044677734375,-1.03759765625
9.6699999,2.3750481605529785,-9.588777542114258,-1.0749965906143188,0.5645751953125,-1.9683837890625,-2.197265625
9.6899999,2.3774423599243164,-9.607931137084961,-1.0630255937576294,1.4801025390625,-2.8533935546875,-2.7008056640625
9.709999900000001,2.3798365592956543,-9.600749015808105,-1.0534487962722778,2.50244140625,-3.6468505859375,-3.0364990234375
9.729999900000001,2.387019157409668,-9.583989143371582,-1.039083480834961,3.3111572265625,-3.5247802734375,-2.7008056640625
9.7499999,2.3965959548950195,-9.560047149658203,-1.0534487962722778,2.5177001953125,-3.692626953125,-2.4261474609375
9.7699999,2.408566951751709,-9.53849983215332,-1.0630255937576294,2.99072265625,-3.204345703125,-2.7008056640625
9.7899999,2.4205379486083984,-9.519346237182617,-1.091755986213684,2.8839111328125,-2.6092529296875,-2.685546875
9.809999900000001,2.4205379486083984,-9.512163162231445,-1.1085153818130493,2.1209716796875,-1.6937255859375,-1.8310546875
9.8299999,2.43011474609375,-9.495404243469238,-1.1204863786697388,0.946044921875,-0.7476806640625,-1.922607421875
9.8499999,2.425326347351074,-9.502586364746094,-1.1252747774124146,0.3814697265625,-0.42724609375,-1.434326171875
9.8699999,2.4396915435791016,-9.502586364746094,-1.1037269830703735,-0.152587890625,0.2288818359375,-1.708984375
9.889999900000001,2.454056739807129,-9.50498104095459,-1.0749965906143188,-0.2899169921875,-0.0152587890625,-1.708984375
9.9099999,2.470816135406494,-9.50498104095459,-1.05105459690094,-0.2288818359375,-0.4730224609375,-0.6256103515625
9.9299999,2.4803929328918457,-9.502586364746094,-1.0271124839782715,-0.396728515625,-0.06103515625,-0.0152587890625
9.9499999,2.4827871322631836,-9.502586364746094,-1.0247182846069336,-0.701904296875,0.396728515625,-0.213623046875
9.969999900000001,2.4803929328918457,-9.50737476348877,-1.0295066833496094,-0.213623046875,0.54931640625,-0.152587890625
9.9899999,2.477998733520508,-9.50737476348877,-1.039083480834961,-0.5340576171875,0.5035400390625,0
10.0099999,2.47560453414917,-9.509769439697266,-1.039083480834961,-1.312255859375,0.54931640625,0.579833984375
10.0299999,2.473210334777832,-9.514557838439941,-1.048660397529602,-1.7547607421875,0.518798828125,0.79345703125
10.049999900000001,2.4684219360351562,-9.536105155944824,-1.0534487962722778,-2.1209716796875,0.5950927734375,0.30517578125
10.069999900000001,2.4636335372924805,-9.557653427124023,-1.0534487962722778,-1.617431640625,1.3885498046875,-0.8544921875
10.0899999,2.456450939178467,-9.57201862335205,-1.0678139925003052,-1.1444091796875,0.9765625,-1.312255859375
10.1099999,2.454056739807129,-9.567230224609375,-1.0582371950149536,-1.3427734375,1.495361328125,-0.8544921875
10.129999900000001,2.4588451385498047,-9.543288230895996,-1.039083480834961,-1.89208984375,1.068115234375,-0.3662109375
10.149999900000001,2.4636335372924805,-9.524134635925293,-0.9983820915222168,-0.946044921875,-0.701904296875,0.152587890625
10.1699999,2.4684219360351562,-9.519346237182617,-1.0007762908935547,-0.5950927734375,-3.35693359375,0.1068115234375
10.1899999,2.4420857429504395,-9.512163162231445,-1.0223240852355957,-1.0986328125,-0.8544921875,-0.9918212890625
10.209999900000001,2.4396915435791016,-9.526528358459473,-1.0797849893569946,-1.6021728515625,3.7994384765625,-0.5340576171875
10.229999900000001,2.4157495498657227,-9.552865028381348,-1.0654197931289673,0.030517578125,4.669189453125,-0.2899169921875
10.2499999,2.454056739807129,-9.500192642211914,-1.0319008827209473,3.11279296875,-1.953125,-2.9144287109375
10.2699999,2.4899697303771973,-9.481039047241211,-0.9983820915222168,-1.3427734375,-6.34765625,1.434326171875
10.2899999,2.513911724090576,-9.425971984863281,-0.9983820915222168,-8.087158203125,-1.190185546875,4.82177734375
10.309999900000001,2.5115175247192383,-9.394847869873047,-1.1037269830703735,-13.671875,4.1351318359375,4.2724609375
10.3299999,2.473210334777832,-9.495404243469238,-1.1803414821624756,-7.7056884765625,6.317138671875,3.570556640625
10.3499999,2.456450939178467,-9.586383819580078,-1.1420341730117798,-6.256103515625,5.8441162109375,-0.6561279296875
10.3699999,2.3942017555236816,-10.11550235748291,-1.2665326595306396,-0.18310546875,-4.1351318359375,-5.0506591796875
10.389999900000001,2.2649147510528564,-11.75553035736084,-1.8339585065841675,-17.27294921875,2.8228759765625,-26.8707275390625
10.4099999,1.920149803161621,-15.27979564666748,-2.6001031398773193,-77.3162841796875,51.0406494140625,-114.5477294921875
10.4299999,1.5298948287963867,-19.235015869140625,-3.0526070594787598,-60.211181640625,102.2491455078125,-282.77587890625
10.4499999,1.2449848651885986,-24.504653930664062,-4.355052947998047,-22.7203369140625,24.658203125,-351.6082763671875
10.469999900000001,0.6751648783683777,-27.238832473754883,-4.896142482757568,-33.0352783203125,46.2646484375,-370.9259033203125
10.4899999,0.040701430290937424,-26.417621612548828,-5.566518783569336,82.21435546875,140.4266357421875,-462.8143310546875
10.5099999,-0.7445967197418213,-21.13361930847168,-6.124367713928223,122.6654052734375,109.2071533203125,-493.5455322265625
10.5299999,-1.4532804489135742,-11.152191162109375,-5.384559631347656,45.3948974609375,86.3494873046875,-404.3731689453125
10.549999900000001,-1.280897855758667,0.5267243981361389,-1.4700398445129395,76.7364501953125,165.740966796875,-226.9134521484375
10.569999900000001,-1.4053963422775269,11.006145477294922,4.685452938079834,37.1856689453125,23.3306884765625,-90.1336669921875
10.5899999,-1.7956513166427612,18.878280639648438,11.192893028259277,-30.6549072265625,-342.041015625,-35.64453125
10.6099999,-3.7924153804779053,22.895750045776367,14.518439292907715,-59.50927734375,-500,89.4927978515625
10.629999900000001,-6.552929878234863,21.878215789794922,9.045293807983398,-51.971435546875,-500,379.8370361328125
10.649999900000001,-7.977479934692383,13.51766300201416,-5.006275653839111,-302.24609375,-347.5494384765625,499.9847412109375
10.6699999,-7.627926826477051,-1.6663644313812256,-20.76251792907715,-373.5809326171875,293.121337890625,495.0714111328125
10.6899999,-5.544970989227295,-18.004396438598633,-31.852458953857422,101.806640625,499.9847412109375,-39.4744873046875
10.709999900000001,-3.0334534645080566,-29.259538650512695,-34.35679626464844,274.96337890625,499.9847412109375,-431.243896484375
10.729999900000001,-1.5131354331970215,-30.037654876708984,-27.171794891357422,97.076416015625,425.9490966796875,-391.6168212890625
10.7499999,-1.1468225717544556,-20.42254066467285,-14.951789855957031,104.3548583984375,462.2344970703125,-207.9010009765625
10.7699999,-0.7852981686592102,-6.088454723358154,0.12928688526153564,238.128662109375,431.9000244140625,-102.8900146484375
10.7899999,-0.6631938815116882,5.858611583709717,13.582305908203125,179.473876953125,-15.3961181640625,72.08251953125
10.809999900000001,-0.7876923680305481,14.676456451416016,23.975536346435547,-111.2213134765625,-410.552978515625,89.9200439453125
10.8299999,-2.166752576828003,18.258182525634766,26.252422332763672,-164.9169921875,-500,102.1270751953125
10.8499999,-3.8139634132385254,16.486473083496094,17.84638023376465,-223.0224609375,-500,343.1854248046875
10.8699999,-4.10366153717041,8.798690795898438,1.3766659498214722,-495.1324462890625,-390.106201171875,499.9847412109375
10.889999900000001,-3.0573954582214355,-1.5514427423477173,-15.804125785827637,-228.912353515625,204.9713134765625,304.0618896484375
10.9099999,0.07182604819536209,-14.551958084106445,-28.48142433166504,116.1651611328125,499.9847412109375,-19.7601318359375
10.9299999,2.913743495941162,-22.711397171020508,-31.35685920715332,44.4488525390625,455.322265625,-226.1505126953125
10.9499999,4.4939165115356445,-22.78561782836914,-26.080039978027344,82.45849609375,356.597900390625,-356.99462890625
10.969999900000001,4.991910457611084,-14.808137893676758,-15.483302116394043,132.5836181640625,449.3560791015625,-281.18896484375
10.9899999,4.707000732421875,-2.9305028915405273,-2.580949544906616,294.952392578125,388.85498046875,21.42333984375
11.0099999,4.022258758544922,8.762778282165527,9.08838939666748,258.331298828125,22.064208984375,164.97802734375
11.0299999,3.1292216777801514,15.653290748596191,17.657238006591797,-59.0667724609375,-273.1781005859375,133.331298828125
11.049999900000001,1.290474772453308,17.044321060180664,20.398597717285156,-96.6644287109375,-466.094970703125,143.1732177734375
11.069999900000001,-0.8571242094039917,14.712369918823242,14.951789855957031,-147.1710205078125,-500,278.3355712890625
11.0899999,-2.499546527862549,9.294290542602539,2.801215887069702,-495.9259033203125,-500,418.3197021484375
11.1099999,-2.6886885166168213,2.1978771686553955,-10.596736907958984,-366.973876953125,-46.2646484375,345.245361328125
11.129999900000001,-1.5658079385757446,-4.680664539337158,-20.578163146972656,120.2392578125,318.5272216796875,113.1439208984375
11.149999900000001,0.35913026332855225,-8.281543731689453,-23.020248413085938,412.3992919921875,335.2203369140625,-62.7288818359375
11.1699999,2.252943754196167,-8.702922821044922,-17.274166107177734,296.56982421875,173.5076904296875,0.9002685546875
11.1899999,3.4620156288146973,-6.315904140472412,-8.875306129455566,162.17041015625,-37.3382568359375,176.605224609375
11.209999900000001,4.637568473815918,-4.259284973144531,-1.3718775510787964,201.446533203125,-54.99267578125,130.2490234375
11.229999900000001,6.112396717071533,-4.884171485900879,3.361459255218506,160.09521484375,49.591064453125,87.432861328125
11.2499999,7.91283655166626,-9.155426979064941,4.630385875701904,80.3375244140625,59.722900390625,18.035888671875
11.2699999,9.50498104095459,-12.691662788391113,4.101267337799072,-119.4610595703125,51.6357421875,-230.3619384765625
11.2899999,10.800244331359863,-16.081851959228516,1.6927006244659424,-325.469970703125,67.9168701171875,-243.560791015625
11.309999900000001,11.109095573425293,-15.67962646484375,-1.6879122257232666,-243.0877685546875,96.74072265625,-175.2166748046875
11.3299999,10.864887237548828,-13.211204528808594,-4.831499099731445,103.3935546875,142.822265625,-126.3885498046875
11.3499999,10.582371711730957,-8.669404029846191,-6.282385349273682,342.34619140625,110.870361328125,-108.5662841796875
11.3699999,10.177751541137695,-4.292803764343262,-5.279214859008789,372.0703125,34.60693359375,-44.3267822265625
11.389999900000001,9.909601211547852,-0.17477671802043915,-2.8419175148010254,216.3238525390625,-20.3857421875,47.6226806640625
11.4099999,9.5408935546875,2.8443117141723633,0.4572925269603729,72.0062255859375,52.154541015625,59.234619140625
11.4299999,8.858546257019043,4.371812343597412,3.442862033843994,-29.266357421875,43.8690185546875,65.36865234375
11.4499999,7.42681360244751,4.106055736541748,5.420472621917725,-208.8470458984375,54.473876953125,161.0870361328125
11.469999900000001,5.305551052093506,1.5490485429763794,5.95677375793457,-343.6279296875,16.0369873046875,269.6380615234375
11.4899999,2.7030537128448486,-3.5386300086975098,4.726154327392578,-345.855712890625,-60.8673095703125,234.2376708984375
11.5099999,0.21787235140800476,-10.469843864440918,1.8124107122421265,-273.5595703125,-57.55615234375,58.929443359375
11.5299999,-1.3886369466781616,-17.154455184936523,-2.1380221843719482,-17.6849365234375,-81.72607421875,-121.7041015625
11.549999900000001,-1.5705963373184204,-21.361066818237305,-6.358999729156494,209.564208984375,-140.56396484375,-217.6513671875
11.569999900000001,-0.047884032130241394,-20.867862701416016,-10.508151054382324,264.007568359375,-147.369384765625,-270.721435546875
11.5899999,2.9520506858825684,-15.835249900817871,-13.127408027648926,371.64306640625,-49.3316650390625,-309.7076416015625
11.6099999,7.271190643310547,-7.572859764099121,-14.051569938659668,422.3175048828125,19.317626953125,-295.4559326171875
11.629999900000001,11.587936401367188,1.2976573705673218,-12.866439819335938,319.610595703125,50.750732421875,-194.64111328125
11.649999900000001,15.10262393951416,8.710105895996094,-9.804255485534668,246.3836669921875,89.385986328125,-70.80078125
11.6699999,16.711528778076172,13.455413818359375,-5.738901615142822,246.917724609375,84.136962890625,30.364990234375
11.6899999,16.304513931274414,15.10262393951416,-1.4891934394836426,183.135986328125,62.835693359375,115.966796875
11.709999900000001,14.427459716796875,14.238317489624023,2.4612393379211426,76.11083984375,77.728271484375,179.2755126953125
11.729999900000001,11.765107154846191,11.473014831542969,5.863399982452393,-5.9356689453125,124.8321533203125,214.0960693359375
11.7499999,8.81784439086914,7.362170219421387,8.62391471862793,-73.5931396484375,180.6182861328125,260.0860595703125
11.7699999,5.530605792999268,2.274491548538208,10.158597946166992,-218.0938720703125,193.878173828125,312.9730224609375
11.7899999,1.845929503440857,-3.9671921730041504,10.125079154968262,-417.8314208984375,184.8907470703125,294.4183349609375
11.809999900000001,-1.9943699836730957,-11.374852180480957,8.044517517089844,-498.2757568359375,126.64794921875,177.3681640625
11.8299999,-5.137956619262695,-19.254169464111328,4.094084739685059,-387.725830078125,16.0064697265625,3.7841796875
11.8499999,-6.821080684661865,-25.45993995666504,-1.0319008827209473,55.419921875,-116.7755126953125,-153.839111328125
11.8699999,-6.586448669433594,-28.352136611938477,-6.224924564361572,297.1038818359375,-194.27490234375,-222.3052978515625
11.889999900000001,-4.438849925994873,-26.06806755065918,-10.836156845092773,256.683349609375,-182.55615234375,-286.285400390625
11.9099999,-1.1013327836990356,-19.359514236450195,-13.84566879272461,244.7662353515625,-84.1827392578125,-373.321533203125
11.9299999,2.583343744277954,-10.374075889587402,-14.90869426727295,276.519775390625,36.4837646484375,-406.7535400390625
11.9499999,6.100425720214844,-1.0103530883789062,-13.991714477539062,255.5389404296875,82.0770263671875,-318.389892578125
11.969999900000001,8.609549522399902,6.540958881378174,-11.202469825744629,256.5765380859375,74.15771484375,-152.984619140625
11.9899999,9.84495735168457,11.829751014709473,-7.582436561584473,221.3287353515625,67.901611328125,-69.7174072265625
12.0099999,9.93354320526123,14.906299591064453,-3.7660791873931885,158.935546875,64.2242431640625,-38.9251708984375
12.0299999,9.174580574035645,16.02678680419922,-0.026336219161748886,109.375,41.44287109375,44.2047119140625
12.049999900000001,8.17141056060791,15.605406761169434,3.428496837615967,36.8804931640625,-1.9989013671875,144.256591796875
12.069999900000001,7.436390399932861,13.891158103942871,6.421248912811279,-56.1370849609375,-38.665771484375,203.2470703125
12.0899999,7.158663272857666,10.927136421203613,8.643068313598633,-164.642333984375,-33.905029296875,242.156982421875
12.1099999,6.995857238769531,6.430825710296631,9.718064308166504,-275.421142578125,-2.5177001953125,331.4361572265625
12.129999900000001,6.473921298980713,0.524330198764801,9.138668060302734,-402.3590087890625,11.810302734375,432.281494140625
12.149999900000001,5.082890033721924,-6.98628044128418,6.845022678375244,-496.246337890625,33.355712890625,384.7808837890625
12.1699999,2.985569477081299,-15.612588882446289,3.112462282180786,-465.4998779296875,70.3887939453125,185.8367919921875
12.1899999,0.9385270476341248,-23.721750259399414,-1.37906014919281,-217.1478271484375,65.9942626953125,-57.220458984375
12.209999900000001,-0.3663128614425659,-29.266721725463867,-5.705382823944092,95.733642578125,7.354736328125,-183.65478515625
12.229999900000001,-0.5841852426528931,-30.68648338317871,-8.975862503051758,249.4049072265625,-28.25927734375,-203.1402587890625
12.2499999,0.05746084079146385,-27.28671646118164,-10.833763122558594,300.018310546875,-17.9901123046875,-235.3057861328125
12.2699999,1.1683704853057861,-20.084957122802734,-11.18092155456543,350.9674072265625,7.6904296875,-287.7044677734375
12.289999900000002,2.5258827209472656,-11.049241065979004,-10.290278434753418,360.4278564453125,45.928955078125,-306.1676025390625
12.309999900000001,3.7708675861358643,-2.31758713722229,-8.219294548034668,346.588134765625,102.05078125,-313.1561279296875
12.3299999,4.879383087158203,4.953603267669678,-5.655104637145996,298.7213134765625,93.719482421875,-255.37109375
12.3499999,5.758055210113525,10.182539939880371,-3.0310592651367188,259.307861328125,33.0657958984375,-111.9842529296875
12.3699999,6.44279670715332,13.694833755493164,-0.6488286852836609,243.896484375,18.9666748046875,-16.2506103515625
12.389999900000001,6.828263282775879,15.674838066101074,1.3838485479354858,176.483154296875,49.713134765625,55.389404296875
12.4099999,7.232883453369141,16.47210693359375,3.095702886581421,66.5435791015625,35.0494384765625,113.1134033203125
12.4299999,7.55131196975708,15.780183792114258,4.742913722991943,-30.426025390625,4.486083984375,132.415771484375
12.4499999,7.951143741607666,13.673285484313965,6.236895561218262,-123.71826171875,2.0904541015625,175.9796142578125
12.469999900000001,8.097189903259277,10.077195167541504,7.261613845825195,-255.92041015625,11.8560791015625,286.651611328125
12.4899999,7.601590633392334,4.9152960777282715,7.457938194274902,-427.581787109375,1.4495849609375,406.31103515625
12.5099999,6.210559368133545,-2.145204782485962,6.287173748016357,-496.2615966796875,-18.707275390625,383.2855224609375
12.5299999,4.443638324737549,-10.81460952758789,3.7660791873931885,-498.5504150390625,16.021728515625,149.0936279296875
12.549999900000001,2.896984100341797,-19.462465286254883,0.090979665517807,-386.7645263671875,57.5408935546875,-107.1929931640625
12.569999900000001,2.190694570541382,-25.94117546081543,-3.883395195007324,-83.67919921875,51.727294921875,-149.0478515625
12.5899999,2.315192937850952,-28.414384841918945,-7.0557122230529785,123.3978271484375,16.6778564453125,-123.565673828125
12.6099999,2.6815059185028076,-26.199748992919922,-8.89685344696045,227.0355224609375,14.4195556640625,-152.89306640625
12.629999900000001,2.8395233154296875,-20.48239517211914,-9.153033256530762,251.434326171875,42.1295166015625,-184.26513671875
12.649999900000001,2.7748796939849854,-13.081917762756348,-8.10437297821045,252.86865234375,46.0205078125,-188.3544921875
12.6699999,2.5905263423919678,-5.588066577911377,-6.248866558074951,262.39013671875,34.3170166015625,-169.158935546875
12.6899999,2.432508945465088,0.7469909191131592,-4.0964789390563965,244.4305419921875,25.054931640625,-127.0751953125
12.709999900000001,2.674323320388794,5.602431774139404,-2.051830768585205,215.0115966796875,-2.9144287109375,-88.1500244140625
12.729999900000001,3.5194764137268066,9.026140213012695,-0.29209262132644653,178.7109375,-36.92626953125,-78.6895751953125
12.7499999,4.963180065155029,11.355698585510254,1.094150185585022,112.3809814453125,-41.6412353515625,-93.048095703125
12.7699999,6.92881965637207,12.746729850769043,2.185906171798706,36.468505859375,-34.4696044921875,-59.5855712890625
12.789999900000002,8.968679428100586,13.151350021362305,3.1076738834381104,-32.3486328125,-66.5283203125,33.538818359375
12.809999900000001,10.718840599060059,12.303802490234375,4.017470359802246,-101.6998291015625,-94.2840576171875,117.24853515625
12.8299999,12.162544250488281,10.108319282531738,4.752490520477295,-181.304931640625,-115.0054931640625,186.492919921875
12.8499999,13.201627731323242,6.596025466918945,5.003881454467773,-280.8990478515625,-119.9951171875,275.8331298828125
12.8699999,13.57751750946045,1.7741034030914307,4.4508209228515625,-404.144287109375,-70.2667236328125,352.7984619140625
12.889999900000001,13.141773223876953,-4.390965938568115,2.7485435009002686,-496.7193603515625,15.2740478515625,336.3037109375
12.9099999,11.6430025100708,-11.647790908813477,-0.05027823522686958,-497.9400634765625,135.894775390625,212.09716796875
12.9299999,9.229647636413574,-19.053056716918945,-3.404554843902588,-408.2794189453125,223.785400390625,77.301025390625
12.9499999,6.356605529785156,-25.129541397094727,-6.531382083892822,-123.626708984375,202.57568359375,-40.1611328125
12.969999900000001,3.4787750244140625,-28.388050079345703,-8.760383605957031,71.8994140625,147.2015380859375,-154.022216796875
12.9899999,0.8738836050033569,-28.033708572387695,-9.888052940368652,149.2919921875,95.6268310546875,-224.395751953125
13.0099999,-1.335964560508728,-24.10961151123047,-10.460267066955566,180.908203125,61.5997314453125,-258.5296630859375
13.0299999,-3.045424461364746,-17.283742904663086,-11.1474027633667,225.2197265625,38.970947265625,-277.496337890625
13.049999900000001,-3.641580820083618,-8.482656478881836,-12.169727325439453,315.887451171875,24.261474609375,-267.6239013671875
13.069999900000001,-3.1052796840667725,0.49559974670410156,-13.06755256652832,371.9482421875,18.1427001953125,-192.901611328125
13.0899999,-0.912190854549408,8.564059257507324,-13.297396659851074,307.037353515625,-10.2386474609375,-131.317138671875
13.1099999,2.7700912952423096,14.513650894165039,-12.354081153869629,215.484619140625,-25.4974365234375,-127.4871826171875
13.129999900000001,7.046135425567627,18.006790161132812,-10.192116737365723,172.1343994140625,-11.1541748046875,-97.16796875
13.149999900000001,10.991780281066895,19.45528221130371,-7.101202011108398,128.8299560546875,7.75146484375,-4.913330078125
13.1699999,13.922283172607422,19.33078384399414,-3.3901896476745605,33.50830078125,-31.036376953125,81.268310546875
13.1899999,15.538369178771973,17.841590881347656,0.42616790533065796,-87.09716796875,-98.1292724609375,126.5869140625
13.209999900000001,16.060304641723633,15.06910514831543,3.5745432376861572,-231.292724609375,-135.894775390625,166.3818359375
13.229999900000001,16.000450134277344,11.063606262207031,5.360617637634277,-362.030029296875,-124.786376953125,235.4736328125
13.2499999,15.30373764038086,5.7341132164001465,5.398924827575684,-417.816162109375,-79.7882080078125,339.66064453125
13.2699999,13.69962215423584,-0.6512228846549988,3.73016619682312,-408.0810546875,2.5634765625,422.7294921875
13.289999900000002,10.773907661437988,-8.018181800842285,0.6057330369949341,-426.4068603515625,151.336669921875,390.9454345703125
13.309999900000001,6.191405773162842,-15.98129653930664,-3.4811692237854004,-465.6982421875,275.8941650390625,250.579833984375
13.3299999,0.5961562395095825,-23.412899017333984,-8.063671112060547,-333.4503173828125,261.5814208984375,114.2730712890625
13.3499999,-4.862623691558838,-28.392837524414062,-12.234370231628418,28.045654296875,102.0660400390625,5.4168701171875
13.3699999,-8.7268648147583,-29.434316635131836,-15.181632995605469,384.9029541015625,-53.497314453125,-96.435546875
13.389999900000001,-9.260771751403809,-24.614788055419922,-16.824054718017578,460.662841796875,-131.5155029296875,-170.6695556640625
13.4099999,-6.217741966247559,-15.042769432067871,-16.438589096069336,446.77734375,-44.342041015625,-174.0570068359375
13.4299999,-0.5123591423034668,-3.9049429893493652,-14.089877128601074,401.06201171875,107.8338623046875,-162.78076171875
13.4499999,6.27280855178833,6.53377628326416,-10.649409294128418,232.391357421875,73.2574462890625,-264.312744140625
13.469999900000001,12.02607536315918,13.563152313232422,-6.67982292175293,21.0113525390625,58.3343505859375,-281.097412109375
13.4899999,15.579070091247559,17.037139892578125,-3.4332852363586426,-11.8255615234375,70.220947265625,-125.396728515625
13.5099999,17.164031982421875,18.557456970214844,-1.6831238269805908,16.082763671875,45.745849609375,-4.974365234375
13.5299999,16.697162628173828,18.270153045654297,-0.5578489899635315,21.820068359375,79.7271728515625,12.9547119140625
13.549999900000001,14.930241584777832,16.929399490356445,0.43335050344467163,-11.23046875,73.7762451171875,38.5894775390625
13.569999900000001,12.284648895263672,14.427459716796875,1.9512743949890137,-64.88037109375,27.9388427734375,127.227783203125
13.5899999,9.107542991638184,10.984597206115723,3.869029998779297,-119.049072265625,-3.997802734375,189.14794921875
13.6099999,6.299144744873047,6.888118267059326,5.427655220031738,-233.58154296875,-43.121337890625,201.1566162109375
13.629999900000001,4.335899353027344,2.4851813316345215,5.963956356048584,-394.3023681640625,-69.580078125,196.746826171875
13.649999900000001,3.332728862762451,-2.2457611560821533,5.1810526847839355,-444.3511962890625,-52.947998046875,212.1734619140625
13.6699999,3.2106244564056396,-7.474697589874268,3.292027235031128,-325.5157470703125,-29.510498046875,212.371826171875
13.6899999,3.550601005554199,-13.084312438964844,0.6967126727104187,-260.0250244140625,1.495361328125,129.150390625
13.709999900000001,3.909731388092041,-18.722658157348633,-2.2385785579681396,-294.708251953125,80.8868408203125,-16.998291015625
13.729999900000001,3.9600095748901367,-23.561338424682617,-5.355829238891602,-248.9166259765625,133.60595703125,-87.860107421875
13.7499999,3.4380736351013184,-26.566062927246094,-8.44434928894043,-84.3353271484375,117.8741455078125,-66.4215087890625
13.7699999,2.3247697353363037,-26.949134826660156,-10.994174003601074,104.1412353515625,74.2645263671875,-82.550048828125
13.789999900000002,0.9265560507774353,-24.274810791015625,-12.51209831237793,215.9576416015625,42.96875,-153.564453125
13.809999900000001,-0.15562310814857483,-18.564640045166016,-12.914323806762695,271.5606689453125,22.88818359375,-231.201171875
13.8299999,-0.2513911724090576,-10.247182846069336,-12.60547161102295,298.4161376953125,19.500732421875,-251.312255859375
13.8499999,0.9169792532920837,-0.9720458984375,-11.611878395080566,379.150390625,38.3758544921875,-180.60302734375
13.8699999,3.0597896575927734,7.649474620819092,-10.141838073730469,397.3388671875,38.8336181640625,-114.990234375
13.889999900000001,5.808333396911621,14.03959846496582,-8.109161376953125,256.744384765625,6.4544677734375,-120.3155517578125
13.9099999,8.24084186553955,17.36993408203125,-5.767632007598877,119.7357177734375,-5.523681640625,-158.0352783203125
13.9299999,10.44350814819336,18.72026252746582,-3.7277719974517822,95.1080322265625,-25.909423828125,-138.2598876953125
13.9499999,11.91354751586914,18.48084259033203,-1.534683346748352,161.07177734375,-10.2996826171875,-79.4677734375
13.969999900000001,12.808979034423828,17.357961654663086,0.849941611289978,144.317626953125,-5.7525634765625,23.74267578125
13.9899999,13.182474136352539,15.334861755371094,3.7684733867645264,6.683349609375,-51.1932373046875,138.12255859375
14.0099999,12.957419395446777,11.975796699523926,6.9455790519714355,-136.627197265625,-73.455810546875,209.8236083984375
14.0299999,12.38759994506836,7.252037048339844,9.102754592895508,-334.6405029296875,-113.494873046875,263.3819580078125
14.049999900000001,11.81299114227295,1.192312479019165,8.875306129455566,-497.5433349609375,-178.7567138671875,253.11279296875
14.069999900000001,11.791443824768066,-6.406883716583252,5.564124584197998,-498.5809326171875,-116.4093017578125,145.7061767578125
14.0899999,12.1194486618042,-14.449007034301758,0.014365210197865963,-437.5,81.9091796875,72.7386474609375
14.1099999,12.021286964416504,-21.085735321044922,-6.023811340332031,102.23388671875,169.4183349609375,29.0069580078125
14.129999900000001,11.171344757080078,-24.763227462768555,-10.589553833007812,266.7236328125,152.03857421875,-82.366943359375
14.149999900000001,8.853757858276367,-24.222139358520508,-12.67250919342041,203.765869140625,118.6981201171875,-191.3299560546875
14.1699999,5.638344764709473,-19.603723526000977,-12.904747009277344,186.0504150390625,110.076904296875,-228.729248046875
14.1899999,2.477998733520508,-12.054805755615234,-12.385205268859863,241.943359375,141.0369873046875,-211.4410400390625
14.209999900000001,0.1149216815829277,-3.44765043258667,-11.554417610168457,361.3739013671875,158.4014892578125,-189.88037109375
14.229999900000001,-1.2401964664459229,4.649539470672607,-10.508151054382324,387.3748779296875,137.542724609375,-172.9583740234375
14.2499999,-1.6160861253738403,10.967838287353516,-9.155426979064941,269.775390625,127.777099609375,-138.00048828125
14.2699999,-1.3479355573654175,14.5806884765625,-7.283161640167236,242.767333984375,137.63427734375,-37.3992919921875
14.289999900000002,-0.8619126081466675,15.907075881958008,-5.035006046295166,308.380126953125,58.4869384765625,98.541259765625
14.309999900000001,-0.42616790533065796,15.583858489990234,-2.3056161403656006,262.115478515625,-8.8958740234375,169.097900390625
14.3299999,0.043095629662275314,14.324508666992188,1.0773907899856567,189.1937255859375,-64.6514892578125,200.6378173828125
14.3499999,0.5363011956214905,12.595894813537598,4.72376012802124,99.2279052734375,-119.68994140625,263.153076171875
14.3699999,1.0965443849563599,10.141838073730469,7.829039573669434,-120.758056640625,-146.1029052734375,319.76318359375
14.389999900000001,2.1595699787139893,6.4164605140686035,8.777143478393555,-481.109619140625,-241.3482666015625,256.3323974609375
14.4099999,5.116408824920654,1.8387469053268433,5.147533416748047,-500,-335.8612060546875,-28.5797119140625
14.4299999,12.0021333694458,-4.072536945343018,-2.6599581241607666,-500,-255.1422119140625,-241.39404296875
14.4499999,20.207061767578125,-10.309432983398438,-12.078747749328613,-245.6207275390625,-100.4486083984375,-113.0218505859375
14.469999900000001,27.904420852661133,-14.056358337402344,-20.796035766601562,351.7303466796875,86.273193359375,74.798583984375
14.4899999,30.851682662963867,-15.500061988830566,-24.748863220214844,387.481689453125,349.945068359375,-57.06787109375
14.5099999,27.301082611083984,-13.249512672424316,-24.044967651367188,323.91357421875,472.7935791015625,-164.9322509765625
14.5299999,19.19192123413086,-8.370129585266113,-20.068199157714844,286.8194580078125,429.046630859375,-175.445556640625
14.549999900000001,9.26795482635498,-2.7485435009002686,-14.487314224243164,273.49853515625,379.852294921875,-133.819580078125
14.569999900000001,-0.1604115068912506,2.2697031497955322,-8.633491516113281,277.4200439453125,387.5732421875,-59.173583984375
14.5899999,-7.824251174926758,6.277596950531006,-3.3494882583618164,275.146484375,313.323974609375,-9.368896484375
14.6099999,-13.21359920501709,8.832210540771484,1.161187767982483,221.3287353515625,132.2479248046875,2.4261474609375
14.629999900000001,-15.990873336791992,9.923966407775879,4.60165548324585,79.833984375,-46.5240478515625,4.180908203125
14.649999900000001,-15.763423919677734,9.952696800231934,6.828263282775879,-46.81396484375,-192.047119140625,53.558349609375
14.6699999,-11.848904609680176,8.87291145324707,7.295132637023926,-123.1689453125,-379.9591064453125,198.4100341796875
14.6899999,-2.691082715988159,7.175422668457031,5.272032260894775,-338.56201171875,-500,201.629638671875
14.709999900000001,11.858481407165527,4.434061527252197,0.7924807667732239,-500,-416.6107177734375,-64.178466796875
14.729999900000001,27.71527862548828,0.9983820915222168,-4.158728122711182,-211.60888671875,-88.836669921875,-165.8935546875
14.7499999,40.181888580322266,-2.1547815799713135,-8.300697326660156,177.06298828125,152.7252197265625,-88.2415771484375
14.7699999,44.64946746826172,-4.558559894561768,-9.718064308166504,180.7861328125,288.63525390625,-63.0340576171875
14.789999900000002,39.73417282104492,-5.078101634979248,-8.396465301513672,128.692626953125,314.4073486328125,-77.301025390625
14.809999900000001,28.651411056518555,-4.077325344085693,-5.681440830230713,118.7896728515625,289.398193359375,-51.025390625
14.8299999,15.808914184570312,-2.33913516998291,-2.8850131034851074,99.609375,289.3524169921875,-24.8260498046875
14.8499999,4.153939723968506,-0.706289529800415,-0.6177040338516235,107.4371337890625,283.2489013671875,-31.06689453125
14.8699999,-4.759673118591309,0.5027823448181152,0.9768342971801758,141.5863037109375,246.795654296875,-27.4658203125
14.889999900000001,-10.613495826721191,1.2737152576446533,2.142810583114624,148.62060546875,180.5267333984375,-17.730712890625
14.9099999,-13.433865547180176,1.9081788063049316,3.6559460163116455,174.346923828125,66.8182373046875,-18.3868408203125
14.9299999,-12.78503704071045,3.157952070236206,5.791574001312256,243.743896484375,-134.1400146484375,61.309814453125
14.9499999,-7.556100368499756,5.75326681137085,7.838616371154785,269.439697265625,-357.48291015625,277.9388427734375
14.969999900000001,1.8411411046981812,8.360552787780762,8.899248123168945,-1.8310546875,-466.156005859375,404.3426513671875
14.9899999,14.688426971435547,9.804255485534668,7.029376029968262,-491.5618896484375,-361.1602783203125,242.950439453125
15.0099999,27.269956588745117,8.02536392211914,2.964021682739258,-447.540283203125,-82.6416015625,126.007080078125
15.0299999,35.12772750854492,4.039018154144287,-2.849100112915039,-107.11669921875,227.3101806640625,225.7537841796875
15.049999900000001,36.32722091674805,-0.6727706789970398,-8.219294548034668,10.7879638671875,395.6756591796875,184.2193603515625
15.069999900000001,30.01850128173828,-3.60566782951355,-11.70046329498291,17.1051025390625,458.5418701171875,79.9560546875
15.0899999,19.038692474365234,-4.108449935913086,-12.916718482971191,40.435791015625,493.377685546875,50.9490966796875
15.1099999,6.830657482147217,-3.0406360626220703,-12.198457717895508,53.3905029296875,444.366455078125,32.9742431640625
15.129999900000001,-3.6727054119110107,-1.702277421951294,-10.132261276245117,70.2972412109375,339.935302734375,13.61083984375
15.149999900000001,-10.833763122558594,-0.7326257228851318,-7.570465564727783,102.7374267578125,229.3548583984375,0.7476806640625
15.1699999,-14.401123046875,-0.3208230137825012,-5.135562419891357,112.2283935546875,135.9405517578125,-54.901123046875
15.1899999,-15.155296325683594,-0.272938996553421,-3.098097085952759,107.1929931640625,68.756103515625,-119.9188232421875
15.209999900000001,-14.099453926086426,-0.27054479718208313,-1.4939818382263184,132.659912109375,-4.7149658203125,-153.778076171875
15.229999900000001,-12.24155330657959,-0.11252748221158981,0.181959331035614,190.2618408203125,-71.136474609375,-163.3758544921875
15.2499999,-10.144232749938965,0.5051765441894531,2.5929205417633057,278.6712646484375,-152.9693603515625,-157.77587890625
15.2699999,-7.582436561584473,2.207453966140747,5.999869346618652,308.28857421875,-274.444580078125,-88.8671875
15.289999900000002,-3.6080620288848877,5.006275653839111,10.192116737365723,229.6295166015625,-444.6563720703125,88.0279541015625
15.309999900000001,1.5634137392044067,7.340622425079346,13.455413818359375,89.29443359375,-500,424.560546875
15.3299999,8.944737434387207,9.224859237670898,12.722787857055664,-231.0791015625,-500,499.9847412109375
15.3499999,17.709909439086914,7.354987621307373,8.164227485656738,-495.1324462890625,-500,499.9847412109375
15.3699999,25.498249053955078,2.145204782485962,-0.4908113479614258,-495.1324462890625,-324.249267578125,499.9847412109375
15.389999900000001,30.32016944885254,-3.665522813796997,-10.163386344909668,-185.791015625,52.79541015625,284.0576171875
15.4099999,30.32735252380371,-9.349357604980469,-17.053897857666016,169.0673828125,316.3909912109375,18.585205078125
15.4299999,24.49028968811035,-10.165780067443848,-19.661184310913086,231.3232421875,392.913818359375,-107.7117919921875
15.4499999,15.298949241638184,-8.291120529174805,-17.657238006591797,110.5194091796875,445.12939453125,-241.424560546875
15.469999900000001,6.143521785736084,-3.9887399673461914,-12.480973243713379,23.7274169921875,423.2330322265625,-290.2069091796875
15.4899999,-1.8052281141281128,-0.17238251864910126,-6.631938934326172,75.469970703125,291.1529541015625,-30.609130859375
15.5099999,-6.574477672576904,2.3104045391082764,-1.3551181554794312,135.7574462890625,335.662841796875,37.353515625
15.5299999,-9.409213066101074,3.40216064453125,2.7222073078155518,170.623779296875,277.130126953125,-79.5135498046875
15.549999900000001,-10.678139686584473,4.359841346740723,5.635950565338135,138.7786865234375,116.912841796875,-137.2528076171875
15.569999900000001,-10.898406028747559,5.408501625061035,7.69735860824585,89.202880859375,-97.8546142578125,58.929443359375
15.5899999,-10.139444351196289,6.596025466918945,8.698134422302246,-77.5909423828125,-309.9822998046875,315.673828125
15.6099999,-8.482656478881836,7.299921035766602,8.245630264282227,-307.3883056640625,-370.4833984375,364.80712890625
15.629999900000001,-6.375759124755859,6.593631267547607,5.9735331535339355,-495.9564208984375,-421.142578125,414.215087890625
15.649999900000001,-4.503493309020996,3.138798475265503,1.4437036514282227,-495.1324462890625,-500,499.9847412109375
15.6699999,-2.9041666984558105,-4.412513732910156,-5.4444146156311035,-495.1324462890625,-500,499.9847412109375
15.6899999,-1.1563993692398071,-13.761871337890625,-15.06910514831543,-495.4986572265625,-493.0419921875,462.21923828125
15.709999900000001,-0.19871874153614044,-23.020248413085938,-23.889345169067383,-88.43994140625,-91.5374755859375,-37.41455078125
15.729999900000001,0.5434837937355042,-29.45347023010254,-29.64739990234375,317.3828125,170.7611083984375,-96.4508056640625
15.7499999,0.7805097699165344,-30.27228546142578,-30.6290225982666,296.478271484375,64.453125,-77.392578125
15.7699999,0.3256114423274994,-26.91082763671875,-26.60676383972168,240.631103515625,-42.90771484375,-156.036376953125
15.789999900000002,0.15083470940589905,-20.872650146484375,-20.458454132080078,265.9759521484375,-16.3421630859375,-281.25
15.809999900000001,0.49320554733276367,-13.986926078796387,-14.539986610412598,312.01171875,71.9757080078125,-390.380859375
15.8299999,1.113303780555725,-7.287950038909912,-10.134655952453613,287.8570556640625,125.8697509765625,-463.714599609375
15.8499999,2.0590133666992188,-0.7350199222564697,-7.546523571014404,198.1048583984375,135.2386474609375,-490.0360107421875
15.869999900000002,3.77565598487854,5.104437828063965,-5.772420406341553,208.1451416015625,185.7452392578125,-448.8983154296875
15.889999900000001,5.070919036865234,10.630255699157715,-4.946420669555664,222.900390625,244.32373046875,-327.8045654296875
15.9099999,6.392518520355225,15.021221160888672,-4.05817174911499,199.951171875,171.5240478515625,47.36328125
15.9299999,6.495469093322754,17.73385238647461,-2.8155810832977295,82.4127197265625,77.911376953125,318.023681640625
15.9499999,5.276820659637451,18.440141677856445,-1.4245500564575195,-82.855224609375,84.716796875,397.5677490234375
15.969999900000001,2.82515811920166,16.864757537841797,-0.014365210197865963,-198.211669921875,145.1416015625,499.9847412109375
15.9899999,-0.5817909836769104,13.08910083770752,0.8643068075180054,-333.4197998046875,217.9107666015625,499.9847412109375
16.0099999,-4.8602294921875,6.734889507293701,-0.10055647045373917,-495.1324462890625,246.490478515625,499.9847412109375
16.0299999,-9.512163162231445,-1.941697597503662,-3.9049429893493652,-496.0479736328125,268.707275390625,405.8685302734375
16.0499999,-12.660538673400879,-12.708422660827637,-11.726799964904785,-499.6490478515625,197.1893310546875,37.445068359375
16.0699999,-12.72996997833252,-22.67548370361328,-21.167137145996094,-500,247.3907470703125,-252.3345947265625
16.089999900000002,-10.503362655639648,-28.902803421020508,-29.575572967529297,391.05224609375,224.9603271484375,-218.8720703125
16.109999900000002,-5.779603004455566,-29.805416107177734,-33.53318786621094,498.321533203125,161.7431640625,-171.3714599609375
16.1299999,-1.3982137441635132,-25.232492446899414,-31.46938705444336,440.5364990234375,199.9969482421875,-272.186279296875
16.1499999,1.7477672100067139,-17.903841018676758,-25.02180290222168,268.1884765625,240.8905029296875,-402.8472900390625
16.1699999,3.687070608139038,-10.735600471496582,-16.630125045776367,127.6702880859375,293.121337890625,-500
16.1899999,4.63517427444458,-5.099649429321289,-8.80587387084961,99.2431640625,300.201416015625,-500
16.2099999,4.850652694702148,-1.2090718746185303,-2.96162748336792,93.3990478515625,242.1417236328125,-498.1842041015625
16.2299999,4.8722004890441895,1.4724340438842773,0.7206547260284424,126.953125,198.6083984375,-398.0255126953125
16.249999900000002,4.525041103363037,3.3423056602478027,2.612074136734009,148.0712890625,195.892333984375,-354.705810546875
16.269999900000002,3.9264907836914062,4.824316501617432,3.162740468978882,51.20849609375,227.569580078125,-325.1800537109375
16.2899999,2.978386878967285,6.030993938446045,3.1052796840667725,-3.448486328125,258.5601806640625,-262.7716064453125
16.3099999,1.601720929145813,7.1921820640563965,2.9089550971984863,92.4530029296875,221.160888671875,-84.747314453125
16.3299999,-0.028730420395731926,8.655038833618164,2.717418909072876,115.41748046875,158.843994140625,154.1595458984375
16.3499999,-1.8100165128707886,10.36449909210205,2.808398485183716,40.71044921875,109.6649169921875,334.808349609375
16.3699999,-3.471592426300049,11.884817123413086,3.1268274784088135,-70.6329345703125,46.08154296875,426.4373779296875
16.3899999,-4.759673118591309,12.63899040222168,3.3686418533325195,-206.1614990234375,-6.40869140625,449.0814208984375
16.4099999,-5.245696067810059,12.09311294555664,3.313575267791748,-310.9588623046875,-49.2095947265625,447.265625
16.429999900000002,-4.843470096588135,9.758766174316406,2.6599581241607666,-412.9791259765625,-108.3221435546875,473.5870361328125
16.4499999,-3.885789394378662,5.058948040008545,0.7254431247711182,-495.1324462890625,-205.1849365234375,499.9847412109375
16.4699999,-2.3511061668395996,-2.8443117141723633,-3.0573954582214355,-495.1324462890625,-298.5076904296875,499.9847412109375
16.4899999,0.5482721924781799,-13.227964401245117,-9.907206535339355,-497.802734375,-277.0233154296875,225.1129150390625
16.5099999,3.955221176147461,-23.350648880004883,-18.34437370300293,-500,114.31884765625,-252.838134765625
16.5299999,7.781155586242676,-30.490158081054688,-25.59162139892578,155.670166015625,426.788330078125,-342.1783447265625
16.5499999,10.826580047607422,-32.07511901855469,-29.40558433532715,410.552978515625,412.7960205078125,-392.9595947265625
16.5699999,11.537657737731934,-28.115110397338867,-28.02173614501953,324.493408203125,423.76708984375,-453.4454345703125
16.589999900000002,10.012551307678223,-20.65238380432129,-22.84786605834961,248.4588623046875,398.1781005859375,-429.9468994140625
16.609999900000002,6.868964672088623,-12.054805755615234,-16.132131576538086,212.6312255859375,390.960693359375,-370.1324462890625
16.6299999,2.853888511657715,-4.113238334655762,-9.921571731567383,184.7991943359375,419.9066162109375,-328.61328125
16.6499999,-1.1085153818130493,1.965639591217041,-4.754884719848633,78.5064697265625,402.252197265625,-284.8358154296875
16.6699999,-4.532223701477051,5.774814605712891,-0.8403648138046265,60.9130859375,359.4512939453125,-236.38916015625
16.6899999,-7.091625213623047,7.613561630249023,2.1547815799713135,179.962158203125,341.3238525390625,-155.670166015625
16.7099999,-8.825027465820312,8.121131896972656,4.520252704620361,202.545166015625,249.786376953125,-81.1920166015625
16.7299999,-9.461885452270508,8.008605003356934,6.349422931671143,139.46533203125,113.2659912109375,-62.1490478515625
16.749999900000002,-8.834604263305664,7.9176249504089355,7.422025203704834,68.634033203125,-35.21728515625,-72.845458984375
16.769999900000002,-7.022193431854248,8.197746276855469,7.46033239364624,27.3895263671875,-146.6217041015625,-31.2957763671875
16.7899999,-4.402936935424805,8.635885238647461,6.50025749206543,64.0869140625,-208.6944580078125,110.260009765625
16.8099999,-1.3503297567367554,9.157821655273438,4.8051629066467285,80.50537109375,-309.9212646484375,302.703857421875
16.8299999,1.2689268589019775,9.136273384094238,2.80361008644104,34.0728759765625,-412.353515625,499.9847412109375
16.8499999,3.0861260890960693,7.979874134063721,0.7350199222564697,-59.906005859375,-500,499.9847412109375
16.8699999,3.7253777980804443,5.389348030090332,-1.436521053314209,-208.953857421875,-500,499.9847412109375
16.8899999,3.354276657104492,1.1061211824417114,-3.928884983062744,-333.0535888671875,-500,499.9847412109375
16.9099999,2.6168625354766846,-4.786009311676025,-7.110779285430908,-345.1080322265625,-500,499.9847412109375
16.929999900000002,2.322375535964966,-11.638214111328125,-11.312602996826172,-266.387939453125,-429.1229248046875,328.643798828125
16.9499999,2.609679937362671,-18.15044403076172,-16.15128517150879,-150.5279541015625,-139.129638671875,-76.2176513671875
16.9699999,3.536235809326172,-23.51345443725586,-20.429723739624023,-36.834716796875,120.1171875,-264.22119140625
16.9899999,4.896142482757568,-25.866954803466797,-23.27164077758789,61.1419677734375,155.8685302734375,-263.3056640625
17.0099999,6.256049156188965,-25.256433486938477,-23.784000396728516,141.17431640625,189.453125,-319.0460205078125
17.0299999,7.7763671875,-21.98595428466797,-22.196643829345703,173.8739013671875,310.6536865234375,-426.7425537109375
17.0499999,8.978256225585938,-17.041927337646484,-19.290082931518555,191.864013671875,440.12451171875,-462.5701904296875
17.0699999,9.339780807495117,-11.772290229797363,-15.842432975769043,243.133544921875,460.693359375,-404.388427734375
17.089999900000002,8.504204750061035,-6.971915245056152,-12.246341705322266,271.8353271484375,413.3148193359375,-356.5216064453125
17.109999900000002,6.555324077606201,-2.940079689025879,-9.062053680419922,245.05615234375,373.6419677734375,-336.60888671875
17.1299999,3.909731388092041,0.363918662071228,-6.339846134185791,201.5838623046875,320.4193115234375,-317.2454833984375
17.1499999,1.0031704902648926,2.851494312286377,-4.050989151000977,133.11767578125,307.92236328125,-302.1697998046875
17.1699999,-1.6089035272598267,4.594472885131836,-2.0183119773864746,103.6376953125,323.9898681640625,-311.676025390625
17.1899999,-3.801992416381836,5.552153587341309,-0.0071826050989329815,106.5673828125,307.0526123046875,-291.229248046875
17.2099999,-5.348646640777588,6.399701118469238,2.209848165512085,91.4459228515625,216.552734375,-224.884033203125
17.2299999,-6.071695327758789,6.682217121124268,3.8953661918640137,35.7513427734375,56.6253662109375,-106.0333251953125
17.249999900000002,-5.882553577423096,6.7492547035217285,5.116408824920654,34.4696044921875,-15.0146484375,-30.7159423828125
17.269999900000002,-4.95120906829834,6.095637321472168,5.468356609344482,44.097900390625,-37.200927734375,-35.1104736328125
17.2899999,-3.205836057662964,5.188235282897949,4.884171485900879,17.791748046875,-43.060302734375,-88.897705078125
17.3099999,-1.1827356815338135,4.484339714050293,4.027047157287598,-1.8310546875,-18.6767578125,-109.7259521484375
17.3299999,0.8427590131759644,4.683058738708496,3.2106244564056396,-20.6451416015625,1.068115234375,-75.3021240234375
17.3499999,2.3104045391082764,5.889736175537109,2.7916390895843506,-36.712646484375,-33.294677734375,32.2265625
17.3699999,2.940079689025879,7.417236804962158,2.935291290283203,-32.3638916015625,-154.510498046875,283.8592529296875
17.3899999,3.134010076522827,8.702922821044922,3.0310592651367188,-84.0606689453125,-325.103759765625,499.9847412109375
17.409999900000003,2.7054479122161865,8.968679428100586,2.6216509342193604,-233.82568359375,-448.6846923828125,499.9847412109375
17.429999900000002,1.821987509727478,7.486668586730957,1.2066776752471924,-377.1514892578125,-500,499.9847412109375
17.4499999,0.5770025849342346,3.780444383621216,-1.4772224426269531,-495.1324462890625,-500,499.9847412109375
17.4699999,-0.43095630407333374,-2.7246015071868896,-5.394136428833008,-495.1324462890625,-500,499.9847412109375
17.4899999,-0.7326257228851318,-10.54406452178955,-10.587160110473633,-383.48388671875,-329.864501953125,327.7435302734375
17.5099999,-0.43335050344467163,-18.4066219329834,-15.24867057800293,-191.314697265625,51.7425537109375,-124.9847412109375
17.5299999,0.45489832758903503,-24.202985763549805,-18.27494239807129,66.4520263671875,164.306640625,-117.156982421875
17.5499999,0.9720458984375,-26.501419067382812,-18.59337043762207,155.3497314453125,47.393798828125,-39.520263671875
17.5699999,1.1899182796478271,-25.902868270874023,-16.16086196899414,125.4730224609375,31.5704345703125,-92.1478271484375
17.589999900000002,1.434126853942871,-23.321918487548828,-12.674903869628906,116.241455078125,78.3233642578125,-217.7734375
17.609999900000002,1.9919757843017578,-20.16875457763672,-9.749189376831055,106.50634765625,150.1922607421875,-375.640869140625
17.6299999,3.0334534645080566,-17.3603572845459,-8.293514251708984,101.715087890625,252.5177001953125,-497.3602294921875
17.6499999,4.256890773773193,-15.19120979309082,-8.243236541748047,71.1822509765625,373.9166259765625,-500
17.6699999,5.197812080383301,-13.409923553466797,-8.983044624328613,85.723876953125,499.969482421875,-500
17.6899999,5.370194435119629,-11.836933135986328,-9.497797966003418,191.2841796875,499.9847412109375,-500
17.7099999,4.534617900848389,-9.888052940368652,-9.155426979064941,264.58740234375,499.9847412109375,-444.7021484375
17.7299999,2.9544448852539062,-7.328651428222656,-7.8098859786987305,230.46875,486.9537353515625,-403.2440185546875
17.749999900000002,0.9768342971801758,-4.0749311447143555,-5.628767967224121,179.229736328125,448.5015869140625,-395.20263671875
17.769999900000002,-1.3215993642807007,-0.272938996553421,-3.136404275894165,187.5762939453125,400.0396728515625,-362.5640869140625
17.7899999,-4.173093795776367,4.252102375030518,-0.09816227108240128,207.305908203125,331.4056396484375,-277.740478515625
17.8099999,-7.4316020011901855,8.877699851989746,3.1747114658355713,102.0965576171875,111.602783203125,-144.012451171875
17.8299999,-10.218452453613281,12.126631736755371,5.523423194885254,-128.4637451171875,-88.07373046875,82.5042724609375
17.8499999,-12.042834281921387,13.855245590209961,7.163451671600342,-77.392578125,-125.335693359375,264.495849609375
17.8699999,-12.009315490722656,13.189657211303711,7.1251444816589355,17.3797607421875,-228.82080078125,375.91552734375
17.8899999,-10.491392135620117,10.960655212402344,5.8873419761657715,-49.8199462890625,-295.684814453125,419.281005859375
17.909999900000003,-8.322244644165039,8.334216117858887,4.3191399574279785,-102.447509765625,-333.740234375,446.47216796875
17.929999900000002,-5.60722017288208,5.928043365478516,2.535459518432617,-123.8861083984375,-369.6136474609375,488.861083984375
17.9499999,-3.066972494125366,3.7612907886505127,0.6272808313369751,-177.154541015625,-430.267333984375,499.9847412109375
17.9699999,-0.5291185975074768,1.5203180313110352,-1.6184803247451782,-262.451171875,-456.787109375,499.9847412109375
17.9899999,1.6663644313812256,-1.3431471586227417,-4.716577529907227,-392.9595947265625,-465.850830078125,499.9847412109375
18.0099999,3.56017804145813,-5.935225963592529,-9.057265281677246,-495.1324462890625,-446.807861328125,499.9847412109375
18.0299999,5.5114521980285645,-11.949460983276367,-14.688426971435547,-449.5849609375,-304.74853515625,329.132080078125
18.0499999,7.280767440795898,-18.373104095458984,-19.704280853271484,-195.1904296875,25.7568359375,-170.7611083984375
18.0699999,8.892065048217773,-23.302764892578125,-22.79998207092285,37.0025634765625,276.6571044921875,-381.04248046875
18.089999900000002,9.904812812805176,-25.064897537231445,-22.66111946105957,110.77880859375,293.914794921875,-374.267578125
18.109999900000002,10.04846477508545,-23.45120620727539,-19.220651626586914,180.96923828125,218.8873291015625,-344.1162109375
18.1299999,9.691728591918945,-19.51034927368164,-14.06114673614502,238.616943359375,141.90673828125,-319.88525390625
18.1499999,9.186552047729492,-14.700398445129395,-8.920795440673828,238.067626953125,81.024169921875,-271.5911865234375
18.1699999,8.908824920654297,-10.156203269958496,-4.8937482833862305,230.194091796875,28.7322998046875,-236.1602783203125
18.1899999,8.973467826843262,-6.380547523498535,-2.628833532333374,220.1690673828125,5.889892578125,-213.68408203125
18.2099999,9.41639518737793,-3.512293815612793,-2.0661959648132324,185.11962890625,16.29638671875,-188.323974609375
18.2299999,10.177751541137695,-1.4532804489135742,-2.7748796939849854,198.974609375,57.0831298828125,-118.34716796875
18.249999900000002,11.140220642089844,0.10534487664699554,-4.216189384460449,232.6202392578125,90.301513671875,-5.340576171875
18.269999900000002,12.050017356872559,1.45806884765625,-5.8657941818237305,245.361328125,108.123779296875,125.762939453125
18.2899999,12.425907135009766,3.19865345954895,-7.146692276000977,275.726318359375,173.828125,244.3695068359375
18.3099999,11.726799964904785,5.298368453979492,-7.474697589874268,277.496337890625,218.7347412109375,286.62109375
18.3299999,9.99339771270752,7.558494567871094,-6.754043102264404,187.4847412109375,211.24267578125,245.0408935546875
18.3499999,7.343016624450684,9.44752025604248,-5.317522048950195,35.15625,200.3021240234375,192.138671875
18.3699999,4.307168960571289,10.376470565795898,-3.6152446269989014,-56.5032958984375,219.1925048828125,170.7916259765625
18.3899999,1.5729905366897583,10.35252857208252,-2.0590133666992188,-46.783447265625,206.8023681640625,141.90673828125
18.409999900000003,-0.5841852426528931,9.720458984375,-0.6823474764823914,-44.3572998046875,158.111572265625,84.1522216796875
18.429999900000002,-2.1140801906585693,8.844181060791016,0.9002198576927185,-91.6748046875,92.7734375,27.34375
18.4499999,-2.959233283996582,7.939172744750977,2.7269957065582275,-142.6239013671875,31.4788818359375,-10.0860595703125
18.4699999,-3.3016040325164795,6.691793918609619,4.4723687171936035,-237.884521484375,-2.50244140625,-72.32666015625
18.4899999,-3.1076738834381104,4.8937482833862305,5.480327606201172,-400.32958984375,-17.791748046875,-183.2122802734375
18.5099999,-2.229001760482788,2.6431987285614014,4.788403511047363,-500,-76.7669677734375,-349.2431640625
18.5299999,0.15322890877723694,0.49559974670410156,1.525106430053711,-500,-127.6397705078125,-488.4185791015625
18.5499999,4.532223701477051,-1.5275006294250488,-4.788403511047363,-500,-121.246337890625,-469.879150390625
18.5699999,11.077971458435059,-3.4093432426452637,-12.287043571472168,-500,-179.26025390625,-343.292236328125
18.589999900000002,17.834407806396484,-4.898536682128906,-19.31402587890625,-63.3697509765625,-123.3673095703125,-144.195556640625
18.609999900000002,23.39853286743164,-6.117185115814209,-23.230939865112305,190.73486328125,8.0108642578125,-57.403564453125
18.6299999,25.63711166381836,-6.447585105895996,-22.984336853027344,206.756591796875,82.9315185546875,-156.9976806640625
18.6499999,24.526203155517578,-5.664681434631348,-19.400217056274414,167.3736572265625,115.814208984375,-207.7178955078125
18.6699999,21.179107666015625,-4.086902141571045,-14.216769218444824,205.718994140625,90.301513671875,-123.9166259765625
18.6899999,17.1999454498291,-2.140416383743286,-9.220070838928223,344.1162109375,16.54052734375,7.62939453125
18.7099999,14.180856704711914,0.6799532771110535,-5.784391403198242,446.380615234375,-0.1068115234375,80.7647705078125
18.7299999,12.401965141296387,3.9863457679748535,-3.6727054119110107,499.9847412109375,85.7391357421875,204.6051025390625
18.749999900000002,11.669339179992676,7.582436561584473,-2.762908697128296,499.9847412109375,179.3212890625,406.5704345703125
18.769999900000002,11.154585838317871,10.790667533874512,-2.2170307636260986,461.48681640625,205.1544189453125,499.9847412109375
18.7899999,10.192116737365723,12.825738906860352,-1.3910311460494995,414.4134521484375,204.4677734375,493.4234619140625
18.8099999,8.38449478149414,13.357251167297363,0.08379705995321274,269.7296142578125,194.3359375,374.420166015625
18.8299999,6.358999729156494,12.538434028625488,2.2385785579681396,98.6480712890625,132.4920654296875,246.6583251953125
18.8499999,4.32871675491333,10.259154319763184,4.7189717292785645,-79.3304443359375,65.887451171875,120.4071044921875
18.8699999,2.5498247146606445,6.5050458908081055,6.399701118469238,-307.7850341796875,45.1812744140625,77.5299072265625
18.8899999,1.1180921792984009,1.2713210582733154,5.9974751472473145,-499.7406005859375,35.614013671875,27.923583984375
18.909999900000003,0.15801730751991272,-4.69024133682251,2.6240451335906982,-500,-2.50244140625,-102.96630859375
18.929999900000002,0.9840168952941895,-10.702081680297852,-3.4093432426452637,-500,93.07861328125,-324.188232421875
18.9499999,3.507505416870117,-15.308526039123535,-10.623072624206543,-453.5675048828125,285.8123779296875,-464.2791748046875
18.9699999,6.821080684661865,-17.542316436767578,-16.910245895385742,-20.1873779296875,384.796142578125,-380.584716796875
18.9899999,9.962273597717285,-17.017986297607422,-20.195091247558594,136.53564453125,414.031982421875,-339.935302734375
19.0099999,10.84094524383545,-13.898341178894043,-19.86708641052246,212.2955322265625,387.451171875,-354.5989990234375
19.0299999,9.430760383605957,-8.975862503051758,-16.503232955932617,210.0982666015625,320.49560546875,-302.79541015625
19.0499999,6.607996463775635,-3.670311212539673,-11.362881660461426,206.3140869140625,288.1622314453125,-236.6180419921875
19.0699999,3.220201253890991,1.256955862045288,-6.114790916442871,251.0833740234375,289.8101806640625,-187.5457763671875
19.089999900000002,0.043095629662275314,5.061342239379883,-1.6065093278884888,324.859619140625,265.0146484375,-81.72607421875
19.109999900000002,-2.5450363159179688,7.666234016418457,1.8267759084701538,371.2158203125,178.52783203125,87.615966796875
19.1299999,-4.402936935424805,9.296685218811035,4.266467571258545,327.5146484375,72.6165771484375,211.1663818359375
19.1499999,-5.303156852722168,10.323798179626465,5.901707172393799,283.7982177734375,-32.3638916015625,292.9534912109375
19.1699999,-5.135562419891357,10.843339920043945,6.847416877746582,210.3424072265625,-136.5509033203125,368.408203125
19.1899999,-3.734954595565796,10.723628997802734,6.868964672088623,69.7021484375,-202.4688720703125,413.87939453125
19.2099999,-1.1204863786697388,9.576807022094727,5.612008571624756,-108.154296875,-233.062744140625,449.859619140625
19.2299999,1.9560627937316895,6.979097843170166,2.7748796939849854,-312.9730224609375,-283.4320068359375,499.9847412109375
19.249999900000002,4.632780075073242,2.3798365592956543,-1.821987509727478,-495.1324462890625,-396.5911865234375,499.9847412109375
19.269999900000002,7.070077419281006,-4.141968727111816,-7.982268333435059,-495.1324462890625,-430.8319091796875,499.9847412109375
19.2899999,9.081207275390625,-11.726799964904785,-14.741100311279297,-404.327392578125,-261.138916015625,165.5120849609375
19.3099999,10.412383079528809,-18.437747955322266,-20.144813537597656,-6.011962890625,71.5179443359375,-221.1151123046875
19.3299999,11.420342445373535,-22.567745208740234,-23.017854690551758,93.7652587890625,284.454345703125,-430.0994873046875
19.3499999,11.374852180480957,-23.003490447998047,-22.397756576538086,55.2978515625,371.1090087890625,-500
19.3699999,10.223240852355957,-20.16875457763672,-19.074604034423828,90.5914306640625,407.1044921875,-500
19.3899999,8.537723541259766,-15.399505615234375,-14.317326545715332,176.9561767578125,373.4283447265625,-478.485107421875
19.409999900000003,6.670246124267578,-10.11789608001709,-9.430760383605957,235.2752685546875,308.6700439453125,-398.468017578125
19.429999900000002,5.039794445037842,-5.310339450836182,-5.128379821777344,216.8731689453125,250,-340.362548828125
19.4499999,3.909731388092041,-1.3886369466781616,-1.8602946996688843,152.8167724609375,215.6829833984375,-274.749755859375
19.4699999,3.399766445159912,1.5705963373184204,0.304063618183136,121.52099609375,200.8819580078125,-203.521728515625
19.4899999,3.514688014984131,4.010287761688232,1.3958195447921753,157.77587890625,210.6475830078125,-170.3948974609375
19.5099999,3.9480385780334473,6.490680694580078,1.7597382068634033,195.2362060546875,248.71826171875,-178.680419921875
19.5299999,4.355052947998047,9.59835433959961,2.1547815799713135,179.2755126953125,264.0380859375,-142.3492431640625
19.5499999,4.6734819412231445,13.079524040222168,2.7485435009002686,113.525390625,162.65869140625,-13.8092041015625
19.5699999,4.98472785949707,15.964536666870117,3.294421434402466,-5.584716796875,40.3900146484375,114.3798828125
19.589999900000002,5.0876784324646,17.513586044311523,3.3710360527038574,-122.802734375,-5.4473876953125,254.45556640625
19.609999900000002,4.790797710418701,16.53435707092285,2.559401512145996,-152.28271484375,-28.13720703125,460.51025390625
19.6299999,3.7924153804779053,13.704410552978516,1.1755530834197998,-97.0916748046875,-4.9896240234375,499.9847412109375
19.6499999,1.7381904125213623,9.452308654785156,0.004788403399288654,-36.956787109375,14.3280029296875,499.9847412109375
19.6699999,-1.0965443849563599,4.728548526763916,-0.12928688526153564,-34.36279296875,20.7672119140625,499.9847412109375
19.6899999,-3.6367924213409424,-0.17717093229293823,1.0654197931289673,-67.535400390625,-8.209228515625,314.5294189453125
19.7099999,-4.563348293304443,-4.599261283874512,3.2154128551483154,-214.3096923828125,-90.1641845703125,-117.2332763671875
19.7299999,-2.7916390895843506,-7.860164165496826,5.370194435119629,-400.360107421875,-146.7437744140625,-451.47705078125
19.749999900000002,2.5330653190612793,-9.153033256530762,6.98628044128418,-282.623291015625,-89.5843505859375,-500
19.769999900000002,9.29189682006836,-8.343792915344238,8.123526573181152,-41.07666015625,-30.2734375,-387.7716064453125
19.7899999,16.16325569152832,-5.990292549133301,8.59997272491455,-22.2625732421875,-60.4095458984375,-93.8262939453125
19.8099999,20.614076614379883,-3.600879430770874,8.856152534484863,-84.8388671875,-48.9349365234375,43.4417724609375
19.8299999,21.638795852661133,-2.367865562438965,8.702922821044922,-80.8563232421875,0.67138671875,97.9766845703125
19.8499999,19.900604248046875,-2.0853497982025146,7.872135162353516,-39.154052734375,-30.242919921875,171.2493896484375
19.8699999,16.10579490661621,-3.8546648025512695,6.593631267547607,-26.7486572265625,-95.7183837890625,270.416259765625
19.8899999,11.839327812194824,-5.212177276611328,4.704606533050537,-17.9901123046875,-58.6700439453125,149.0020751953125
19.909999900000003,8.183381080627441,-6.3518171310424805,2.851494312286377,-58.074951171875,2.227783203125,-28.411865234375
19.929999900000002,5.595249176025391,-7.666234016418457,1.0821791887283325,-176.81884765625,5.645751953125,48.2635498046875
19.9499999,3.974374771118164,-7.6566572189331055,-0.272938996553421,-15.167236328125,-111.785888671875,155.303955078125
19.9699999,3.8283286094665527,-8.403648376464844,-1.644816517829895,171.7987060546875,-194.305419921875,144.0582275390625
19.9899999,3.9911341667175293,-8.779537200927734,-3.1459810733795166,131.4239501953125,-113.2965087890625,-48.492431640625
20.0099999,4.6040496826171875,-9.042900085449219,-5.485116004943848,85.845947265625,-12.4359130859375,-192.5201416015625
20.0299999,5.066130638122559,-9.11233139038086,-7.812280178070068,123.291015625,-27.4658203125,-77.4688720703125
20.0499999,5.200206279754639,-9.121908187866211,-10.319009780883789,85.479736328125,-97.686767578125,98.7396240234375
20.0699999,5.281609058380127,-8.927978515625,-12.557587623596191,33.599853515625,-179.443359375,145.0653076171875
20.089999900000002,6.291962146759033,-8.111555099487305,-14.386757850646973,91.5679931640625,-166.961669921875,14.434814453125
20.109999900000002,7.515398979187012,-6.8593878746032715,-15.562311172485352,69.091796875,-59.26513671875,-110.2447509765625
20.1299999,8.96389102935791,-4.99669885635376,-15.619771957397461,3.7841796875,30.2276611328125,-125.3204345703125
20.1499999,9.442731857299805,-3.308786630630493,-14.154520034790039,34.0728759765625,51.422119140625,-13.763427734375
20.1699999,8.9064302444458,-2.1092917919158936,-11.982979774475098,59.4329833984375,28.961181640625,31.6925048828125
20.1899999,7.841010570526123,-1.5107412338256836,-9.57201862335205,54.7332763671875,-2.349853515625,-38.5589599609375
