# Time (seconds),Accel_X,Accel_Y,Accel_Z,Gyro_X,Gyro_Y,Gyro_Z
0.0099999,9.196128845214844,-13.060370445251465,-8.53293514251709,64.75830078125,78.61328125,-192.291259765625
0.029999900000000003,9.425971984863281,-14.264654159545898,-8.592789649963379,45.6695556640625,133.575439453125,-265.3045654296875
0.0499999,9.258378028869629,-15.023615837097168,-8.281543731689453,51.3153076171875,155.5938720703125,-290.71044921875
0.0699999,8.44434928894043,-14.446613311767578,-7.465120792388916,73.394775390625,144.2413330078125,-286.102294921875
0.08999990000000001,7.127538681030273,-12.667720794677734,-6.162675380706787,31.280517578125,146.453857421875,-280.670166015625
0.10999990000000001,5.494692802429199,-9.576807022094727,-4.587290287017822,-10.1470947265625,169.097900390625,-305.3131103515625
0.1299999,3.7852327823638916,-5.987898349761963,-2.7748796939849854,-1.89208984375,175.5218505859375,-304.87060546875
0.14999990000000002,2.1380221843719482,-2.1356279850006104,-0.8547300100326538,21.7742919921875,148.529052734375,-281.8145751953125
0.1699999,0.7661445140838623,1.479616641998291,1.05105459690094,-0.579833984375,105.682373046875,-243.743896484375
0.1899999,-0.2968810200691223,4.659116744995117,2.647987127304077,-16.17431640625,76.995849609375,-209.7320556640625
0.20999990000000002,-0.9169792532920837,7.218518257141113,3.773261785507202,-19.71435546875,53.5430908203125,-184.2803955078125
0.2299999,-1.1109095811843872,9.296685218811035,4.307168960571289,-14.5111083984375,32.0281982421875,-155.1055908203125
0.2499999,-0.9983820915222168,11.034875869750977,4.443638324737549,-23.162841796875,17.303466796875,-112.274169921875
0.2699999,-0.7254431247711182,12.519280433654785,4.2951979637146,-30.059814453125,8.575439453125,-53.1463623046875
0.28999990000000003,-0.3663128614425659,13.596671104431152,3.971980571746826,-18.8446044921875,-10.284423828125,16.9677734375
0.3099999,0.05027823522686958,14.00607967376709,3.507505416870117,-18.1121826171875,-34.11865234375,77.8961181640625
0.3299999,0.6368576288223267,13.618219375610352,2.9281086921691895,-31.25,-43.7469482421875,113.067626953125
0.34999990000000003,1.37906014919281,12.51449203491211,2.3056161403656006,-28.656005859375,-34.423828125,137.1002197265625
0.3699999,2.2912509441375732,10.778696060180664,1.821987509727478,-2.471923828125,-19.8516845703125,186.7523193359375
0.3899999,3.332728862762451,8.53293514251709,1.455674648284912,33.7982177734375,-9.3994140625,236.5264892578125
0.40999990000000003,4.558559894561768,5.714959621429443,1.2282254695892334,44.1131591796875,-0.8392333984375,249.664306640625
0.4299999,5.983109951019287,2.669534921646118,1.0295066833496094,41.4581298828125,6.5765380859375,228.7750244140625
0.4499999,7.445967197418213,-0.26096799969673157,0.9002198576927185,44.7998046875,17.15087890625,207.9010009765625
0.4699999,8.801085472106934,-2.868253707885742,0.9552865028381348,60.333251953125,39.1998291015625,219.3450927734375
0.4899999,9.967061996459961,-5.434837818145752,1.2737152576446533,55.2825927734375,46.0968017578125,222.7325439453125
0.5099999,11.013327598571777,-8.20492935180664,1.7836803197860718,-4.119873046875,12.7105712890625,159.4085693359375
0.5299999,12.06198787689209,-11.343728065490723,2.540247917175293,-58.1512451171875,-24.7039794921875,63.0035400390625
0.5499999,13.204022407531738,-14.369998931884766,3.24414324760437,-33.9202880859375,-36.8499755859375,14.190673828125
0.5699999,14.283807754516602,-16.436195373535156,3.7660791873931885,2.8839111328125,-41.4276123046875,-19.9737548828125
0.5899998999999999,15.145719528198242,-17.25740623474121,3.9240965843200684,15.289306640625,-31.7230224609375,-53.0853271484375
0.6099998999999999,15.650896072387695,-16.965312957763672,3.6990416049957275,36.9415283203125,-10.6353759765625,-74.7528076171875
0.6299999,15.672444343566895,-15.717934608459473,3.138798475265503,70.7550048828125,1.28173828125,-103.118896484375
0.6499999,15.078681945800781,-14.010868072509766,2.557007312774658,55.0537109375,-0.8087158203125,-155.82275390625
0.6699999,13.848062515258789,-11.91354751586914,2.0685901641845703,16.815185546875,-4.6234130859375,-200.6988525390625
0.6899999,12.057199478149414,-9.550470352172852,1.7501614093780518,5.035400390625,-14.6636962890625,-225.8453369140625
0.7099999,9.9000244140625,-7.134721279144287,1.6089035272598267,0.274658203125,-21.270751953125,-235.9771728515625
0.7299998999999999,7.627926826477051,-4.752490520477295,1.5107412338256836,-3.5552978515625,-18.5546875,-238.0218505859375
0.7499998999999999,5.463568210601807,-2.4684219360351562,1.4221558570861816,-9.1552734375,-5.1727294921875,-232.7880859375
0.7699999,3.5266590118408203,-0.22266076505184174,1.2880805730819702,-10.955810546875,4.5928955078125,-234.3292236328125
0.7899999,1.9153614044189453,1.9752163887023926,1.1276689767837524,-2.410888671875,8.8653564453125,-228.6376953125
0.8099999,0.689530074596405,4.173093795776367,0.9672574996948242,9.033203125,10.0860595703125,-199.1424560546875
0.8299999,-0.17477671802043915,6.258443355560303,0.8236053586006165,10.4522705078125,7.50732421875,-171.5240478515625
0.8499998999999999,-0.7661445140838623,8.259995460510254,0.751779317855835,20.965576171875,12.4359130859375,-149.7650146484375
0.8699998999999999,-1.1899182796478271,10.15141487121582,0.8475474119186401,47.5616455078125,28.1829833984375,-104.06494140625
0.8899999,-1.6280571222305298,11.966219902038574,1.1516109704971313,66.192626953125,42.5567626953125,-51.1016845703125
0.9099999,-2.099714994430542,13.57751750946045,1.800439715385437,64.697265625,50.506591796875,17.181396484375
0.9299999,-2.655169725418091,14.772224426269531,2.7246015071868896,67.230224609375,37.445068359375,102.2491455078125
0.9499999,-3.1220390796661377,15.258247375488281,3.7277719974517822,84.7625732421875,4.974365234375,185.9893798828125
0.9699998999999999,-3.3255462646484375,14.765042304992676,4.599261283874512,81.1614990234375,-28.717041015625,252.5787353515625
0.9899998999999999,-3.064578056335449,13.28063678741455,4.982333660125732,71.533203125,-51.422119140625,291.7327880859375
1.0099999,-2.2912509441375732,10.931924819946289,4.838681697845459,92.041015625,-49.37744140625,322.1282958984375
1.0299999,-1.139639973640442,8.039729118347168,4.369418144226074,146.9573974609375,-13.5498046875,369.903564453125
1.0499999,0.26336219906806946,4.63517427444458,3.7493197917938232,204.7882080078125,23.2086181640625,423.614501953125
1.0699999,1.9560627937316895,0.608127236366272,3.0885202884674072,224.761962890625,36.346435546875,439.4378662109375
1.0899999,3.9480385780334473,-3.7469255924224854,2.367865562438965,223.9990234375,23.4222412109375,423.7060546875
1.1099999,6.27280855178833,-8.51138687133789,1.5729905366897583,190.2313232421875,13.8092041015625,380.2032470703125
1.1299999,8.765172004699707,-13.263877868652344,0.8259995579719543,183.441162109375,67.93212890625,340.51513671875
1.1499999,11.21444034576416,-17.592594146728516,0.5578489899635315,181.4422607421875,124.176025390625,269.1192626953125
1.1699998999999999,13.364434242248535,-21.164743423461914,0.9433154463768005,117.2943115234375,102.4627685546875,165.2679443359375
1.1899998999999999,15.049951553344727,-23.669078826904297,1.9919757843017578,19.989013671875,39.6881103515625,49.5147705078125
1.2099999,16.132131576538086,-24.839841842651367,3.3686418533325195,-46.9818115234375,-3.8299560546875,-50.323486328125
1.2299999,16.572664260864258,-24.645912170410156,4.455609321594238,-62.957763671875,-23.5137939453125,-128.0670166015625
1.2499999,16.268600463867188,-23.353042602539062,5.013458251953125,-82.09228515625,-36.3311767578125,-187.957763671875
1.2699999,15.284584045410156,-21.234174728393555,4.927267074584961,-87.066650390625,-30.364990234375,-225.830078125
1.2899999,13.682862281799316,-18.63886070251465,4.381389141082764,-55.6793212890625,-22.88818359375,-253.204345703125
1.3099999,11.561599731445312,-15.926229476928711,3.603273630142212,-32.470703125,-4.5013427734375,-267.120361328125
1.3299999,9.126696586608887,-13.232752799987793,2.7533318996429443,-29.4036865234375,14.892578125,-277.557373046875
1.3499999,6.552929878234863,-10.716446876525879,2.006340980529785,-30.517578125,37.4908447265625,-292.8619384765625
1.3699999,4.079719543457031,-8.451532363891602,1.5634137392044067,-13.1683349609375,56.732177734375,-294.677734375
1.3899999,1.8267759084701538,-6.430825710296631,1.4748282432556152,19.317626953125,61.004638671875,-287.7349853515625
1.4099999,-0.043095629662275314,-4.522646903991699,1.6663644313812256,28.778076171875,48.3551025390625,-291.3970947265625
1.4299998999999999,-1.4532804489135742,-2.6192567348480225,1.965639591217041,-11.4288330078125,28.6407470703125,-301.45263671875
1.4499999,-2.432508945465088,-0.4213795065879822,2.3582887649536133,-58.502197265625,26.6265869140625,-299.74365234375
1.4699999,-3.1459810733795166,2.33913516998291,2.8778305053710938,-61.5234375,29.2816162109375,-280.6854248046875
1.4899999,-3.7158010005950928,5.791574001312256,3.550601005554199,-42.388916015625,33.538818359375,-235.565185546875
1.5099999,-4.223371982574463,10.038887977600098,4.108449935913086,-57.6171875,10.772705078125,-176.971435546875
1.5299999,-4.704606533050537,14.79377269744873,4.3191399574279785,-118.3319091796875,-25.665283203125,-121.27685546875
1.5499999,-5.2480902671813965,19.369091033935547,4.089296340942383,-156.25,-42.4957275390625,-39.825439453125
1.5699999,-5.746084213256836,22.70660972595215,3.421314239501953,-96.282958984375,-43.39599609375,98.9837646484375
1.5899999,-6.18182897567749,23.6259822845459,2.5929205417633057,-18.73779296875,-29.9224853515625,251.6632080078125
1.6099999,-6.200982570648193,21.643583297729492,1.7310078144073486,1.8157958984375,-17.1051025390625,334.3658447265625
1.6299999,-5.430049419403076,17.01080322265625,0.9576807022094727,-17.8070068359375,-16.2353515625,342.83447265625
1.6499999,-3.6296098232269287,10.577583312988281,0.395043283700943,-46.4630126953125,-40.130615234375,339.29443359375
1.6699999,-0.6823474764823914,3.31118106842041,0.2825157940387726,-23.8037109375,-23.37646484375,354.766845703125
1.6899998999999999,3.3303346633911133,-3.7636849880218506,0.7661445140838623,24.47509765625,43.5638427734375,352.9205322265625
1.7099999,8.08043098449707,-10.606313705444336,1.9297266006469727,-7.5225830078125,34.6527099609375,276.1688232421875
1.7299999,13.199234008789062,-17.07065773010254,3.8714241981506348,-68.756103515625,-2.1514892578125,180.9539794921875
1.7499999,17.851167678833008,-22.29720115661621,6.291962146759033,-59.7686767578125,-23.13232421875,55.3131103515625
1.7699999,21.310789108276367,-25.584440231323242,8.418013572692871,-28.8543701171875,-70.770263671875,-62.591552734375
1.7899999,22.797588348388672,-25.962722778320312,9.737217903137207,-43.6248779296875,-114.92919921875,-149.017333984375
1.8099999,22.268470764160156,-23.587675094604492,9.72285270690918,-38.0706787109375,-107.696533203125,-173.03466796875
1.8299999,19.99876594543457,-19.37148666381836,8.434772491455078,12.51220703125,-64.697265625,-168.792724609375
1.8499999,16.630125045776367,-14.72912883758545,6.471527099609375,37.9486083984375,-39.9169921875,-194.27490234375
1.8699999,12.780248641967773,-10.60152530670166,4.448426723480225,25.81787109375,-39.6881103515625,-226.5472412109375
1.8899999,8.937555313110352,-7.374141216278076,2.875436305999756,20.782470703125,-35.4156494140625,-238.250732421875
1.9099999,5.413290023803711,-5.0254292488098145,1.8962076902389526,39.398193359375,-28.9306640625,-235.8245849609375
1.9299998999999999,2.3295583724975586,-3.1459810733795166,1.4628572463989258,52.6885986328125,-27.6947021484375,-248.504638671875
1.9499999,-0.2537853717803955,-1.3862427473068237,1.3910311460494995,32.867431640625,-21.05712890625,-258.209228515625
1.9699999,-2.3918075561523438,0.7469909191131592,1.501164436340332,6.8359375,-18.0816650390625,-243.896484375
1.9899999,-3.993528366088867,3.375824451446533,1.5179238319396973,8.697509765625,-22.6287841796875,-213.287353515625
2.0099999,-4.9583916664123535,6.370970726013184,1.2641384601593018,-3.692626953125,-31.707763671875,-179.2449951171875
2.0299999,-5.295974254608154,9.888052940368652,0.4692635238170624,-41.778564453125,-39.0167236328125,-168.7469482421875
2.0499999,-5.183446884155273,13.927071571350098,-0.7972691655158997,-61.553955078125,-14.6484375,-136.2457275390625
2.0699999,-4.922478675842285,18.23184585571289,-2.2912509441375732,-30.33447265625,40.3289794921875,-21.97265625
2.0899999,-4.405331134796143,21.866243362426758,-3.732560396194458,-25.2227783203125,52.0477294921875,111.3739013671875
2.1099999,-3.5170822143554688,23.482330322265625,-4.972756862640381,-84.7625732421875,2.899169921875,193.9544677734375
2.1299999,-2.1164743900299072,22.47916030883789,-5.872976779937744,-125.4730224609375,-11.6729736328125,201.5228271484375
2.1499999,-0.28730419278144836,19.14643096923828,-6.253654956817627,-84.7015380859375,41.717529296875,204.1168212890625
2.1699999,1.6376339197158813,14.453795433044434,-5.947196960449219,-16.0675048828125,110.504150390625,266.4337158203125
2.1899999,3.5266590118408203,9.21288776397705,-4.790797710418701,-24.505615234375,144.3939208984375,320.7244873046875
2.2099999,5.506663799285889,3.756502389907837,-2.894589900970459,-41.80908203125,160.614013671875,320.1446533203125
2.2299999,7.714118003845215,-1.6089035272598267,-0.3926490843296051,-25.8331298828125,190.5364990234375,285.186767578125
2.2499999,10.02452278137207,-6.675034523010254,2.676717519760132,-20.2484130859375,188.079833984375,228.790283203125
2.2699999,12.15296745300293,-11.446678161621094,6.430825710296631,-22.7203369140625,176.849365234375,227.6611328125
2.2899999,14.070723533630371,-15.88074016571045,10.465055465698242,36.2701416015625,175.4608154296875,210.2508544921875
2.3099999,15.739481925964355,-19.874267578125,14.326903343200684,9.857177734375,112.152099609375,19.83642578125
2.3299999,16.599000930786133,-22.397756576538086,17.044321060180664,-70.3887939453125,12.02392578125,-193.9697265625
2.3499999,16.385915756225586,-22.342689514160156,18.200721740722656,-98.2513427734375,-32.3638916015625,-291.5191650390625
2.3699999,14.30774974822998,-19.20149803161621,18.10016441345215,-109.9395751953125,-10.345458984375,-305.0689697265625
2.3899999,10.57040023803711,-13.79060173034668,17.37232780456543,-93.4295654296875,8.6822509765625,-273.651123046875
2.4099999,5.8657941818237305,-7.7428483963012695,16.697162628173828,-48.492431640625,-15.7623291015625,-228.057861328125
2.4299999,1.2880805730819702,-2.5522189140319824,16.429012298583984,-14.4195556640625,-51.1474609375,-189.14794921875
2.4499999,-2.4851813316345215,0.9983820915222168,16.292543411254883,-20.294189453125,-104.8736572265625,-166.2445068359375
2.4699999,-5.070919036865234,2.9065608978271484,15.921441078186035,-15.655517578125,-157.6995849609375,-145.5230712890625
2.4899999,-6.552929878234863,3.426102638244629,15.12417221069336,16.3421630859375,-179.3212890625,-115.0970458984375
2.5099999,-7.177816867828369,3.002328872680664,13.769054412841797,36.346435546875,-206.1767578125,-99.0447998046875
2.5299999,-7.161057472229004,2.169146776199341,11.73398208618164,23.468017578125,-270.5841064453125,-99.1058349609375
2.5499999,-6.658275127410889,1.1300631761550903,8.695740699768066,34.66796875,-348.8616943359375,-78.033447265625
2.5699999,-5.8442463874816895,0.26815059781074524,4.886565685272217,57.55615234375,-366.8365478515625,-71.59423828125
2.5899999,-5.037400245666504,-0.33279404044151306,0.7422025203704834,89.599609375,-301.2542724609375,-71.71630859375
2.6099999,-4.474762916564941,-0.5889736413955688,-3.047818660736084,132.4005126953125,-233.0322265625,-35.2325439453125
2.6299999,-4.170699596405029,-0.49559974670410156,-6.469132900238037,130.9356689453125,-259.94873046875,8.23974609375
2.6499999,-3.8307228088378906,0.0071826050989329815,-9.390059471130371,54.2755126953125,-304.473876953125,-11.474609375
2.6699999,-3.265691041946411,0.9193734526634216,-11.695674896240234,23.2391357421875,-215.7440185546875,-30.9600830078125
2.6899999,-2.1523873805999756,2.3343467712402344,-14.092270851135254,137.5732421875,-99.761962890625,46.356201171875
2.7099999,-0.40462008118629456,4.240131378173828,-16.3883113861084,127.7313232421875,-110.8856201171875,118.8812255859375
2.7299999,1.742978811264038,6.660669326782227,-19.000385284423828,-20.1416015625,-113.372802734375,111.8011474609375
2.7499999,4.347870349884033,9.497797966003418,-21.878215789794922,-52.7801513671875,-14.34326171875,112.701416015625
2.7699999,7.043741226196289,12.246341705322266,-24.19101333618164,-14.7247314453125,116.5313720703125,194.2596435546875
2.7899999,9.39245319366455,14.176068305969238,-24.98110008239746,-51.20849609375,159.7442626953125,252.9296875
2.8099999,11.24795913696289,14.501679420471191,-23.719356536865234,-128.143310546875,157.04345703125,274.6429443359375
2.8299999,12.524068832397461,12.777854919433594,-20.460847854614258,-145.721435546875,165.771484375,270.56884765625
2.8499999,13.472172737121582,9.246406555175781,-15.926229476928711,-119.537353515625,158.203125,268.9208984375
2.8699999,14.154520034790039,4.76924991607666,-10.709263801574707,-109.832763671875,148.0712890625,263.4735107421875
2.8899999,14.597447395324707,-0.31603461503982544,-5.7125654220581055,-127.9754638671875,141.387939453125,256.439208984375
2.9099999,14.7387056350708,-5.47075080871582,-1.802833914756775,-128.47900390625,107.5897216796875,222.2747802734375
2.9299999,14.290989875793457,-10.613495826721191,1.0127472877502441,-138.1683349609375,100.7080078125,176.20849609375
2.9499999,13.340492248535156,-15.780183792114258,2.7892448902130127,-114.5172119140625,132.781982421875,143.0511474609375
2.9699999,11.803414344787598,-20.666749954223633,4.3861775398254395,28.7933349609375,168.060302734375,76.84326171875
2.9899999,9.655815124511719,-24.4184627532959,6.366182327270508,245.0714111328125,218.658447265625,8.1024169921875
3.0099999,7.134721279144287,-26.398468017578125,8.757989883422852,351.86767578125,223.3734130859375,-37.078857421875
3.0299999,4.261679172515869,-25.9292049407959,11.176133155822754,248.199462890625,119.873046875,-125.213623046875
3.0499999,1.3766659498214722,-23.479936599731445,12.880805015563965,147.2625732421875,9.5367431640625,-207.2296142578125
3.0699999,-1.256955862045288,-19.524715423583984,13.151350021362305,170.6390380859375,-38.7725830078125,-243.6676025390625
3.0899999,-3.3470940589904785,-15.162479400634766,11.769895553588867,181.182861328125,-79.132080078125,-256.7291259765625
3.1099999,-4.7620673179626465,-10.915165901184082,8.834604263305664,108.2000732421875,-123.199462890625,-262.8173828125
3.1299999,-5.398924827575684,-7.096413612365723,4.73573112487793,66.8792724609375,-148.3154296875,-265.1519775390625
3.1499999,-5.252878665924072,-3.794809579849243,0.1412578970193863,108.0474853515625,-131.9122314453125,-252.1514892578125
3.1699999,-4.4723687171936035,-0.8164227604866028,-4.225766181945801,142.1966552734375,-90.02685546875,-239.8681640625
3.1899999,-3.24414324760437,1.9776105880737305,-7.524975776672363,112.1673583984375,-44.12841796875,-222.686767578125
3.2099999,-1.7908629179000854,5.051765441894531,-9.488221168518066,103.33251953125,-0.3662109375,-198.944091796875
3.2299999,-0.2777273952960968,8.597578048706055,-10.259154319763184,86.578369140625,-11.810302734375,-184.661865234375
3.2499999,1.1779472827911377,12.765883445739746,-10.589553833007812,-1.617431640625,-42.694091796875,-153.717041015625
3.2699999,2.5019407272338867,17.25979995727539,-11.001357078552246,-69.366455078125,18.8446044921875,-41.3360595703125
3.2899999,3.598485231399536,21.588516235351562,-11.832144737243652,-75.592041015625,79.833984375,51.513671875
3.3099999,4.388571739196777,24.332271575927734,-12.349292755126953,-160.064697265625,71.8231201171875,127.1820068359375
3.3299999000000002,4.879383087158203,24.72731590270996,-12.145785331726074,-215.850830078125,56.5948486328125,213.68408203125
3.3499999,5.233725070953369,22.37141990661621,-10.812214851379395,-143.9666748046875,93.7652587890625,255.218505859375
3.3699999,5.5545477867126465,17.851167678833008,-8.382100105285645,-95.27587890625,141.2811279296875,274.0020751953125
3.3899999,5.937620162963867,12.138602256774902,-5.147533416748047,-77.972412109375,161.163330078125,291.4276123046875
3.4099999,6.356605529785156,6.19379997253418,-1.2952631711959839,-30.8074951171875,180.6182861328125,315.1702880859375
3.4299999,6.718130111694336,0.6919242739677429,2.6862943172454834,50.4150390625,199.5391845703125,333.953857421875
3.4499999,6.957550048828125,-4.07014274597168,6.572083473205566,80.3375244140625,225.5706787109375,284.8968505859375
3.4699999,6.801927089691162,-7.65186882019043,10.448296546936035,-107.574462890625,206.1004638671875,152.5726318359375
3.4899999,6.19379997253418,-9.849745750427246,14.013262748718262,-222.65625,105.1177978515625,36.865234375
3.5099999,4.991910457611084,-11.133037567138672,17.496826171875,-94.66552734375,60.72998046875,65.216064453125
3.5299999,3.514688014984131,-11.724405288696289,20.386627197265625,86.73095703125,81.2225341796875,169.43359375
3.5499999,1.9800047874450684,-12.404358863830566,22.562957763671875,43.76220703125,17.9595947265625,117.8436279296875
3.5699999,0.6153098344802856,-13.357251167297363,23.834278106689453,-96.6644287109375,-103.0731201171875,-20.7672119140625
3.5899999,-0.28730419278144836,-14.087482452392578,23.784000396728516,-5.340576171875,-198.150634765625,-67.81005859375
3.6099999,-0.768538773059845,-14.223952293395996,22.191856384277344,109.80224609375,-266.632080078125,-54.718017578125
3.6299999,-0.5434837937355042,-13.836091995239258,18.746599197387695,74.371337890625,-344.05517578125,-62.9730224609375
3.6499999,0.3758896589279175,-12.966996192932129,13.378799438476562,40.2374267578125,-381.744384765625,-88.4857177734375
3.6699999,1.8291701078414917,-12.126631736755371,6.854599475860596,44.6319580078125,-340.14892578125,-122.161865234375
3.6899999,3.5721490383148193,-11.281478881835938,-0.2825157940387726,33.75244140625,-305.7403564453125,-156.1431884765625
3.7099999,5.276820659637451,-10.204087257385254,-7.103596210479736,-43.3197021484375,-289.520263671875,-205.6427001953125
3.7299999,6.57926607131958,-8.544905662536621,-12.701239585876465,-147.9034423828125,-207.8399658203125,-267.1661376953125
3.7499999,7.194576263427734,-6.236895561218262,-16.189592361450195,-189.453125,-66.5130615234375,-298.4161376953125
3.7699999,7.036558628082275,-3.2585084438323975,-17.38190460205078,-63.5833740234375,33.538818359375,-259.1094970703125
3.7899999,6.162675380706787,0.05267243832349777,-16.486473083496094,75.439453125,64.2547607421875,-197.0062255859375
3.8099999,4.93923807144165,3.2632968425750732,-14.33169174194336,83.43505859375,67.5201416015625,-153.4271240234375
3.8299999000000002,3.73016619682312,6.0597243309021,-11.820174217224121,83.19091796875,82.427978515625,-142.5323486328125
3.8499999,2.6408045291900635,8.631096839904785,-9.66299819946289,136.0931396484375,114.776611328125,-124.267578125
3.8699999,1.7501614093780518,11.051634788513184,-8.087613105773926,149.35302734375,148.49853515625,-89.90478515625
3.8899999,0.9624691009521484,13.565546989440918,-7.201758861541748,92.6666259765625,176.483154296875,-37.9486083984375
3.9099999,0.2585737705230713,16.017210006713867,-6.854599475860596,15.960693359375,208.9996337890625,13.12255859375
3.9299999,-0.21308395266532898,17.549497604370117,-6.169857978820801,-96.6796875,245.2545166015625,95.2606201171875
3.9499999,-0.44771572947502136,17.781736373901367,-4.668693542480469,-197.540283203125,251.0528564453125,160.8428955078125
3.9699999,-0.49320554733276367,16.27817726135254,-2.2026655673980713,-229.3853759765625,226.837158203125,205.352783203125
3.9899999,-0.22744916379451752,12.902353286743164,1.1683704853057861,-224.06005859375,191.7724609375,280.5023193359375
4.0099999,0.33997663855552673,7.7763671875,4.738125324249268,-207.794189453125,151.1688232421875,321.47216796875
4.029999900000001,1.216254472732544,0.8978256583213806,8.054094314575195,-211.8377685546875,112.79296875,292.2821044921875
4.0499999,2.5905263423919678,-7.2352776527404785,11.12106704711914,-211.1663818359375,93.6279296875,216.827392578125
4.069999900000001,4.163516521453857,-15.504850387573242,14.075511932373047,-116.9891357421875,95.6573486328125,108.734130859375
4.0899999000000005,5.719748020172119,-21.976377487182617,16.907852172851562,51.6204833984375,84.89990234375,10.0860595703125
4.1099999,6.907271862030029,-25.26361656188965,19.294872283935547,165.9393310546875,38.055419921875,-66.497802734375
4.1299999000000005,7.718906402587891,-25.498249053955078,20.520702362060547,172.9736328125,-54.1534423828125,-96.923828125
4.1499999,8.236053466796875,-23.903709411621094,19.94130516052246,148.9105224609375,-158.4014892578125,-127.74658203125
4.1699999000000005,8.508993148803711,-21.44725799560547,17.156848907470703,159.8663330078125,-225.494384765625,-220.0469970703125
4.1899999,8.161833763122559,-18.440141677856445,12.310985565185547,128.4332275390625,-258.1024169921875,-352.3712158203125
4.209999900000001,7.218518257141113,-14.202404022216797,6.1052141189575195,7.8125,-243.408203125,-401.3824462890625
4.2299999,5.348646640777588,-8.508993148803711,-0.11971008777618408,-101.9439697265625,-147.2930908203125,-392.425537109375
4.249999900000001,2.985569477081299,-1.9153614044189453,-5.058948040008545,-60.4248046875,-5.126953125,-356.9183349609375
4.2699999,0.4381389021873474,4.802768707275391,-8.054094314575195,100.2655029296875,88.8519287109375,-333.9385986328125
4.289999900000001,-2.032677173614502,11.21444034576416,-9.217676162719727,179.26025390625,92.6513671875,-305.7098388671875
4.3099999,-4.268861770629883,17.235858917236328,-9.361329078674316,111.4349365234375,37.7044677734375,-234.0240478515625
4.329999900000001,-6.00226354598999,22.670696258544922,-9.188945770263672,21.0418701171875,14.617919921875,-128.7078857421875
4.3499999,-6.9240312576293945,26.3817081451416,-8.671798706054688,-42.3583984375,48.76708984375,31.707763671875
4.369999900000001,-6.89530086517334,27.722461700439453,-7.934384346008301,-74.6612548828125,77.6214599609375,174.4384765625
4.3899999,-5.875370979309082,26.05370330810547,-6.777985095977783,-75.0579833984375,86.0443115234375,241.3482666015625
4.409999900000001,-4.37420654296875,21.87103271484375,-5.284003257751465,-65.9637451171875,131.2103271484375,260.5743408203125
4.4299999,-2.8610711097717285,16.302120208740234,-3.581725835800171,-55.7708740234375,186.4776611328125,254.241943359375
4.449999900000001,-1.8315643072128296,10.582371711730957,-1.7118542194366455,-61.859130859375,219.2535400390625,250.79345703125
4.4699999,-1.5322890281677246,5.52821159362793,0.2968810200691223,-78.125,242.034912109375,250.0457763671875
4.489999900000001,-1.9177556037902832,1.1204863786697388,2.741360902786255,-142.7001953125,264.95361328125,258.026123046875
4.5099999,-2.674323320388794,-2.940079689025879,6.100425720214844,-298.7060546875,236.02294921875,238.0523681640625
4.529999900000001,-3.4356794357299805,-7.237671852111816,10.556035041809082,-387.969970703125,125.701904296875,222.35107421875
4.5499999,-3.6990416049957275,-11.590330123901367,15.840038299560547,-262.9547119140625,32.012939453125,205.1544189453125
4.569999900000001,-3.157952070236206,-15.641319274902344,21.100099563598633,-152.64892578125,-65.4449462890625,165.191650390625
4.5899999000000005,-1.702277421951294,-18.492813110351562,24.96912956237793,-105.1483154296875,-180.0994873046875,109.130859375
4.609999900000001,0.44532153010368347,-19.49598503112793,26.590003967285156,-32.0587158203125,-270.8892822265625,82.183837890625
4.6299999000000005,2.9951462745666504,-19.02193260192871,25.546133041381836,15.31982421875,-321.47216796875,72.235107421875
4.6499999,5.489904403686523,-17.606958389282227,21.918916702270508,77.2247314453125,-319.76318359375,41.3665771484375
4.6699999000000005,7.6351094245910645,-16.194379806518555,16.34042739868164,105.987548828125,-327.5909423828125,-28.2440185546875
4.6899999,9.136273384094238,-15.31570816040039,9.782708168029785,74.6307373046875,-356.414794921875,-90.6829833984375
4.709999900000001,9.892841339111328,-14.820108413696289,2.9257144927978516,58.3343505859375,-365.0360107421875,-143.7225341796875
4.7299999,9.849745750427246,-13.7882080078125,-3.5170822143554688,65.1702880859375,-320.5413818359375,-207.82470703125
4.749999900000001,9.102754592895508,-11.91354751586914,-8.983044624328613,28.62548828125,-209.28955078125,-230.987548828125
4.7699999,7.943961143493652,-9.071630477905273,-13.10107135772705,-27.618408203125,-101.715087890625,-202.69775390625
4.789999900000001,6.586448669433594,-5.564124584197998,-15.46175479888916,-26.8707275390625,-40.4052734375,-193.145751953125
4.8099999,5.329493045806885,-2.126051187515259,-15.945383071899414,35.614013671875,10.0860595703125,-189.4378662109375
4.829999900000001,4.352658748626709,0.9145850539207458,-14.79377269744873,76.1566162109375,55.11474609375,-189.5904541015625
4.8499999,3.6367924213409424,3.579331636428833,-12.655750274658203,88.287353515625,89.752197265625,-193.3746337890625
4.869999900000001,3.1076738834381104,6.265625953674316,-10.359710693359375,100.311279296875,108.21533203125,-193.389892578125
4.8899999,2.7437551021575928,9.114726066589355,-8.432378768920898,88.7908935546875,136.23046875,-157.5164794921875
4.909999900000001,2.3080103397369385,12.188880920410156,-7.146692276000977,28.5797119140625,184.2193603515625,-109.7412109375
4.9299999,1.86508309841156,14.863204002380371,-6.13633918762207,-89.66064453125,212.3870849609375,-63.751220703125
4.949999900000001,1.3215993642807007,16.433799743652344,-4.862623691558838,-190.00244140625,217.28515625,-19.256591796875
4.9699999,0.7110779285430908,16.46492576599121,-2.983175277709961,-208.9996337890625,217.2698974609375,17.76123046875
4.989999900000001,0.08379705995321274,14.985308647155762,-0.569819986820221,-197.662353515625,204.9102783203125,56.1676025390625
5.0099999,-0.49559974670410156,12.325350761413574,2.097320795059204,-207.70263671875,199.432373046875,97.65625
5.029999900000001,-0.9864110946655273,8.990227699279785,4.853046894073486,-266.2353515625,186.4776611328125,114.3798828125
5.0499999,-1.3048399686813354,4.972756862640381,7.862558364868164,-306.671142578125,143.9056396484375,114.2120361328125
5.069999900000001,-1.2713210582733154,0.24899697303771973,11.274295806884766,-255.43212890625,89.9505615234375,139.984130859375
5.0899999000000005,-0.6560112833976746,-5.106832027435303,15.002067565917969,-206.6650390625,35.6597900390625,167.205810546875
5.109999900000001,0.6344634294509888,-10.656591415405273,18.746599197387695,-207.977294921875,-37.90283203125,129.486083984375
5.1299999000000005,2.5258827209472656,-15.440206527709961,21.799205780029297,-135.2386474609375,-114.898681640625,83.7554931640625
5.1499999,4.563348293304443,-18.370710372924805,23.355438232421875,28.6407470703125,-171.2646484375,28.9154052734375
5.1699999000000005,6.402095317840576,-19.07221031188965,23.08968162536621,102.264404296875,-220.977783203125,-3.1890869140625
5.1899999,7.536946773529053,-17.74582290649414,20.7720947265625,83.3740234375,-290.069580078125,4.6844482421875
5.209999900000001,8.068459510803223,-15.52160930633545,16.58463478088379,66.5283203125,-375.91552734375,-10.040283203125
5.2299999,8.128314971923828,-13.436260223388672,11.008539199829102,73.0133056640625,-397.918701171875,-49.346923828125
5.249999900000001,7.8745293617248535,-11.530475616455078,4.309563159942627,133.4991455078125,-317.07763671875,-142.669677734375
5.2699999,7.613561630249023,-9.799467086791992,-2.564189910888672,105.7586669921875,-194.4427490234375,-179.01611328125
5.289999900000001,7.311892032623291,-7.690176010131836,-8.762778282165527,-4.3792724609375,-144.3939208984375,-179.779052734375
5.3099999,7.003039836883545,-5.188235282897949,-13.204022407531738,-9.857177734375,-97.7935791015625,-175.7965087890625
5.329999900000001,6.742072105407715,-2.585737943649292,-15.538369178771973,128.692626953125,-15.838623046875,-155.0445556640625
5.3499999,6.461950302124023,0.12928688526153564,-16.194379806518555,212.6922607421875,59.7076416015625,-151.031494140625
5.369999900000001,6.1985883712768555,2.851494312286377,-15.605406761169434,135.07080078125,115.7073974609375,-156.5399169921875
5.3899999,5.750872611999512,5.8873419761657715,-14.346056938171387,27.9998779296875,158.3251953125,-175.750732421875
5.409999900000001,5.149928092956543,9.191340446472168,-12.569559097290039,25.7415771484375,173.919677734375,-162.1856689453125
5.4299999,4.2951979637146,12.476184844970703,-10.369287490844727,79.9102783203125,197.906494140625,-120.6817626953125
5.449999900000001,3.2154128551483154,15.504850387573242,-8.118738174438477,67.352294921875,223.5565185546875,-66.3909912109375
5.4699999,2.0638017654418945,17.43936538696289,-5.803544998168945,-46.2493896484375,237.823486328125,-3.0364990234375
5.489999900000001,0.8547300100326538,17.951725006103516,-3.4572272300720215,-153.5186767578125,231.292724609375,41.4581298828125
5.5099999,-0.33997663855552673,16.89827537536621,-1.015141487121582,-165.2374267578125,214.874267578125,67.5201416015625
5.529999900000001,-1.5059528350830078,14.530409812927246,1.525106430053711,-166.168212890625,196.10595703125,105.4534912109375
5.5499999,-2.626439332962036,11.552022933959961,3.7612907886505127,-199.3255615234375,161.2548828125,132.14111328125
5.569999900000001,-3.667917013168335,8.293514251708984,5.537788391113281,-275.4364013671875,97.8851318359375,150.5279541015625
5.5899999000000005,-4.41969633102417,4.388571739196777,7.086836814880371,-342.6971435546875,25.2838134765625,183.28857421875
5.609999900000001,-4.575319290161133,-0.38307225704193115,8.621520042419434,-338.8519287109375,-31.402587890625,227.4322509765625
5.6299999000000005,-3.773261785507202,-6.09324312210083,10.381258964538574,-297.607421875,-89.9200439453125,189.849853515625
5.6499999,-1.9728221893310547,-12.145785331726074,12.382811546325684,-238.9373779296875,-114.2120361328125,130.859375
5.6699999000000005,0.7852981686592102,-17.578227996826172,14.324508666992188,-134.70458984375,-97.015380859375,134.5367431640625
5.6899999,4.050989151000977,-21.2676944732666,15.990873336791992,-3.6468505859375,-76.507568359375,159.423828125
5.709999900000001,7.228095054626465,-22.948423385620117,16.869544982910156,63.3392333984375,-104.766845703125,140.7623291015625
5.7299999,9.947908401489258,-22.59168815612793,16.83123779296875,43.5791015625,-216.8426513671875,78.216552734375
5.749999900000001,11.530475616455078,-21.097705841064453,15.562311172485352,16.998291015625,-269.9432373046875,54.3975830078125
5.7699999,12.054805755615234,-19.170373916625977,12.993332862854004,78.8421630859375,-262.664794921875,43.975830078125
5.789999900000001,11.3269681930542,-17.408241271972656,9.47146224975586,106.8572998046875,-250.0152587890625,-36.3922119140625
5.8099999,9.758766174316406,-15.919047355651855,5.403713226318359,85.63232421875,-251.4801025390625,-101.25732421875
5.829999900000001,7.702147006988525,-14.413094520568848,1.2473790645599365,107.330322265625,-252.1514892578125,-103.4088134765625
5.8499999,5.834669589996338,-12.808979034423828,-2.9544448852539062,194.82421875,-250.823974609375,-49.9267578125
5.869999900000001,4.5825018882751465,-10.807426452636719,-7.0557122230529785,202.9266357421875,-214.6453857421875,-76.96533203125
5.8899999,4.077325344085693,-8.470685958862305,-10.781089782714844,123.47412109375,-106.2469482421875,-158.0963134765625
5.909999900000001,4.228160381317139,-5.767632007598877,-13.687650680541992,64.971923828125,-1.89208984375,-184.600830078125
5.9299999,4.606443881988525,-2.808398485183716,-15.203181266784668,63.629150390625,49.2706298828125,-175.1861572265625
5.949999900000001,5.020640850067139,0.05985504388809204,-15.286977767944336,94.146728515625,72.418212890625,-133.392333984375
5.9699999,5.43723201751709,2.5498247146606445,-14.271836280822754,79.3304443359375,95.88623046875,-94.8028564453125
5.989999900000001,5.9088897705078125,4.489128112792969,-12.641385078430176,21.30126953125,125.79345703125,-78.704833984375
6.0099999,6.356605529785156,5.899312973022461,-10.647014617919922,-16.204833984375,164.794921875,-72.1282958984375
6.029999900000001,6.6391215324401855,6.847416877746582,-8.341399192810059,-25.421142578125,210.296630859375,-60.1043701171875
6.0499999,6.593631267547607,7.386112213134766,-5.719748020172119,-39.1082763671875,254.547119140625,-37.841796875
6.069999900000001,6.167463779449463,7.582436561584473,-2.8874073028564453,-68.145751953125,276.2298583984375,-19.5465087890625
6.0899999000000005,5.34625244140625,7.38132381439209,0.07900865375995636,-99.79248046875,263.7939453125,-13.946533203125
6.109999900000001,4.201824188232422,6.897695064544678,2.956839084625244,-118.438720703125,238.6627197265625,-12.3443603515625
6.1299999000000005,2.868253707885742,6.064512729644775,5.643133640289307,-139.984130859375,204.4525146484375,-15.0299072265625
6.149999900000001,1.2521674633026123,4.876988887786865,7.996633529663086,-162.3992919921875,170.989990234375,-3.7384033203125
6.1699999000000005,-0.2968810200691223,3.337517261505127,10.010157585144043,-183.10546875,139.129638671875,29.0069580078125
6.1899999,-1.8315643072128296,1.3048399686813354,11.908759117126465,-237.701416015625,92.7886962890625,25.5126953125
6.209999900000001,-3.0526070594787598,-1.414973258972168,13.960590362548828,-224.54833984375,27.16064453125,44.6624755859375
6.2299999,-3.663128614425659,-4.721365928649902,16.033967971801758,-91.2322998046875,-32.012939453125,126.77001953125
6.249999900000001,-3.3854012489318848,-8.53293514251709,17.86313819885254,8.5296630859375,-70.9228515625,169.342041015625
6.2699999,-2.054224967956543,-12.133813858032227,18.938135147094727,-21.6217041015625,-113.6322021484375,100.006103515625
6.289999900000001,0.17477671802043915,-14.815320014953613,18.856733322143555,-26.275634765625,-153.8543701171875,56.671142578125
6.3099999,3.004723072052002,-16.139312744140625,17.62611198425293,47.7294921875,-162.5518798828125,83.343505859375
6.329999900000001,5.971138954162598,-16.424222946166992,15.354015350341797,95.21484375,-164.6881103515625,100.03662109375
6.3499999,8.746018409729004,-16.005237579345703,12.342109680175781,115.3564453125,-147.552490234375,58.59375
6.369999900000001,10.92953109741211,-15.344438552856445,9.126696586608887,122.161865234375,-112.1978759765625,-24.566650390625
6.3899999,12.27507209777832,-14.61660099029541,6.0621185302734375,113.372802734375,-103.8360595703125,-46.6461181640625
6.409999900000001,12.653355598449707,-13.563152313232422,3.251325845718384,130.4473876953125,-141.9830322265625,-49.7589111328125
6.4299999,12.215216636657715,-12.126631736755371,0.7086837291717529,111.6485595703125,-169.86083984375,-64.4989013671875
6.449999900000001,11.274295806884766,-10.134655952453613,-1.8315643072128296,73.5931396484375,-140.1214599609375,-105.4840087890625
6.4699999,10.070012092590332,-7.503427982330322,-4.0964789390563965,30.670166015625,-75.50048828125,-146.148681640625
6.489999900000001,8.736441612243652,-4.299986362457275,-5.604825973510742,-16.7388916015625,-27.587890625,-156.036376953125
6.5099999,7.249642848968506,-0.7254431247711182,-5.918466567993164,-29.35791015625,-3.997802734375,-141.998291015625
6.529999900000001,5.813121795654297,2.7700912952423096,-5.109226226806641,3.326416015625,18.9666748046875,-92.1173095703125
6.5499999,4.594472885131836,5.7125654220581055,-3.533841609954834,17.608642578125,42.7398681640625,-18.9361572265625
6.569999900000001,3.780444383621216,7.7883381843566895,-1.7190368175506592,-1.03759765625,51.422119140625,31.5399169921875
6.5899999000000005,3.4141316413879395,8.856152534484863,-0.07182604819536209,9.09423828125,50.262451171875,72.81494140625
6.609999900000001,3.4811692237854004,8.865729331970215,1.094150185585022,47.66845703125,99.090576171875,103.118896484375
6.6299999000000005,3.7900211811065674,8.118738174438477,1.7908629179000854,29.72412109375,105.133056640625,123.3062744140625
6.649999900000001,4.24970817565918,6.907271862030029,2.0446481704711914,-23.1781005859375,95.7794189453125,112.4725341796875
6.6699999000000005,4.656722068786621,5.542576789855957,2.185906171798706,-58.2122802734375,104.583740234375,96.038818359375
6.6899999,4.891354084014893,4.216189384460449,2.5091233253479004,-92.987060546875,122.161865234375,83.038330078125
6.709999900000001,4.7620673179626465,2.628833532333374,3.6080620288848877,-206.207275390625,112.518310546875,51.1474609375
6.7299999,4.2760443687438965,0.42616790533065796,5.920860767364502,-330.474853515625,79.3304443359375,15.899658203125
6.749999900000001,3.4548330307006836,-2.5665841102600098,9.375694274902344,-279.6173095703125,27.557373046875,17.63916015625
6.7699999,2.5905263423919678,-6.387730121612549,13.546393394470215,-125.152587890625,-18.5089111328125,63.446044921875
6.789999900000001,2.008735179901123,-10.613495826721191,17.49921989440918,-65.826416015625,-77.3468017578125,83.343505859375
6.8099999,1.98958158493042,-14.640542984008789,20.226215362548828,-55.5419921875,-150.177001953125,51.7578125
6.829999900000001,2.5474305152893066,-17.705121994018555,21.14319610595703,3.082275390625,-212.7227783203125,8.0108642578125
6.8499999,3.4308910369873047,-19.369091033935547,20.10411262512207,77.3773193359375,-259.09423828125,-15.045166015625
6.869999900000001,4.304774761199951,-19.5582332611084,17.118541717529297,119.415283203125,-289.6575927734375,-14.3280029296875
6.8899999,5.054159641265869,-18.78730010986328,12.33013916015625,118.804931640625,-325.164794921875,-27.6336669921875
6.909999900000001,5.796362400054932,-17.753005981445312,6.133944988250732,112.12158203125,-334.89990234375,-73.944091796875
6.9299999,6.7061591148376465,-16.58942413330078,-1.094150185585022,149.7344970703125,-268.2952880859375,-115.1275634765625
6.949999900000001,7.843404769897461,-15.097835540771484,-8.341399192810059,110.90087890625,-165.191650390625,-149.627685546875
6.9699999,8.880094528198242,-12.753912925720215,-14.535198211669922,-23.468017578125,-95.52001953125,-203.1402587890625
6.989999900000001,9.440337181091309,-9.502586364746094,-18.52872657775879,-102.9205322265625,-37.7960205078125,-236.0687255859375
7.0099999,9.253589630126953,-5.549759387969971,-19.98440170288086,-49.8504638671875,39.5660400390625,-225.4486083984375
7.029999900000001,8.334216117858887,-1.45806884765625,-19.062633514404297,0.8544921875,103.1646728515625,-194.2596435546875
7.0499999,6.933608055114746,2.2457611560821533,-16.493656158447266,-34.210205078125,147.4151611328125,-150.2227783203125
7.069999900000001,5.396530628204346,5.240907669067383,-12.986149787902832,-60.9588623046875,199.859619140625,-109.6649169921875
7.0899999000000005,3.907337188720703,7.359776020050049,-9.095572471618652,-20.20263671875,257.14111328125,-66.83349609375
7.109999900000001,2.607285737991333,8.664615631103516,-5.2672438621521,38.6810302734375,289.2608642578125,-22.430419921875
7.1299999000000005,1.4437036514282227,9.299078941345215,-1.8698714971542358,27.7252197265625,291.4581298828125,14.6331787109375
7.149999900000001,0.4141969084739685,9.421183586120605,0.9265560507774353,-29.5867919921875,246.2921142578125,49.3621826171875
7.1699999000000005,-0.47405192255973816,9.153033256530762,3.0621838569641113,-35.2630615234375,210.784912109375,86.090087890625
7.1899999,-1.2497732639312744,8.451532363891602,4.742913722991943,-46.417236328125,213.7603759765625,102.6763916015625
7.209999900000001,-1.922544002532959,7.115567684173584,6.294356346130371,-167.755126953125,174.86572265625,109.86328125
7.2299999,-2.4636335372924805,4.8051629066467285,8.178592681884766,-319.51904296875,59.0362548828125,120.6207275390625
7.249999900000001,-2.8227639198303223,0.7829039692878723,10.931924819946289,-360.382080078125,-20.3704833984375,130.3863525390625
7.2699999,-2.631227731704712,-4.680664539337158,14.377181053161621,-222.65625,-40.2984619140625,146.636962890625
7.289999900000001,-1.824381709098816,-10.864887237548828,18.10016441345215,-116.7144775390625,-87.249755859375,113.34228515625
7.3099999,-0.3064578175544739,-16.316484451293945,21.186290740966797,-95.0775146484375,-163.787841796875,70.73974609375
7.329999900000001,1.5849615335464478,-19.43134117126465,22.48634147644043,10.80322265625,-218.0328369140625,43.8385009765625
7.3499999,3.4093432426452637,-20.089746475219727,21.736957550048828,74.7528076171875,-261.3983154296875,55.877685546875
7.369999900000001,4.745307922363281,-18.96686553955078,18.83997344970703,27.2216796875,-323.79150390625,53.6346435546875
7.3899999,5.693411827087402,-17.49443244934082,14.015656471252441,-7.32421875,-388.5345458984375,13.8397216796875
7.409999900000001,6.390124320983887,-16.4625301361084,7.728483200073242,28.6102294921875,-405.4107666015625,-52.581787109375
7.4299999,7.079654216766357,-15.933412551879883,0.8331822156906128,36.6058349609375,-346.9085693359375,-117.401123046875
7.449999900000001,7.869740962982178,-15.354015350341797,-6.0621185302734375,-0.9307861328125,-266.3421630859375,-158.8897705078125
7.4699999,8.571242332458496,-14.09466552734375,-11.956643104553223,-40.71044921875,-197.784423828125,-199.9053955078125
7.489999900000001,8.973467826843262,-12.033257484436035,-16.184803009033203,-59.1888427734375,-131.3629150390625,-222.3663330078125
7.5099999,8.918401718139648,-9.188945770263672,-18.502389907836914,-25.57373046875,-52.459716796875,-228.2867431640625
7.529999900000001,8.38449478149414,-5.6670756340026855,-18.9453182220459,23.6968994140625,36.285400390625,-217.46826171875
7.5499999,7.405265808105469,-1.867477297782898,-17.73145866394043,9.0789794921875,110.992431640625,-180.0689697265625
7.569999900000001,6.150704383850098,1.9105730056762695,-15.409082412719727,-20.5535888671875,147.4609375,-156.7230224609375
7.5899999000000005,4.8051629066467285,5.140350818634033,-12.322956085205078,-25.9552001953125,172.6837158203125,-132.0953369140625
7.609999900000001,3.488351821899414,7.577648162841797,-8.983044624328613,-10.1470947265625,217.010498046875,-101.4251708984375
7.6299999000000005,2.27209734916687,9.169792175292969,-5.765237808227539,-17.9443359375,241.973876953125,-86.5631103515625
7.649999900000001,1.2449848651885986,9.964667320251465,-2.935291290283203,-73.5015869140625,228.6834716796875,-61.5997314453125
7.6699999000000005,0.3902548849582672,10.132261276245117,-0.5889736413955688,-119.110107421875,206.54296875,-43.0145263671875
7.6899999,-0.26575639843940735,9.8784761428833,1.3024457693099976,-100.0213623046875,206.1004638671875,-12.8936767578125
7.709999900000001,-0.7876923680305481,9.437943458557129,2.7964274883270264,-37.78076171875,225.9674072265625,42.48046875
7.7299999,-1.2497732639312744,8.992621421813965,3.93367338180542,-20.2789306640625,221.649169921875,98.5870361328125
7.749999900000001,-1.764526605606079,8.482656478881836,4.8051629066467285,-73.2879638671875,191.4215087890625,149.10888671875
7.7699999,-2.315192937850952,7.42681360244751,5.571307182312012,-121.76513671875,160.8428955078125,198.638916015625
7.789999900000001,-2.782062292098999,4.955997467041016,6.651092529296875,-147.5982666015625,139.83154296875,267.9595947265625
7.8099999,-3.043030261993408,0.8571242094039917,8.611943244934082,-231.14013671875,74.89013671875,261.993408203125
7.829999900000001,-2.82515811920166,-5.214571475982666,11.458649635314941,-291.8548583984375,-47.271728515625,180.3741455078125
7.8499999,-1.9369091987609863,-12.528857231140137,14.956578254699707,-234.405517578125,-139.739990234375,146.3470458984375
7.869999900000001,-0.2346317619085312,-19.584569931030273,17.946935653686523,-71.0296630859375,-194.2138671875,121.6888427734375
7.8899999,1.946485996246338,-24.645912170410156,19.50077247619629,17.913818359375,-238.433837890625,55.4656982421875
7.909999900000001,4.400542736053467,-26.79590606689453,18.926164627075195,3.5858154296875,-296.0357666015625,-7.8887939453125
7.9299999,6.63433313369751,-25.965116500854492,16.127342224121094,3.6773681640625,-343.5821533203125,-34.881591796875
7.949999900000001,8.463502883911133,-23.40092658996582,11.683704376220703,42.9534912109375,-352.325439453125,-47.0733642578125
7.9699999,9.751583099365234,-20.336349487304688,6.13633918762207,76.5228271484375,-330.657958984375,-92.6361083984375
7.989999900000001,10.649409294128418,-17.628507614135742,0.08140286058187485,33.14208984375,-310.8367919921875,-156.3262939453125
8.0099999,11.061211585998535,-15.19120979309082,-5.793968200683594,-86.395263671875,-307.7545166015625,-222.7630615234375
8.0299999,11.022904396057129,-12.617443084716797,-10.848128318786621,-173.15673828125,-281.463623046875,-294.3572998046875
8.049999900000001,10.486603736877441,-9.734824180603027,-14.664484977722168,-127.8076171875,-185.1348876953125,-302.398681640625
8.069999900000001,9.411606788635254,-6.433219909667969,-16.838420867919922,-20.2484130859375,-39.2608642578125,-261.8560791015625
8.0899999,7.886500358581543,-2.846705913543701,-17.393875122070312,-8.087158203125,51.6510009765625,-240.0970458984375
8.1099999,6.145915985107422,0.6320692300796509,-16.689979553222656,-66.8792724609375,69.3359375,-230.95703125
8.129999900000001,4.455609321594238,3.7397429943084717,-15.006855964660645,-119.2779541015625,70.098876953125,-211.5631103515625
8.149999900000001,3.0190882682800293,6.335057735443115,-12.734758377075195,-122.528076171875,112.7471923828125,-170.135498046875
8.1699999,1.9081788063049316,8.489839553833008,-10.29746150970459,-102.72216796875,172.9888916015625,-124.755859375
8.1899999,1.1252747774124146,10.180145263671875,-7.939172744750977,-135.43701171875,175.5523681640625,-84.259033203125
8.2099999,0.6584054827690125,11.245565414428711,-5.743690013885498,-223.9990234375,134.918212890625,-34.2559814453125
8.229999900000001,0.5315127968788147,11.532869338989258,-3.646369218826294,-264.3280029296875,122.86376953125,19.71435546875
8.2499999,0.6392518281936646,11.037269592285156,-1.4891934394836426,-193.634033203125,143.5394287109375,37.2314453125
8.2699999,0.9050082564353943,10.036493301391602,0.8810662031173706,-71.990966796875,200.6378173828125,88.531494140625
8.2899999,1.1037269830703735,8.853757858276367,3.3949780464172363,28.50341796875,239.6392822265625,150.390625
8.309999900000001,1.2258312702178955,7.757213592529297,5.781997203826904,88.9434814453125,229.0191650390625,204.315185546875
8.3299999,1.3263877630233765,6.610390663146973,7.7763671875,104.6905517578125,203.7353515625,258.270263671875
8.3499999,1.4532804489135742,4.7189717292785645,9.41639518737793,18.341064453125,155.6243896484375,255.18798828125
8.3699999,1.8626888990402222,1.4293384552001953,11.23598861694336,-183.4564208984375,57.0526123046875,215.1336669921875
8.389999900000001,2.7006595134735107,-3.734954595565796,13.218387603759766,-265.56396484375,-83.343505859375,151.3824462890625
8.4099999,4.137180328369141,-10.304644584655762,15.284584045410156,-153.9459228515625,-181.793212890625,71.3653564453125
8.4299999,5.990292549133301,-16.58463478088379,16.610971450805664,-48.675537109375,-216.6748046875,-36.4990234375
8.4499999,7.915230751037598,-20.925323486328125,16.64688491821289,-101.6845703125,-266.7999267578125,-124.6337890625
8.469999900000001,9.428366661071777,-22.155942916870117,14.798561096191406,-117.7215576171875,-332.45849609375,-185.48583984375
8.4899999,10.27591323852539,-20.616470336914062,11.240777015686035,-118.682861328125,-372.1160888671875,-203.7353515625
8.5099999,10.232817649841309,-16.94137191772461,6.509834289550781,-283.26416015625,-406.341552734375,-288.116455078125
8.5299999,9.418789863586426,-12.11705493927002,1.278503656387329,-500,-424.31640625,-370.54443359375
8.549999900000001,7.898471355438232,-6.775590896606445,-3.3303346633911133,-500,-364.044189453125,-342.987060546875
8.569999900000001,6.081272125244141,-1.5658079385757446,-6.653486728668213,-311.7523193359375,-224.9603271484375,-249.51171875
8.5899999,4.3191399574279785,2.8826189041137695,-8.461109161376953,-75.6683349609375,-78.1402587890625,-219.5892333984375
8.6099999,2.851494312286377,6.133944988250732,-8.89445972442627,-4.3792724609375,8.9263916015625,-263.214111328125
8.629999900000001,1.702277421951294,8.377311706542969,-8.10437297821045,-39.55078125,49.3927001953125,-303.680419921875
8.649999900000001,0.667982280254364,10.33098030090332,-6.165069580078125,-14.3280029296875,80.322265625,-304.046630859375
8.6699999,-0.33518823981285095,12.650961875915527,-3.531447410583496,41.839599609375,56.0150146484375,-261.260986328125
8.6899999,-1.0749965906143188,15.5311861038208,-0.8738836050033569,49.13330078125,-3.875732421875,-176.544189453125
8.709999900000001,-1.4269442558288574,18.928558349609375,1.1875240802764893,-45.989990234375,-41.3970947265625,-104.095458984375
8.729999900000001,-1.37906014919281,22.151153564453125,2.2601263523101807,-115.6158447265625,-44.4183349609375,-58.10546875
8.7499999,-0.9289502501487732,24.31551170349121,2.559401512145996,-117.523193359375,-59.539794921875,33.8287353515625
8.7699999,-0.38546648621559143,24.813507080078125,2.6431987285614014,-129.0435791015625,-94.90966796875,116.4703369140625
8.7899999,0.1149216815829277,23.27403450012207,2.6240451335906982,-72.7386474609375,-119.0338134765625,173.52294921875
8.809999900000001,0.5386953949928284,19.86948013305664,2.185906171798706,52.215576171875,-136.5509033203125,217.498779296875
8.8299999,0.9026140570640564,15.291766166687012,0.9888052940368652,107.0556640625,-134.033203125,242.706298828125
8.8499999,1.314416766166687,9.981427192687988,-0.629675030708313,-6.9580078125,-115.997314453125,226.3336181640625
8.8699999,1.556231141090393,4.268861770629883,-2.980781078338623,-16.9677734375,-91.3238525390625,164.3524169921875
8.889999900000001,1.6543933153152466,-2.030282974243164,-5.726930618286133,57.8765869140625,-76.141357421875,119.9493408203125
8.9099999,1.678335428237915,-8.78432559967041,-9.05487060546875,-15.9454345703125,-97.320556640625,64.2547607421875
8.9299999,1.7573440074920654,-14.798561096191406,-12.562376022338867,-105.1177978515625,-74.03564453125,-51.361083984375
8.9499999,1.7166426181793213,-18.816030502319336,-15.342044830322266,-99.12109375,37.2772216796875,-177.3834228515625
8.969999900000001,1.556231141090393,-19.37388038635254,-16.34760856628418,-66.619873046875,89.0960693359375,-242.3858642578125
8.9899999,0.8307880163192749,-16.2278995513916,-15.164873123168945,-17.0135498046875,76.568603515625,-250.30517578125
9.0099999,-0.4405331015586853,-10.228029251098633,-12.471396446228027,-8.3465576171875,67.9473876953125,-248.3062744140625
9.0299999,-1.889025092124939,-2.5737667083740234,-8.951920509338379,-55.8929443359375,98.8922119140625,-251.739501953125
9.049999900000001,-3.0334534645080566,5.906495571136475,-4.81473970413208,-79.376220703125,141.54052734375,-243.2861328125
9.069999900000001,-3.4763808250427246,15.109807014465332,-0.27054479718208313,2.8533935546875,130.8135986328125,-194.580078125
9.0899999,-3.1531636714935303,24.873361587524414,4.304774761199951,99.9603271484375,79.1778564453125,-96.6644287109375
9.1099999,-2.145204782485962,33.89231872558594,8.209717750549316,44.7540283203125,21.1334228515625,45.2117919921875
9.129999900000001,-1.1803414821624756,40.423702239990234,10.721235275268555,-64.2242431640625,-10.833740234375,180.4962158203125
9.149999900000001,-0.5722141861915588,42.82987594604492,11.441889762878418,-44.25048828125,-51.910400390625,271.0113525390625
9.1699999,-0.828393816947937,40.20582962036133,10.656591415405273,16.41845703125,-76.995849609375,321.9451904296875
9.1899999,-1.8315643072128296,33.17166519165039,8.71489429473877,5.0201416015625,-82.8704833984375,347.65625
9.209999900000001,-3.1651346683502197,23.20220947265625,5.702988624572754,-13.18359375,-95.0775146484375,336.7156982421875
9.229999900000001,-4.668693542480469,11.915942192077637,1.9369091987609863,5.0048828125,-76.47705078125,337.860107421875
9.2499999,-5.719748020172119,0.21308395266532898,-2.300827741622925,65.61279296875,-8.941650390625,339.4775390625
9.2699999,-6.301538944244385,-10.460267066955566,-6.766014099121094,103.057861328125,12.908935546875,225.5706787109375
9.2899999,-5.899312973022461,-19.048269271850586,-10.8720703125,84.5794677734375,-75.4547119140625,40.1458740234375
9.309999900000001,-4.54419469833374,-23.913286209106445,-13.781024932861328,19.9127197265625,-132.1868896484375,-133.85009765625
9.3299999,-2.609679937362671,-24.459163665771484,-14.985308647155762,5.9967041015625,-98.2208251953125,-206.3751220703125
9.3499999,-0.5913678407669067,-20.95644760131836,-14.319720268249512,26.9927978515625,-63.568115234375,-208.31298828125
9.3699999,0.8068459630012512,-14.937424659729004,-12.24394702911377,73.272705078125,-36.4532470703125,-195.6787109375
9.389999900000001,1.37906014919281,-8.307879447937012,-9.742006301879883,85.0372314453125,-22.369384765625,-200.0274658203125
9.4099999,1.2952631711959839,-2.5043349266052246,-7.536946773529053,-13.0157470703125,-30.2886962890625,-224.609375
9.4299999,0.8331822156906128,2.027888774871826,-5.853823184967041,-101.62353515625,-24.3988037109375,-246.2005615234375
9.4499999,0.12210428714752197,5.585672378540039,-4.6255974769592285,-64.453125,-1.8310546875,-257.0343017578125
9.469999900000001,-0.5889736413955688,9.090784072875977,-3.6535518169403076,-18.5394287109375,7.843017578125,-254.364013671875
9.4899999,-0.7996633648872375,13.488932609558105,-2.5234885215759277,-64.1632080078125,8.026123046875,-228.424072265625
9.5099999,-0.2944868206977844,20.094533920288086,-0.8930372595787048,-34.912109375,36.56005859375,-181.915283203125
9.5299999,0.8355764150619507,28.694507598876953,0.8475474119186401,87.615966796875,26.519775390625,-75.958251953125
9.549999900000001,2.1164743900299072,36.849159240722656,2.4612393379211426,61.7828369140625,-30.2581787109375,102.996826171875
9.569999900000001,2.8778305053710938,42.195411682128906,3.4620156288146973,-35.7513427734375,-74.798583984375,248.626708984375
9.5899999,2.631227731704712,42.48031997680664,3.399766445159912,-9.674072265625,-80.6732177734375,297.18017578125
9.6099999,1.5945383310317993,37.16998291015625,2.535459518432617,17.333984375,-78.216552734375,306.8389892578125
9.629999900000001,0.08379705995321274,27.923574447631836,0.9983820915222168,-20.2484130859375,-80.108642578125,301.5289306640625
9.649999900000001,-1.3982137441635132,17.029956817626953,-1.2401964664459229,-48.0194091796875,-72.2503662109375,259.124755859375
9.6699999,-2.652775526046753,6.277596950531006,-3.936067581176758,-0.579833984375,-28.228759765625,190.2923583984375
9.6899999,-3.4380736351013184,-2.9664158821105957,-6.746860504150391,94.9859619140625,18.707275390625,149.871826171875
9.709999900000001,-3.9169139862060547,-10.139444351196289,-9.732429504394531,145.7061767578125,8.7890625,128.0364990234375
9.729999900000001,-3.8331170082092285,-15.308526039123535,-12.593501091003418,77.81982421875,-37.1856689453125,98.052978515625
9.7499999,-3.157952070236206,-18.16480827331543,-15.040374755859375,-23.9410400390625,-46.234130859375,12.3443603515625
9.7699999,-2.1356279850006104,-18.792089462280273,-16.58942413330078,-63.5528564453125,1.1444091796875,-98.3734130859375
9.7899999,-0.9792284965515137,-17.06826400756836,-16.666038513183594,-94.17724609375,32.8369140625,-152.0538330078125
9.809999900000001,-0.14844051003456116,-13.364434242248535,-15.16008472442627,-145.6298828125,32.745361328125,-167.41943359375
9.8299999,0.1843535304069519,-8.619126319885254,-12.598289489746094,-169.647216796875,42.572021484375,-173.6297607421875
9.8499999,0.090979665517807,-3.801992416381836,-9.667786598205566,-173.76708984375,74.8291015625,-179.3060302734375
9.8699999,-0.13168109953403473,0.38307225704193115,-6.737283706665039,-205.8258056640625,94.7113037109375,-176.239013671875
9.889999900000001,-0.43095630407333374,3.866635799407959,-3.7876269817352295,-179.8858642578125,113.8763427734375,-173.1719970703125
9.9099999,-0.6105214357376099,7.151480674743652,-0.6751648783683777,-92.1478271484375,127.6702880859375,-183.53271484375
9.9299999,-0.12928688526153564,10.773907661437988,2.827552318572998,-31.25,122.2381591796875,-178.0853271484375
9.9499999,1.2090718746185303,15.763423919677734,6.794744491577148,24.8260498046875,117.1722412109375,-156.4178466796875
9.969999900000001,3.205836057662964,22.352266311645508,10.441113471984863,116.912841796875,95.5352783203125,-108.5968017578125
9.9899999,5.1331682205200195,28.955474853515625,13.06755256652832,95.15380859375,56.182861328125,0.885009765625
10.0099999,6.275202751159668,33.751060485839844,14.09466552734375,-16.2200927734375,14.1754150390625,120.66650390625
10.0299999,6.102819919586182,35.16603469848633,13.184868812561035,2.288818359375,-31.3262939453125,174.3927001953125
10.049999900000001,4.843470096588135,32.5300178527832,10.96544361114502,55.4351806640625,-54.107666015625,197.3114013671875
10.069999900000001,2.9448680877685547,26.9204044342041,8.068459510803223,32.77587890625,-59.9365234375,216.9036865234375
10.0899999,0.9648633003234863,19.94130516052246,4.754884719848633,2.01416015625,-87.066650390625,219.9249267578125
10.1099999,-0.730231523513794,12.768278121948242,1.213860273361206,11.383056640625,-100.1129150390625,206.329345703125
10.129999900000001,-1.843535304069519,6.200982570648193,-2.2673089504241943,22.918701171875,-80.7037353515625,184.5550537109375
10.149999900000001,-2.3918075561523438,0.7493851184844971,-5.52821159362793,57.8155517578125,-56.640625,164.8406982421875
10.1699999,-2.5091233253479004,-3.6296098232269287,-8.497021675109863,74.6307373046875,-60.8367919921875,160.1715087890625
10.1899999,-2.209848165512085,-7.16584587097168,-11.094730377197266,30.9295654296875,-100.9368896484375,132.75146484375
10.209999900000001,-1.6304513216018677,-9.892841339111328,-13.579912185668945,25.32958984375,-108.2916259765625,57.0220947265625
10.229999900000001,-0.6272808313369751,-11.480196952819824,-15.504850387573242,34.3475341796875,-71.3043212890625,-25.2685546875
10.2499999,0.3208230137825012,-11.714828491210938,-16.484079360961914,-0.9918212890625,-24.078369140625,-91.827392578125
10.2699999,1.1276689767837524,-10.42195987701416,-16.10579490661621,-48.6602783203125,-5.55419921875,-123.443603515625
10.2899999,1.4269442558288574,-8.044517517089844,-14.470555305480957,-50.3387451171875,15.5029296875,-136.16943359375
10.309999900000001,1.316810965538025,-5.135562419891357,-12.038045883178711,-17.852783203125,61.370849609375,-156.7840576171875
10.3299999,0.8523358106613159,-2.1595699787139893,-9.430760383605957,-14.3890380859375,98.0682373046875,-181.5643310546875
10.3499999,0.2346317619085312,0.6703764796257019,-7.017405033111572,-47.9278564453125,115.203857421875,-196.47216796875
10.3699999,-0.48602294921875,3.445256233215332,-4.862623691558838,-53.7567138671875,138.336181640625,-203.18603515625
10.389999900000001,-1.0247182846069336,6.509834289550781,-2.7940332889556885,-18.6614990234375,164.215087890625,-211.2274169921875
10.4099999,-1.0127472877502441,10.587160110473633,-0.3687070608139038,26.79443359375,180.3741455078125,-208.49609375
10.4299999,-0.17956513166427612,16.567874908447266,2.7916390895843506,85.6781005859375,179.351806640625,-178.2989501953125
10.4499999,0.9864110946655273,24.583663940429688,6.110002517700195,157.6385498046875,135.986328125,-85.235595703125
10.469999900000001,2.279279947280884,32.60424041748047,8.834604263305664,100.830078125,37.7655029296875,95.5657958984375
10.4899999,2.985569477081299,38.16118240356445,10.079588890075684,-1.8768310546875,-34.85107421875,259.002685546875
10.5099999,2.920926094055176,38.89380645751953,9.526528358459473,15.1824951171875,-49.9114990234375,314.3768310546875
10.5299999,2.27209734916687,34.0958251953125,7.692570209503174,62.7288818359375,-37.1856689453125,296.2799072265625
10.549999900000001,1.3192051649093628,25.481489181518555,5.317522048950195,44.0521240234375,-32.470703125,260.894775390625
10.569999900000001,0.33518823981285095,15.5311861038208,2.9233202934265137,7.568359375,-53.3599853515625,225.982666015625
10.5899999,-0.5291185975074768,6.145915985107422,0.6368576288223267,13.153076171875,-79.681396484375,193.3441162109375
10.6099999,-1.0749965906143188,-1.6400281190872192,-1.6208745241165161,41.6107177734375,-94.0093994140625,160.5224609375
10.629999900000001,-1.5083470344543457,-7.7643961906433105,-4.098873138427734,70.8465576171875,-111.3739013671875,99.853515625
10.649999900000001,-1.6136919260025024,-12.634202003479004,-7.268796443939209,88.287353515625,-147.9034423828125,56.2744140625
10.6699999,-1.137245774269104,-16.067487716674805,-11.027692794799805,65.3228759765625,-166.7327880859375,14.190673828125
10.6899999,-0.17717093229293823,-17.523162841796875,-14.911087989807129,51.0711669921875,-96.160888671875,-70.281982421875
10.709999900000001,1.194706678390503,-16.666038513183594,-18.028339385986328,70.4193115234375,2.166748046875,-143.6767578125
10.729999900000001,2.5546131134033203,-13.512874603271484,-19.476831436157227,71.1822509765625,37.9791259765625,-162.017822265625
10.7499999,3.28963303565979,-8.880094528198242,-19.177555084228516,83.9691162109375,45.2117919921875,-180.96923828125
10.7699999,3.3925838470458984,-3.7876269817352295,-17.642871856689453,118.1640625,89.630126953125,-191.131591796875
10.7899999,2.9233202934265137,1.0271124839782715,-15.512032508850098,142.120361328125,168.304443359375,-165.3594970703125
10.809999900000001,2.1284453868865967,5.305551052093506,-13.42668342590332,153.1982421875,216.827392578125,-155.5023193359375
10.8299999,1.1468225717544556,9.20091724395752,-11.686098098754883,158.5845947265625,230.6365966796875,-143.4783935546875
10.8499999,0.10534487664699554,12.854469299316406,-10.450690269470215,175.7659912109375,259.5672607421875,-114.044189453125
10.8699999,-0.9169792532920837,16.318878173828125,-9.715670585632324,181.396484375,320.1141357421875,-54.5654296875
10.889999900000001,-1.8722656965255737,19.31402587890625,-9.172186851501465,126.0986328125,360.5804443359375,-3.9215087890625
10.9099999,-2.8107926845550537,21.171926498413086,-8.413225173950195,46.3409423828125,372.6043701171875,27.4658203125
10.9299999,-3.7852327823638916,21.459230422973633,-7.089231014251709,0.8697509765625,368.6370849609375,54.1534423828125
10.9499999,-4.73573112487793,19.965248107910156,-4.8482584953308105,-7.7362060546875,387.2222900390625,101.3946533203125
10.969999900000001,-5.506663799285889,17.209522247314453,-1.8579005002975464,4.4403076171875,415.435791015625,171.0968017578125
10.9899999,-5.935225963592529,13.843274116516113,1.534683346748352,-2.960205078125,380.9356689453125,212.4481201171875
11.0099999,-5.863399982452393,10.299856185913086,5.015852451324463,-65.91796875,293.7469482421875,260.3302001953125
11.0299999,-5.288791656494141,6.794744491577148,8.17141056060791,-73.333740234375,223.8616943359375,323.2421875
11.049999900000001,-4.278438568115234,3.0789434909820557,10.986991882324219,-0.7171630859375,208.6334228515625,392.181396484375
11.069999900000001,-3.0406360626220703,-0.8164227604866028,13.278243064880371,103.3172607421875,202.667236328125,430.7861328125
11.0899999,-1.7693150043487549,-4.726154327392578,15.114595413208008,74.40185546875,154.4647216796875,408.63037109375
11.1099999,-0.9696516990661621,-8.662221908569336,17.003620147705078,-106.99462890625,67.1844482421875,340.75927734375
11.129999900000001,-0.608127236366272,-12.461819648742676,19.07221031188965,-87.1734619140625,-3.631591796875,343.9483642578125
11.149999900000001,-0.6943184733390808,-16.144102096557617,21.119253158569336,97.7020263671875,-82.1075439453125,372.1771240234375
11.1699999,-0.8547300100326538,-19.45288848876953,22.500707626342773,130.5694580078125,-178.924560546875,302.581787109375
11.1899999,-0.7661445140838623,-22.280441284179688,22.41691017150879,-51.6510009765625,-295.501708984375,193.78662109375
11.209999900000001,-0.2346317619085312,-24.205379486083984,19.86708641052246,-88.958740234375,-414.1998291015625,115.7684326171875
11.229999900000001,0.5578489899635315,-25.266010284423828,15.569493293762207,-4.45556640625,-456.268310546875,51.971435546875
11.2499999,1.2665326595306396,-25.373748779296875,9.876082420349121,81.35986328125,-419.830322265625,-9.979248046875
11.2699999,1.86508309841156,-24.935609817504883,3.383007049560547,74.737548828125,-415.496826171875,-42.17529296875
11.2899999,2.2194249629974365,-23.896526336669922,-2.9879636764526367,-22.8729248046875,-410.3546142578125,-96.4813232421875
11.309999900000001,2.410961151123047,-22.450429916381836,-8.631096839904785,-52.947998046875,-308.3648681640625,-174.4842529296875
11.3299999,2.5450363159179688,-20.451271057128906,-13.024456977844238,7.8125,-191.5283203125,-209.6710205078125
11.3499999,2.5450363159179688,-17.779342651367188,-15.662867546081543,29.296875,-104.1717529296875,-216.4306640625
11.3699999,2.38462495803833,-14.460978507995605,-16.553510665893555,-10.0860595703125,-55.5267333984375,-230.8349609375
11.389999900000001,2.126051187515259,-10.802638053894043,-16.115371704101562,-40.557861328125,-33.8897705078125,-255.2337646484375
11.4099999,1.9081788063049316,-7.024587631225586,-14.867992401123047,-45.6695556640625,-9.1705322265625,-268.9971923828125
11.4299999,1.7932571172714233,-3.375824451446533,-13.182474136352539,-51.971435546875,44.281005859375,-244.5068359375
11.4499999,1.7980455160140991,0.11971008777618408,-11.461043357849121,-51.1627197265625,88.592529296875,-215.118408203125
11.469999900000001,1.9943699836730957,3.308786630630493,-9.95748519897461,-43.1976318359375,102.8900146484375,-194.7784423828125
11.4899999,2.293645143508911,6.021417140960693,-8.75080680847168,-55.3741455078125,111.1907958984375,-176.422119140625
11.5099999,2.6240451335906982,8.200140953063965,-7.987056732177734,-89.0350341796875,132.38525390625,-140.350341796875
11.5299999,2.9041666984558105,9.560047149658203,-7.328651428222656,-130.9356689453125,177.18505859375,-66.680908203125
11.549999900000001,2.8778305053710938,10.168174743652344,-6.4595561027526855,-142.5018310546875,229.3701171875,-19.9737548828125
11.569999900000001,2.5665841102600098,10.132261276245117,-5.085284233093262,-104.9957275390625,259.6282958984375,-5.706787109375
11.5899999,2.10210919380188,9.627084732055664,-3.24414324760437,-69.7784423828125,273.406982421875,38.9556884765625
11.6099999,1.6352397203445435,8.93037223815918,-1.259350061416626,-70.49560546875,273.681640625,86.578369140625
11.629999900000001,1.357512354850769,7.994239330291748,0.6655880808830261,-96.49658203125,270.172119140625,127.7313232421875
11.649999900000001,1.161187767982483,6.629544734954834,2.470816135406494,-149.688720703125,263.519287109375,172.119140625
11.6699999,0.9241618514060974,4.388571739196777,4.4292731285095215,-247.7569580078125,217.83447265625,193.1915283203125
11.6899999,0.5602431893348694,0.8427590131759644,6.75883150100708,-362.8692626953125,144.622802734375,221.6644287109375
11.709999900000001,0.2801215946674347,-3.914519786834717,9.222464561462402,-380.0811767578125,44.7845458984375,238.5101318359375
11.729999900000001,0.4141969084739685,-9.792284965515137,11.827356338500977,-338.2110595703125,-36.3311767578125,232.4676513671875
11.7499999,1.3024457693099976,-15.854403495788574,13.850457191467285,-271.8353271484375,-104.1259765625,171.417236328125
11.7699999,2.959233283996582,-20.89659309387207,14.856021881103516,-160.858154296875,-159.9578857421875,78.0181884765625
11.7899999,5.228936672210693,-24.016237258911133,14.67406177520752,-101.5777587890625,-188.201904296875,25.543212890625
11.809999900000001,7.647080421447754,-24.72013282775879,12.983756065368652,-88.8214111328125,-228.0731201171875,-14.4805908203125
11.8299999,9.749189376831055,-23.707386016845703,10.247182846069336,-91.278076171875,-284.4390869140625,-56.7474365234375
11.8499999,11.262324333190918,-22.158336639404297,6.828263282775879,48.8433837890625,-290.7257080078125,-84.014892578125
11.8699999,11.84650993347168,-20.520702362060547,3.0550012588500977,363.4033203125,-187.530517578125,-112.0147705078125
11.889999900000001,11.405977249145508,-19.20389175415039,-0.15801730751991272,425.140380859375,-120.3155517578125,-163.4063720703125
11.9099999,10.225635528564453,-17.86553382873535,-2.5905263423919678,316.5435791015625,-127.7618408203125,-173.004150390625
11.9299999,8.473079681396484,-16.294937133789062,-3.7876269817352295,266.1285400390625,-152.64892578125,-176.33056640625
11.9499999,6.584054470062256,-14.561534881591797,-4.268861770629883,380.9356689453125,-134.033203125,-193.7713623046875
11.969999900000001,4.90571928024292,-12.492944717407227,-4.649539470672607,477.081298828125,-103.7445068359375,-209.9609375
11.9899999,3.531447410583496,-10.163386344909668,-5.154716491699219,347.6409912109375,-114.3341064453125,-230.712890625
12.0099999,2.7126305103302,-7.924807548522949,-5.954379558563232,246.27685546875,-102.5543212890625,-204.0557861328125
12.0299999,2.3319525718688965,-5.714959621429443,-6.842628479003906,341.2322998046875,-67.6116943359375,-194.488525390625
12.049999900000001,2.427720546722412,-3.998316764831543,-7.527369976043701,358.0780029296875,-59.2803955078125,-187.5457763671875
12.069999900000001,2.779668092727661,-2.4660277366638184,-8.22887134552002,295.135498046875,-54.229736328125,-159.7137451171875
12.0899999,3.201047658920288,-0.8044517636299133,-8.937555313110352,253.0670166015625,-25.7110595703125,-133.5601806640625
12.1099999,3.6511576175689697,0.6871358752250671,-9.39245319366455,159.9273681640625,0.396728515625,-109.619140625
12.129999900000001,4.129997730255127,1.8363527059555054,-9.495404243469238,72.052001953125,23.6968994140625,-91.4459228515625
12.149999900000001,4.6255974769592285,2.513911724090576,-9.208099365234375,51.3458251953125,56.640625,-83.2672119140625
12.1699999,5.169081687927246,2.7222073078155518,-8.611943244934082,37.9791259765625,91.583251953125,-70.49560546875
12.1899999,5.767632007598877,2.5737667083740234,-7.740454196929932,-7.965087890625,128.23486328125,-54.8248291015625
12.209999900000001,6.3949127197265625,2.0925323963165283,-6.519411087036133,-56.732177734375,161.07177734375,-42.6177978515625
12.229999900000001,6.998251438140869,1.41257905960083,-4.972756862640381,-58.6700439453125,171.8597412109375,-46.4019775390625
12.2499999,7.50582218170166,0.6033388376235962,-3.1866824626922607,-59.6160888671875,168.0908203125,-51.3916015625
12.2699999,7.735665798187256,0.021547814831137657,-1.6831238269805908,-103.45458984375,175.1556396484375,-57.0526123046875
12.289999900000002,7.510610580444336,-0.26575639843940735,-0.5267243981361389,-240.1275634765625,205.0628662109375,-55.694580078125
12.309999900000001,6.603208065032959,-0.7230489253997803,0.7398083209991455,-456.3751220703125,252.25830078125,-25.238037109375
12.3299999,5.22175407409668,-1.6160861253738403,2.4444799423217773,-500,224.2431640625,-6.3018798828125
12.3499999,3.579331636428833,-3.2154128551483154,4.807557106018066,-500,123.9471435546875,-4.1961669921875
12.3699999,2.1475989818573,-5.693411827087402,7.726089000701904,-499.6337890625,114.4561767578125,38.4979248046875
12.389999900000001,1.403002142906189,-8.343792915344238,10.745177268981934,-499.5269775390625,104.217529296875,48.76708984375
12.4099999,1.400607943534851,-10.819397926330566,12.931083679199219,-499.6185302734375,-15.0604248046875,39.1845703125
12.4299999,2.3295583724975586,-13.15853214263916,14.405911445617676,-499.3896484375,-162.65869140625,62.5152587890625
12.4499999,4.034229755401611,-15.057134628295898,13.900734901428223,-499.542236328125,-266.0675048828125,48.3551025390625
12.469999900000001,6.19379997253418,-16.505626678466797,11.367670059204102,-500,-235.9466552734375,-3.35693359375
12.4899999,8.2312650680542,-17.298107147216797,7.261613845825195,-488.2049560546875,-164.8712158203125,-47.7142333984375
12.5099999,9.607931137084961,-17.049110412597656,2.2816741466522217,-425.628662109375,-144.0277099609375,-53.7567138671875
12.5299999,9.914389610290527,-15.866374969482422,-2.4899697303771973,-319.4580078125,-152.069091796875,-6.1187744140625
12.549999900000001,9.39245319366455,-14.135366439819336,-6.296750545501709,-233.0780029296875,-142.913818359375,21.0723876953125
12.569999900000001,8.154650688171387,-12.45703125,-8.791508674621582,-186.2945556640625,-92.3309326171875,-19.71435546875
12.5899999,6.687005519866943,-11.046846389770508,-9.911994934082031,-121.6278076171875,-41.4886474609375,-84.320068359375
12.6099999,5.183446884155273,-9.840168952941895,-9.543288230895996,-65.73486328125,-23.8800048828125,-115.447998046875
12.629999900000001,3.7924153804779053,-8.779537200927734,-7.989450931549072,-47.1038818359375,-32.8369140625,-130.4931640625
12.649999900000001,2.762908697128296,-7.836222171783447,-5.983109951019287,5.0048828125,-50.9185791015625,-146.1029052734375
12.6699999,2.10210919380188,-6.981492042541504,-4.125209331512451,91.217041015625,-62.255859375,-188.1103515625
12.6899999,1.7884687185287476,-6.074089527130127,-2.9017724990844727,168.8690185546875,-89.1571044921875,-257.32421875
12.709999900000001,1.558625340461731,-4.9583916664123535,-2.410961151123047,209.564208984375,-129.39453125,-300.1708984375
12.729999900000001,1.3623007535934448,-3.6296098232269287,-2.691082715988159,237.5946044921875,-173.5687255859375,-311.4166259765625
12.7499999,0.8571242094039917,-2.1739351749420166,-3.8594532012939453,277.069091796875,-217.864990234375,-345.489501953125
12.7699999,0.43335050344467163,-0.8930372595787048,-6.1985883712768555,367.7520751953125,-190.460205078125,-331.2835693359375
12.789999900000002,0.18914192914962769,0.004788403399288654,-9.349357604980469,383.453369140625,-98.2666015625,-247.2991943359375
12.809999900000001,0.4405331015586853,0.33758243918418884,-12.717999458312988,277.7099609375,-37.4298095703125,-213.92822265625
12.8299999,1.0654197931289673,0.09816227108240128,-15.310919761657715,237.48779296875,-2.0904541015625,-234.3902587890625
12.8499999,1.867477297782898,-0.5530605912208557,-16.560693740844727,262.0391845703125,25.7568359375,-237.5946044921875
12.8699999,2.6839001178741455,-1.4915876388549805,-16.488866806030273,244.2779541015625,31.524658203125,-204.0557861328125
12.889999900000001,3.4404678344726562,-2.432508945465088,-15.411476135253906,195.86181640625,46.2799072265625,-180.328369140625
12.9099999,4.211400985717773,-3.1914708614349365,-13.802573204040527,187.652587890625,91.7510986328125,-174.560546875
12.9299999,4.977545261383057,-3.7014358043670654,-12.05959415435791,205.8868408203125,143.096923828125,-169.1436767578125
12.9499999,5.592854976654053,-3.8570590019226074,-10.412383079528809,164.48974609375,172.8057861328125,-174.7283935546875
12.969999900000001,5.815515995025635,-3.6942532062530518,-8.877699851989746,73.8525390625,186.9964599609375,-172.5616455078125
12.9899999,5.796362400054932,-3.3518824577331543,-7.4770917892456055,12.237548828125,199.7528076171875,-129.94384765625
13.0099999,5.566518783569336,-3.021482467651367,-6.205770969390869,-14.95361328125,186.6455078125,-94.8486328125
13.0299999,5.319916248321533,-2.695871114730835,-5.171475887298584,-68.115234375,152.40478515625,-93.597412109375
13.049999900000001,5.118803024291992,-2.252943754196167,-4.4508209228515625,-139.068603515625,130.340576171875,-98.57177734375
13.069999900000001,4.98472785949707,-1.6687586307525635,-4.079719543457031,-147.1710205078125,130.55419921875,-75.592041015625
13.0899999,4.8937482833862305,-0.849941611289978,-4.0078935623168945,-93.658447265625,139.5721435546875,-44.281005859375
13.1099999,4.8267107009887695,0.07900865375995636,-4.079719543457031,-86.4715576171875,151.8096923828125,-35.15625
13.129999900000001,4.786009311676025,0.8834604024887085,-4.132391929626465,-126.220703125,175.47607421875,-25.9552001953125
13.149999900000001,4.929661273956299,1.3623007535934448,-3.9863457679748535,-93.7957763671875,232.6812744140625,20.8587646484375
13.1699999,5.142745018005371,1.3192051649093628,-3.251325845718384,16.3421630859375,340.02685546875,31.6314697265625
13.1899999,5.202600479125977,0.8020575642585754,-1.403002142906189,87.0208740234375,490.1580810546875,29.510498046875
13.209999900000001,4.651933670043945,-0.26096799969673157,1.9512743949890137,10.3302001953125,499.9847412109375,65.7196044921875
13.229999900000001,3.2824504375457764,-2.3798365592956543,7.726089000701904,-238.8763427734375,499.9847412109375,106.8572998046875
13.2499999,1.3838485479354858,-5.652710437774658,16.239870071411133,-367.523193359375,414.4744873046875,80.9173583984375
13.2699999,-0.524330198764801,-9.248801231384277,24.758440017700195,-49.5452880859375,16.17431640625,23.223876953125
13.289999900000002,-1.4460978507995605,-12.54801082611084,31.373619079589844,123.687744140625,-270.1263427734375,-23.7274169921875
13.309999900000001,-1.137245774269104,-14.554351806640625,33.626564025878906,-17.0745849609375,-361.785888671875,-82.000732421875
13.3299999,0.1412578970193863,-15.059528350830078,30.93787384033203,-62.3779296875,-358.4747314453125,-134.5672607421875
13.3499999,1.8770540952682495,-14.81771469116211,25.100811004638672,3.692626953125,-367.1417236328125,-157.1502685546875
13.3699999,3.3710360527038574,-14.18564510345459,17.956512451171875,45.2117919921875,-404.23583984375,-184.478759765625
13.389999900000001,4.158728122711182,-12.868834495544434,10.445901870727539,15.8538818359375,-440.0177001953125,-264.1448974609375
13.4099999,4.2760443687438965,-10.460267066955566,3.2369606494903564,-103.2257080078125,-399.84130859375,-339.7216796875
13.4299999,3.8307228088378906,-7.12035608291626,-2.734178304672241,-285.2325439453125,-264.83154296875,-334.9151611328125
13.4499999,2.9448680877685547,-2.674323320388794,-7.043741226196289,-336.0748291015625,-149.7039794921875,-351.715087890625
13.469999900000001,1.7812861204147339,2.671929121017456,-9.397241592407227,-244.9951171875,-66.7572021484375,-341.827392578125
13.4899999,0.4141969084739685,9.246406555175781,-10.098742485046387,-116.973876953125,39.0625,-250.091552734375
13.5099999,-0.9481038451194763,16.802507400512695,-9.856928825378418,-14.373779296875,136.016845703125,-110.5804443359375
13.5299999,-1.9943699836730957,23.93962287902832,-8.743624687194824,-38.7420654296875,136.9476318359375,39.9169921875
13.549999900000001,-2.4396915435791016,28.828582763671875,-6.782773494720459,-76.446533203125,78.826904296875,185.1959228515625
13.569999900000001,-2.1715409755706787,29.64979362487793,-3.957615375518799,-3.41796875,52.4749755859375,297.79052734375
13.5899999,-1.2282254695892334,25.804706573486328,-0.6320692300796509,88.80615234375,56.2286376953125,365.4327392578125
13.6099999,0.07900865375995636,17.839197158813477,2.8874073028564453,147.64404296875,85.601806640625,405.7464599609375
13.629999900000001,1.3287819623947144,6.605602264404297,6.339846134185791,155.517578125,111.785888671875,406.3262939453125
13.649999900000001,2.5067291259765625,-7.201758861541748,10.32858657836914,-102.6458740234375,22.796630859375,309.1888427734375
13.6699999,3.3016040325164795,-20.84152603149414,14.18564510345459,-347.22900390625,-187.6983642578125,22.1099853515625
13.6899999,3.818751811981201,-31.273061752319336,16.668432235717773,-177.8564453125,-292.7398681640625,-212.3260498046875
13.709999900000001,4.043806552886963,-36.09737777709961,16.4816837310791,-9.552001953125,-271.66748046875,-253.4027099609375
13.729999900000001,3.971980571746826,-33.97372055053711,12.684480667114258,-27.9541015625,-218.719482421875,-257.2174072265625
13.7499999,3.471592426300049,-26.42719841003418,5.925649166107178,-91.6595458984375,-163.14697265625,-301.1322021484375
13.7699999,2.741360902786255,-16.266206741333008,-1.944091796875,-143.9361572265625,-92.437744140625,-320.9228515625
13.789999900000002,1.7884687185287476,-5.590460777282715,-8.889671325683594,-152.984619140625,8.1787109375,-312.7288818359375
13.809999900000001,0.8810662031173706,4.532223701477051,-13.596671104431152,-44.1131591796875,116.424560546875,-275.970458984375
13.8299999,0.14365209639072418,14.085088729858398,-15.739481925964355,113.800048828125,206.54296875,-224.2279052734375
13.8499999,-0.33997663855552673,23.02264404296875,-15.471331596374512,149.9176025390625,271.3623046875,-142.4102783203125
13.8699999,-0.7781155705451965,30.226797103881836,-13.218387603759766,0.06103515625,270.7672119140625,-29.3731689453125
13.889999900000001,-1.0773907899856567,34.39749526977539,-9.354146003723145,-147.3541259765625,199.8138427734375,82.4737548828125
13.9099999,-1.3120225667953491,34.40228271484375,-4.383783340454102,-124.969482421875,129.3792724609375,168.609619140625
13.9299999,-1.2282254695892334,30.267498016357422,0.8188169598579407,-27.9388427734375,66.6351318359375,247.9248046875
13.9499999,-0.751779317855835,23.156719207763672,5.197812080383301,9.1705322265625,-3.72314453125,338.68408203125
13.969999900000001,0.1628057211637497,14.207192420959473,8.20492935180664,32.7606201171875,-41.0003662109375,416.07666015625
13.9899999,1.3407529592514038,3.7636849880218506,9.945513725280762,125.6256103515625,-25.57373046875,434.6466064453125
14.0099999,2.782062292098999,-8.1139497756958,11.159374237060547,209.5489501953125,-3.0364990234375,380.2947998046875
14.0299999,4.24970817565918,-20.336349487304688,12.653355598449707,98.0682373046875,-10.2996826171875,193.1915283203125
14.049999900000001,5.549759387969971,-30.418333053588867,14.180856704711914,-134.4451904296875,-158.0963134765625,-63.1103515625
14.069999900000001,6.344634532928467,-35.81486511230469,14.585476875305176,-77.880859375,-300.933837890625,-210.51025390625
14.0899999,6.672640323638916,-35.43897247314453,13.139378547668457,37.078857421875,-295.0592041015625,-212.5091552734375
14.1099999,6.313509941101074,-29.59233283996582,8.937555313110352,37.17041015625,-251.5411376953125,-223.14453125
14.129999900000001,5.530605792999268,-20.997148513793945,2.786850690841675,-43.3502197265625,-233.5052490234375,-273.37646484375
14.149999900000001,4.455609321594238,-11.851298332214355,-3.8283286094665527,-136.8408203125,-182.31201171875,-311.6912841796875
14.1699999,3.162740468978882,-3.4380736351013184,-9.366117477416992,-156.982421875,-80.0323486328125,-340.3472900390625
14.1899999,1.7836803197860718,4.137180328369141,-12.978967666625977,-85.296630859375,26.9775390625,-354.400634765625
14.209999900000001,0.4141969084739685,11.81059741973877,-14.769830703735352,16.7236328125,113.067626953125,-327.4383544921875
14.229999900000001,-0.9624691009521484,20.159177780151367,-15.277400970458984,11.9781494140625,178.7567138671875,-258.941650390625
14.2499999,-2.389413356781006,27.990612030029297,-14.247894287109375,-165.4205322265625,220.428466796875,-151.397705078125
14.2699999,-3.7684733867645264,33.79415512084961,-11.511322021484375,-313.079833984375,178.192138671875,-26.0009765625
14.289999900000002,-4.960785865783691,35.79331588745117,-6.981492042541504,-224.2584228515625,71.807861328125,118.2708740234375
14.309999900000001,-5.686229228973389,33.13096237182617,-1.235408067703247,-44.281005859375,2.197265625,296.356201171875
14.3299999,-5.75326681137085,26.78872299194336,4.206612586975098,40.8477783203125,-33.966064453125,425.6439208984375
14.3499999,-5.018246650695801,17.724275588989258,8.216899871826172,-22.9949951171875,-80.7952880859375,452.0721435546875
14.3699999,-3.2752678394317627,6.596025466918945,10.716446876525879,-226.07421875,-178.03955078125,384.27734375
14.389999900000001,-0.9648633003234863,-5.363011837005615,11.702857971191406,-320.2667236328125,-285.94970703125,228.9276123046875
14.4099999,1.8914192914962769,-17.0012264251709,11.164162635803223,-206.6497802734375,-329.8797607421875,103.69873046875
14.4299999,4.683058738708496,-26.142288208007812,8.923190116882324,-122.2381591796875,-368.6676025390625,-5.67626953125
14.4499999,6.696582317352295,-30.8085880279541,5.149928092956543,-8.3160400390625,-334.930419921875,-127.0294189453125
14.469999900000001,7.156269073486328,-30.025684356689453,-0.023942016065120697,166.4581298828125,-229.888916015625,-179.5196533203125
14.4899999,5.822698593139648,-24.05215072631836,-6.145915985107422,201.5838623046875,-225.2349853515625,-165.557861328125
14.5099999,3.0813376903533936,-15.076288223266602,-12.54801082611084,53.466796875,-272.9949951171875,-101.715087890625
14.5299999,0.3064578175544739,-5.70777702331543,-19.110517501831055,-37.8570556640625,-237.8692626953125,-78.338623046875
14.549999900000001,-1.699883222579956,2.1092917919158936,-24.657882690429688,30.1513671875,-47.54638671875,-143.9208984375
14.569999900000001,-2.293645143508911,7.38132381439209,-28.13187026977539,93.07861328125,158.0047607421875,-164.24560546875
14.5899999,-1.8602946996688843,10.436325073242188,-28.572402954101562,25.970458984375,237.4267578125,-145.1568603515625
14.6099999,-0.9816226959228516,12.100295066833496,-25.46472930908203,-63.629150390625,265.19775390625,-129.974365234375
14.629999900000001,0.08858546614646912,13.117831230163574,-19.208681106567383,-47.6226806640625,295.318603515625,-112.48779296875
14.649999900000001,1.1755530834197998,13.941436767578125,-10.931924819946289,21.9573974609375,310.3485107421875,-84.808349609375
14.6699999,2.1045033931732178,14.94221305847168,-1.821987509727478,44.342041015625,320.526123046875,-61.2030029296875
14.6899999,2.229001760482788,15.986084938049316,7.022193431854248,-38.0706787109375,337.95166015625,-68.4661865234375
14.709999900000001,1.4628572463989258,16.989255905151367,14.676456451416016,-64.361572265625,245.330810546875,-36.1480712890625
14.729999900000001,-0.040701430290937424,17.341203689575195,20.10650634765625,16.326904296875,14.404296875,134.3841552734375
14.7499999,-1.699883222579956,16.424222946166992,22.29959487915039,26.2603759765625,-226.0284423828125,335.5712890625
14.7699999,-2.806004285812378,13.888764381408691,20.47281837463379,-23.86474609375,-397.88818359375,409.2254638671875
14.789999900000002,-2.779668092727661,9.691728591918945,14.592658996582031,-50.5523681640625,-500,356.4910888671875
14.809999900000001,-2.276885747909546,4.541800498962402,6.0190229415893555,-30.303955078125,-426.4373779296875,230.2398681640625
14.8299999,-1.4772224426269531,-1.280897855758667,-3.5649664402008057,32.379150390625,-237.8082275390625,185.1043701171875
14.8499999,-1.1013327836990356,-7.805097579956055,-12.717999458312988,24.932861328125,-204.7576904296875,192.3065185546875
14.8699999,-0.9409212470054626,-15.294160842895508,-20.197484970092773,23.2086181640625,-263.1072998046875,224.2279052734375
14.889999900000001,-0.16519992053508759,-22.639572143554688,-25.663448333740234,74.3255615234375,-217.8497314453125,164.5965576171875
14.9099999,0.2537853717803955,-27.957094192504883,-27.993005752563477,151.123046875,46.4935302734375,-30.426025390625
14.9299999,1.1180921792984009,-29.381643295288086,-27.068843841552734,180.35888671875,234.80224609375,-67.138671875
14.9499999,1.5442601442337036,-26.00581932067871,-23.127988815307617,136.138916015625,180.908203125,-46.4935302734375
14.969999900000001,1.946485996246338,-18.813636779785156,-17.266983032226562,95.9930419921875,120.17822265625,-37.3077392578125
14.9899999,2.96162748336792,-10.038887977600098,-11.065999984741211,72.021484375,130.2490234375,-6.2255859375
15.0099999,5.195417881011963,-1.4891934394836426,-5.856217384338379,69.9615478515625,134.82666015625,32.2113037109375
15.0299999,8.643068313598633,5.688623428344727,-2.0207061767578125,82.061767578125,120.7733154296875,43.51806640625
15.049999900000001,12.931083679199219,10.8505220413208,0.17238251864910126,90.0421142578125,90.39306640625,64.8193359375
15.069999900000001,17.264589309692383,14.286201477050781,0.5722141861915588,72.8607177734375,24.0325927734375,72.784423828125
15.0899999,20.633230209350586,15.94777774810791,-0.38546648621559143,12.0391845703125,-29.35791015625,68.1915283203125
15.1099999,22.28762435913086,16.117765426635742,-2.188300371170044,-26.2298583984375,-44.830322265625,73.0438232421875
15.129999900000001,21.99313735961914,15.002067565917969,-4.043806552886963,-15.594482421875,-35.2020263671875,99.822998046875
15.149999900000001,19.886240005493164,12.971784591674805,-5.348646640777588,13.4429931640625,-14.9688720703125,143.035888671875
15.1699999,16.393098831176758,10.457873344421387,-5.949591159820557,13.97705078125,-9.70458984375,192.7337646484375
15.1899999,11.973402976989746,7.625532627105713,-5.985504150390625,0.2899169921875,-1.251220703125,228.271484375
15.209999900000001,6.92881965637207,4.417302131652832,-5.612008571624756,51.0711669921875,48.553466796875,229.6142578125
15.229999900000001,1.3024457693099976,0.304063618183136,-4.853046894073486,175.78125,144.8211669921875,191.6656494140625
15.2499999,-4.702212333679199,-4.967968463897705,-3.7038300037384033,258.1634521484375,223.2513427734375,156.6925048828125
15.2699999,-10.319009780883789,-12.014103889465332,-1.9369091987609863,111.7706298828125,171.8902587890625,163.0859375
15.289999900000002,-14.61660099029541,-20.645200729370117,0.6129156351089478,-135.5438232421875,4.4708251953125,109.588623046875
15.309999900000001,-16.847997665405273,-28.234821319580078,3.220201253890991,-89.0960693359375,-106.1859130859375,-24.505615234375
15.3299999,-16.936582565307617,-32.72394943237305,5.284003257751465,61.03515625,-128.84521484375,-122.0703125
15.3499999,-15.488090515136719,-32.802955627441406,6.074089527130127,43.365478515625,-149.749755859375,-136.383056640625
15.3699999,-13.239935874938965,-28.234821319580078,4.620809078216553,13.8702392578125,-201.7364501953125,-145.9197998046875
15.389999900000001,-10.398017883300781,-21.13601303100586,1.2090718746185303,42.694091796875,-204.193115234375,-153.472900390625
15.4099999,-6.92881965637207,-13.634978294372559,-3.6774938106536865,-6.011962890625,-151.6265869140625,-137.2222900390625
15.4299999,-2.7676970958709717,-6.7277069091796875,-9.35654067993164,-72.32666015625,-71.563720703125,-113.3880615234375
15.4499999,1.7597382068634033,-1.1444283723831177,-14.532804489135742,-68.5577392578125,9.7198486328125,-91.30859375
15.469999900000001,6.224924564361572,3.160346269607544,-18.801666259765625,23.01025390625,68.695068359375,-62.68310546875
15.4899999,10.47942066192627,5.949591159820557,-21.2485408782959,70.98388671875,138.946533203125,31.585693359375
15.5099999,13.795390129089355,7.479485988616943,-21.598093032836914,52.490234375,245.1171875,105.1025390625
15.5299999,16.067487716674805,7.548917770385742,-19.718645095825195,58.441162109375,310.638427734375,109.7564697265625
15.549999900000001,17.0203800201416,6.212953567504883,-15.672444343566895,61.9659423828125,315.12451171875,104.7821044921875
15.569999900000001,16.52956771850586,3.7708675861358643,-10.158597946166992,67.230224609375,301.3916015625,97.0916748046875
15.5899999,14.779407501220703,0.5003881454467773,-4.017470359802246,105.804443359375,305.938720703125,95.245361328125
15.6099999,12.057199478149414,-3.579331636428833,2.190694570541382,94.7418212890625,315.277099609375,77.1484375
15.629999900000001,8.564059257507324,-8.554482460021973,8.468291282653809,-76.416015625,272.308349609375,-13.7939453125
15.649999900000001,4.704606533050537,-14.104242324829102,14.896722793579102,-189.8345947265625,181.70166015625,-134.4451904296875
15.6699999,1.036689281463623,-18.921375274658203,20.77688217163086,-23.406982421875,87.1429443359375,-171.661376953125
15.6899999,-2.1164743900299072,-21.475988388061523,25.005043029785156,188.3087158203125,-5.43212890625,-165.802001953125
15.709999900000001,-4.508281707763672,-20.90377426147461,26.575639724731445,187.80517578125,-107.940673828125,-169.0826416015625
15.729999900000001,-6.09324312210083,-17.757793426513672,25.02419662475586,95.8404541015625,-214.141845703125,-137.176513671875
15.7499999,-7.089231014251709,-13.539210319519043,20.863073348999023,78.7811279296875,-303.40576171875,-95.1080322265625
15.7699999,-7.747636795043945,-9.854534149169922,15.222334861755371,97.5494384765625,-349.30419921875,-89.6759033203125
15.789999900000002,-8.147468566894531,-7.659051418304443,8.808267593383789,78.43017578125,-369.6746826171875,-66.436767578125
15.809999900000001,-8.039729118347168,-6.98628044128418,1.7166426181793213,29.9072265625,-417.083740234375,-40.6646728515625
15.8299999,-7.259219646453857,-7.307103633880615,-5.523423194885254,-9.6588134765625,-411.43798828125,-79.8187255859375
15.8499999,-5.779603004455566,-7.977479934692383,-12.389993667602539,7.5531005859375,-301.6204833984375,-131.3323974609375
15.869999900000002,-3.840299606323242,-7.790732383728027,-18.847156524658203,44.8150634765625,-212.3870849609375,-154.8614501953125
15.889999900000001,-1.479616641998291,-6.382941722869873,-24.270023345947266,63.1256103515625,-158.7982177734375,-101.2725830078125
15.9099999,0.950498104095459,-3.646369218826294,-28.299463272094727,113.95263671875,-26.8096923828125,-33.3709716796875
15.9299999,3.3949780464172363,-0.3016694188117981,-30.43748664855957,150.0701904296875,119.171142578125,-9.674072265625
15.9499999,5.499481201171875,2.655169725418091,-30.01850128173828,100.76904296875,226.6387939453125,23.6968994140625
15.969999900000001,6.983886241912842,4.489128112792969,-26.712108612060547,3.7078857421875,273.9105224609375,75.042724609375
15.9899999,7.972691535949707,4.692635536193848,-20.942081451416016,-76.5838623046875,273.0712890625,123.382568359375
16.0099999,8.7268648147583,3.1076738834381104,-13.75468921661377,-84.2132568359375,263.0767822265625,156.3262939453125
16.0299999,9.739612579345703,-0.1412578970193863,-6.0836663246154785,-69.610595703125,278.2135009765625,168.2281494140625
16.0499999,10.6709566116333,-4.527435302734375,1.2090718746185303,-77.423095703125,322.69287109375,126.6021728515625
16.0699999,11.063606262207031,-9.68933391571045,8.13789176940918,-136.627197265625,360.3668212890625,42.755126953125
16.089999900000002,10.548852920532227,-14.628572463989258,14.717158317565918,-114.5477294921875,303.28369140625,-63.232421875
16.109999900000002,8.796297073364258,-17.671602249145508,20.202274322509766,85.3424072265625,146.4080810546875,-177.6580810546875
16.1299999,6.418854713439941,-18.05228042602539,24.021024703979492,206.787109375,26.8096923828125,-175.9796142578125
16.1499999,3.8283286094665527,-15.385140419006348,25.33304786682129,139.0838623046875,-43.060302734375,-136.016845703125
16.1699999,1.6328455209732056,-10.685321807861328,23.977930068969727,87.9364013671875,-102.8289794921875,-98.0682373046875
16.1899999,0.1412578970193863,-5.722142219543457,20.621259689331055,145.538330078125,-156.8756103515625,-38.9862060546875
16.2099999,-0.6943184733390808,-1.944091796875,16.077064514160156,159.4696044921875,-199.9359130859375,15.777587890625
16.2299999,-1.0797849893569946,-0.05985504388809204,10.83855152130127,92.4224853515625,-242.340087890625,41.68701171875
16.249999900000002,-1.1276689767837524,-0.11971008777618408,5.439626216888428,29.2205810546875,-260.4522705078125,47.42431640625
16.269999900000002,-1.1563993692398071,-1.5322890281677246,0.2106897532939911,17.9290771484375,-238.8763427734375,35.09521484375
16.2899999,-1.0845733880996704,-3.44765043258667,-4.771644115447998,19.8516845703125,-218.07861328125,14.34326171875
16.3099999,-0.7972691655158997,-5.0876784324646,-9.260771751403809,-5.37109375,-183.3953857421875,15.0909423828125
16.3299999,-0.3423708379268646,-5.858611583709717,-12.854469299316406,-21.026611328125,-97.96142578125,26.85546875
16.3499999,0.3878606855869293,-5.738901615142822,-15.01164436340332,3.692626953125,-22.0184326171875,31.6619873046875
16.3699999,1.256955862045288,-5.097255229949951,-15.416264533996582,61.70654296875,11.8408203125,54.7943115234375
16.3899999,2.099714994430542,-4.268861770629883,-14.369998931884766,79.7576904296875,8.9111328125,63.9495849609375
16.4099999,2.9161376953125,-3.469198226928711,-12.725181579589844,40.5426025390625,-9.6282958984375,29.022216796875
16.429999900000002,3.6990416049957275,-2.676717519760132,-11.259930610656738,-13.1683349609375,7.904052734375,9.2620849609375
16.4499999,4.599261283874512,-1.8794482946395874,-10.053253173828125,-49.1790771484375,73.2421875,63.3392333984375
16.4699999,5.56173038482666,-1.4437036514282227,-8.951920509338379,-47.5921630859375,156.6009521484375,163.3148193359375
16.4899999,6.763619899749756,-1.900996208190918,-7.3669586181640625,-39.031982421875,230.6976318359375,252.105712890625
16.5099999,8.355764389038086,-3.931279182434082,-5.027823448181152,-68.78662109375,267.6849365234375,287.8570556640625
16.5299999,10.292673110961914,-7.374141216278076,-1.9728221893310547,-88.1500244140625,248.59619140625,226.0284423828125
16.5499999,12.109871864318848,-11.487380027770996,1.4891934394836426,-51.94091796875,206.97021484375,131.2713623046875
16.5699999,13.443442344665527,-15.310919761657715,5.054159641265869,-31.097412109375,186.1114501953125,84.4268798828125
16.589999900000002,13.5870943069458,-18.17677879333496,8.53532886505127,-67.535400390625,168.4112548828125,61.21826171875
16.609999900000002,12.612654685974121,-20.34353256225586,11.966219902038574,-99.4720458984375,117.3095703125,41.0003662109375
16.6299999,10.72841739654541,-21.86863899230957,15.21275806427002,-54.2144775390625,42.66357421875,-15.594482421875
16.6499999,8.38688850402832,-22.73294448852539,17.92778205871582,20.8892822265625,-32.04345703125,-108.0169677734375
16.6699999,5.8657941818237305,-22.582111358642578,19.457677841186523,47.8515625,-92.8802490234375,-172.9278564453125
16.6899999,3.294421434402466,-21.054609298706055,19.211074829101562,29.3121337890625,-149.47509765625,-197.9827880859375
16.7099999,0.8475474119186401,-18.397045135498047,17.06826400756836,-20.0042724609375,-210.2203369140625,-206.3446044921875
16.7299999,-1.3239935636520386,-15.267824172973633,13.290213584899902,-49.2401123046875,-254.852294921875,-213.653564453125
16.749999900000002,-2.9927520751953125,-12.155362129211426,8.429984092712402,-21.78955078125,-267.425537109375,-221.588134765625
16.769999900000002,-4.034229755401611,-9.349357604980469,3.2585084438323975,18.2647705078125,-239.776611328125,-206.634521484375
16.7899999,-4.505887508392334,-6.739677906036377,-1.678335428237915,21.484375,-193.3441162109375,-179.9774169921875
16.8099999,-4.446032524108887,-4.223371982574463,-5.949591159820557,-6.65283203125,-171.7529296875,-161.651611328125
16.8299999,-4.01268196105957,-1.843535304069519,-9.246406555175781,-39.093017578125,-157.1502685546875,-149.658203125
16.8499999,-3.3854012489318848,0.47884035110473633,-11.563994407653809,-50.59814453125,-120.147705078125,-146.392822265625
16.8699999,-2.5498247146606445,2.5306711196899414,-12.701239585876465,-28.900146484375,-50.1556396484375,-109.1156005859375
16.8899999,-1.6950948238372803,4.405331134796143,-12.70602798461914,21.026611328125,12.7716064453125,-54.99267578125
16.9099999,-0.7661445140838623,5.992686748504639,-11.858481407165527,74.7833251953125,33.99658203125,-13.9617919921875
16.929999900000002,0.090979665517807,7.273584842681885,-10.673351287841797,86.7156982421875,29.0985107421875,6.317138671875
16.9499999,0.8762778043746948,8.133103370666504,-9.873687744140625,53.802490234375,13.8397216796875,22.5372314453125
16.9699999,1.5083470344543457,8.757989883422852,-9.926360130310059,-15.56396484375,10.6353759765625,74.2034912109375
16.9899999,2.1715409755706787,8.40843677520752,-10.723628997802734,-82.94677734375,52.764892578125,191.7877197265625
17.0099999,2.956839084625244,6.871358871459961,-11.719616889953613,-113.70849609375,98.1292724609375,287.139892578125
17.0299999,4.2544965744018555,3.751713991165161,-12.203246116638184,-94.1009521484375,141.7388916015625,298.980712890625
17.0499999,6.078877925872803,-1.0055646896362305,-11.671732902526855,-58.868408203125,221.5118408203125,286.7889404296875
17.0699999,8.238448143005371,-6.433219909667969,-9.78989028930664,-77.94189453125,275.1007080078125,260.80322265625
17.089999900000002,10.177751541137695,-11.671732902526855,-6.777985095977783,-95.7183837890625,275.8026123046875,204.8187255859375
17.109999900000002,11.305420875549316,-16.069881439208984,-2.9328970909118652,-66.253662109375,273.3154296875,158.843994140625
17.1299999,11.238382339477539,-19.491195678710938,1.3120225667953491,-53.741455078125,257.8277587890625,139.434814453125
17.1499999,10.15141487121582,-22.65154266357422,5.748478412628174,-96.893310546875,212.6617431640625,115.2496337890625
17.1699999,8.374917984008789,-25.419239044189453,10.182539939880371,-66.558837890625,133.8348388671875,16.5557861328125
17.1899999,6.133944988250732,-27.02574920654297,14.101847648620605,74.737548828125,54.1534423828125,-113.8763427734375
17.2099999,3.773261785507202,-26.702531814575195,16.89588165283203,159.7900390625,-15.838623046875,-157.470703125
17.2299999,1.455674648284912,-24.159889221191406,17.784130096435547,145.4010009765625,-100.64697265625,-135.7269287109375
17.249999900000002,-0.5339069962501526,-19.98200798034668,16.203956604003906,124.6795654296875,-181.1981201171875,-131.9732666015625
17.269999900000002,-1.8148049116134644,-15.634137153625488,12.303802490234375,134.6893310546875,-227.264404296875,-150.238037109375
17.2899999,-2.248155355453491,-11.78904914855957,6.610390663146973,136.29150390625,-237.8082275390625,-162.2314453125
17.3099999,-1.8267759084701538,-8.746018409729004,0.07900865375995636,104.2022705078125,-213.3941650390625,-155.45654296875
17.3299999,-0.6727706789970398,-6.325480937957764,-6.382941722869873,73.638916015625,-166.656494140625,-143.768310546875
17.3499999,1.0031704902648926,-4.321534156799316,-11.882423400878906,67.5506591796875,-118.896484375,-144.83642578125
17.3699999,2.918531894683838,-2.456450939178467,-15.842432975769043,67.626953125,-63.5223388671875,-148.2696533203125
17.3899999,4.711789131164551,-0.5267243981361389,-17.961301803588867,61.3861083984375,-0.1678466796875,-147.39990234375
17.409999900000003,6.0597243309021,1.6974890232086182,-18.3324031829834,49.01123046875,51.910400390625,-134.6282958984375
17.429999900000002,6.878541469573975,4.000710964202881,-17.08262825012207,18.3258056640625,92.0257568359375,-91.9189453125
17.4499999,7.070077419281006,6.143521785736084,-14.681244850158691,-21.4080810546875,125.885009765625,-34.3170166015625
17.4699999,6.952761650085449,7.632715225219727,-11.729193687438965,-42.3431396484375,178.4515380859375,-0.4730224609375
17.4899999,6.50025749206543,8.248024940490723,-8.69095230102539,-77.3468017578125,186.370849609375,3.8604736328125
17.5099999,5.892130374908447,7.905653953552246,-5.940014362335205,-104.7821044921875,177.1240234375,43.02978515625
17.5299999,5.216965675354004,6.785167694091797,-3.533841609954834,-73.1658935546875,216.61376953125,124.3743896484375
17.5499999,4.517858505249023,5.0685248374938965,-1.4053963422775269,-18.7530517578125,263.0157470703125,168.3807373046875
17.5699999,3.7469255924224854,2.8107926845550537,0.5650315880775452,-27.7862548828125,298.5687255859375,169.8150634765625
17.589999900000002,2.8155810832977295,-0.37828385829925537,2.980781078338623,-233.3526611328125,283.3099365234375,141.815185546875
17.609999900000002,1.7310078144073486,-4.795586109161377,6.6846113204956055,-479.7515869140625,188.3392333984375,89.874267578125
17.6299999,0.586579442024231,-9.904812812805176,11.54244613647461,-298.980712890625,55.206298828125,75.74462890625
17.6499999,-0.21787235140800476,-15.037981033325195,16.70195198059082,62.1185302734375,5.0201416015625,111.236572265625
17.6699999,-0.49559974670410156,-18.928558349609375,21.210233688354492,94.8944091796875,-26.6571044921875,82.7178955078125
17.6899999,-0.3902548849582672,-20.66196060180664,23.594858169555664,26.9317626953125,-100.677490234375,22.5982666015625
17.7099999,-0.07900865375995636,-20.142419815063477,23.51584815979004,79.89501953125,-181.6864013671875,15.9149169921875
17.7299999,0.040701430290937424,-17.98045539855957,21.49753761291504,119.81201171875,-260.43701171875,34.85107421875
17.749999900000002,-0.14365209639072418,-15.085865020751953,17.879898071289062,120.452880859375,-320.1446533203125,51.69677734375
17.769999900000002,-0.6392518281936646,-12.69405746459961,13.038822174072266,113.46435546875,-387.6953125,53.6041259765625
17.7899999,-1.0055646896362305,-11.702857971191406,6.967126846313477,93.6431884765625,-481.109619140625,42.816162109375
17.8099999,-0.811634361743927,-12.102689743041992,-0.05985504388809204,55.328369140625,-500,-22.9949951171875
17.8299999,-0.026336219161748886,-13.388376235961914,-7.268796443939209,31.982421875,-406.9671630859375,-102.569580078125
17.8499999,1.381454348564148,-14.618995666503906,-14.051569938659668,80.596923828125,-278.01513671875,-138.580322265625
17.8699999,2.7964274883270264,-14.915876388549805,-19.227834701538086,130.5694580078125,-244.3084716796875,-180.17578125
17.8899999,3.818751811981201,-13.812150001525879,-22.455217361450195,114.6087646484375,-215.4693603515625,-229.1259765625
17.909999900000003,4.606443881988525,-11.245565414428711,-24.128765106201172,89.29443359375,-100.5859375,-199.6002197265625
17.929999900000002,5.049371242523193,-7.841010570526123,-23.949199676513672,40.8935546875,94.9249267578125,-108.9324951171875
17.9499999,5.171475887298584,-4.0533833503723145,-22.131999969482422,8.5906982421875,232.9864501953125,-87.1734619140625
17.9699999,5.054159641265869,-0.6416460275650024,-18.935741424560547,50.994873046875,280.853271484375,-78.216552734375
17.9899999,4.6255974769592285,2.0231003761291504,-14.822503089904785,62.0574951171875,302.1697998046875,-53.192138671875
18.0099999,4.089296340942383,3.883395195007324,-10.599130630493164,20.843505859375,330.780029296875,-23.62060546875
18.0299999,3.6774938106536865,4.917690277099609,-6.7492547035217285,-9.58251953125,365.8447265625,18.768310546875
18.0499999,3.4620156288146973,5.200206279754639,-3.3854012489318848,-14.068603515625,377.685546875,49.713134765625
18.0699999,3.4332852363586426,4.738125324249268,-0.35913026332855225,-5.1116943359375,372.4517822265625,72.4029541015625
18.089999900000002,3.4548330307006836,3.713406801223755,2.434903144836426,-32.958984375,376.15966796875,75.6988525390625
18.109999900000002,3.1699230670928955,1.9488801956176758,5.5545477867126465,-163.0096435546875,362.1978759765625,56.8084716796875
18.1299999,2.296039342880249,-0.5961562395095825,9.469067573547363,-234.710693359375,301.8798828125,57.708740234375
18.1499999,0.5578489899635315,-3.9624037742614746,14.70758056640625,-173.2940673828125,233.795166015625,70.61767578125
18.1699999,-1.867477297782898,-7.663839817047119,20.752941131591797,-58.441162109375,102.9815673828125,51.605224609375
18.1899999,-4.376600742340088,-10.757147789001465,26.092010498046875,6.8817138671875,-79.2999267578125,16.41845703125
18.2099999,-6.600813865661621,-12.258312225341797,29.161376953125,-26.8402099609375,-243.46923828125,-33.050537109375
18.2299999,-8.259995460510254,-11.980585098266602,28.893226623535156,-54.962158203125,-342.926025390625,-32.0892333984375
18.249999900000002,-9.296685218811035,-10.623072624206543,25.548526763916016,-22.1405029296875,-376.3275146484375,37.811279296875
18.269999900000002,-9.962273597717285,-9.39245319366455,19.99637222290039,50.6439208984375,-407.684326171875,79.65087890625
18.2899999,-10.005369186401367,-9.265560150146484,13.352462768554688,65.5975341796875,-455.1849365234375,79.04052734375
18.3099999,-9.255983352661133,-10.505757331848145,6.244078159332275,32.7301025390625,-435.760498046875,37.2772216796875
18.3299999,-7.491456985473633,-12.464214324951172,-0.8667010068893433,-31.8756103515625,-374.847412109375,-31.3568115234375
18.3499999,-4.819528102874756,-14.195221900939941,-7.474697589874268,-92.0867919921875,-315.5364990234375,-98.480224609375
18.3699999,-1.45806884765625,-14.79377269744873,-13.630189895629883,-59.722900390625,-247.589111328125,-125.5340576171875
18.3899999,2.207453966140747,-13.864822387695312,-18.70589828491211,7.62939453125,-130.9661865234375,-102.5390625
18.409999900000003,5.537788391113281,-11.245565414428711,-22.555774688720703,4.547119140625,-23.193359375,-106.50634765625
18.429999900000002,8.391676902770996,-7.709329605102539,-24.657882690429688,-53.558349609375,25.7568359375,-116.5771484375
18.4499999,10.299856185913086,-3.797203779220581,-24.815900802612305,-26.1077880859375,114.3646240234375,-95.1690673828125
18.4699999,11.281478881835938,-0.12928688526153564,-22.931663513183594,13.5650634765625,155.1666259765625,-59.50927734375
18.4899999,11.57596492767334,2.7700912952423096,-19.44091796875,-26.611328125,164.9169921875,-16.204833984375
18.5099999,11.44907283782959,4.606443881988525,-14.812926292419434,-70.159912109375,173.3245849609375,18.310546875
18.5299999,11.161767959594727,5.073313236236572,-9.57441234588623,-64.27001953125,178.375244140625,54.046630859375
18.5499999,10.934319496154785,3.9887399673461914,-4.213795185089111,-39.886474609375,177.1697998046875,108.3221435546875
18.5699999,10.596736907958984,1.3886369466781616,1.0295066833496094,-74.9053955078125,159.1949462890625,149.7344970703125
18.589999900000002,9.945513725280762,-2.8443117141723633,6.339846134185791,-250.0457763671875,126.007080078125,160.3240966796875
18.609999900000002,9.023746490478516,-8.877699851989746,12.018892288208008,-494.6136474609375,36.2701416015625,118.2098388671875
18.6299999,7.515398979187012,-15.533580780029297,17.154455184936523,-488.037109375,-126.89208984375,-37.445068359375
18.6499999,5.815515995025635,-21.09291648864746,20.611682891845703,-260.0860595703125,-247.61962890625,-216.522216796875
18.6699999,3.711012601852417,-23.599645614624023,21.212627410888672,-100.7537841796875,-236.8011474609375,-285.3851318359375
18.6899999,1.3718775510787964,-22.0410213470459,18.514362335205078,-18.3563232421875,-191.7266845703125,-255.523681640625
18.7099999,-1.1899182796478271,-17.228675842285156,13.524845123291016,10.5133056640625,-206.024169921875,-205.7342529296875
18.7299999,-3.7253777980804443,-11.314997673034668,7.702147006988525,4.6844482421875,-246.39892578125,-174.3316650390625
18.749999900000002,-5.940014362335205,-5.975927352905273,2.027888774871826,-2.471923828125,-258.4381103515625,-181.09130859375
18.769999900000002,-7.556100368499756,-2.008735179901123,-2.978386878967285,-12.664794921875,-215.39306640625,-181.3812255859375
18.7899999,-8.35336971282959,0.5434837937355042,-7.321468830108643,-26.519775390625,-185.7757568359375,-145.4925537109375
18.8099999,-8.125920295715332,2.0470423698425293,-11.085153579711914,-20.08056640625,-173.5687255859375,-102.1575927734375
18.8299999,-6.914454460144043,2.9927520751953125,-14.437036514282227,48.64501953125,-83.49609375,-64.7430419921875
18.8499999,-4.793191909790039,3.907337188720703,-17.477672576904297,111.4044189453125,38.2080078125,-31.8756103515625
18.8699999,-2.054224967956543,4.963180065155029,-19.9365177154541,63.873291015625,126.46484375,40.130615234375
18.8899999,0.7924807667732239,6.279991149902344,-21.708227157592773,-6.1798095703125,130.55419921875,69.3206787109375
18.909999900000003,3.383007049560547,7.642292022705078,-22.41212272644043,2.1209716796875,109.0087890625,85.693359375
18.929999900000002,5.57370138168335,8.528146743774414,-21.823148727416992,43.792724609375,157.3028564453125,144.1192626953125
18.9499999,7.242460250854492,8.60236644744873,-19.80244255065918,25.81787109375,215.5609130859375,202.392578125
18.9699999,8.62630844116211,7.601590633392334,-16.429012298583984,-14.617919921875,214.4317626953125,223.236083984375
18.9899999,9.904812812805176,5.370194435119629,-12.112266540527344,-18.463134765625,178.619384765625,227.0355224609375
19.0099999,11.331756591796875,1.699883222579956,-7.671022415161133,-35.308837890625,123.443603515625,229.888916015625
19.0299999,12.90714168548584,-2.8443117141723633,-4.041412353515625,-67.7032470703125,78.765869140625,177.947998046875
19.0499999,14.21916389465332,-7.82185697555542,-1.5658079385757446,-97.16796875,90.7440185546875,78.857421875
19.0699999,14.915876388549805,-12.469002723693848,-0.09576806426048279,-158.7371826171875,91.644287109375,25.0244140625
19.089999900000002,14.513650894165039,-16.122554779052734,0.9840168952941895,-197.2808837890625,42.0989990234375,-0.8392333984375
19.109999900000002,13.012486457824707,-18.77532958984375,2.2170307636260986,-181.6864013671875,-12.8631591796875,-16.082763671875
19.1299999,10.699687004089355,-20.398597717285156,3.687070608139038,-138.7939453125,-44.3267822265625,-30.1666259765625
19.1499999,8.042123794555664,-21.040245056152344,5.0876784324646,-76.96533203125,-66.3909912109375,-94.268798828125
19.1699999,5.279214859008789,-20.52549171447754,6.102819919586182,-2.5634765625,-55.1300048828125,-168.88427734375
19.1899999,2.5043349266052246,-18.665197372436523,6.390124320983887,77.7587890625,-43.88427734375,-220.0775146484375
19.2099999,-0.24420857429504395,-15.526397705078125,5.817910194396973,140.13671875,-60.85205078125,-225.0213623046875
19.2299999,-2.8874073028564453,-11.580753326416016,4.364629745483398,132.568359375,-126.800537109375,-204.681396484375
19.249999900000002,-5.106832027435303,-7.522581577301025,1.9991583824157715,83.7249755859375,-197.235107421875,-174.4537353515625
19.269999900000002,-6.502651691436768,-3.952826976776123,-1.1803414821624756,68.878173828125,-217.6971435546875,-143.798828125
19.2899999,-6.890512466430664,-1.137245774269104,-4.853046894073486,95.001220703125,-175.72021484375,-126.5411376953125
19.3099999,-6.366182327270508,1.01753568649292,-8.554482460021973,125.396728515625,-119.2779541015625,-112.9302978515625
19.3299999,-5.286397457122803,2.873042106628418,-12.057199478149414,132.2021484375,-101.8218994140625,-87.1429443359375
19.3499999,-3.7277719974517822,4.522646903991699,-15.207969665527344,120.05615234375,-57.861328125,-8.6669921875
19.3699999,-1.9704279899597168,6.074089527130127,-17.91820526123047,113.9373779296875,29.7393798828125,61.859130859375
19.3899999,0.038307227194309235,7.240066051483154,-19.912574768066406,124.664306640625,99.42626953125,82.8857421875
19.409999900000003,2.2864625453948975,7.824251174926758,-20.84391975402832,133.7432861328125,143.829345703125,118.2098388671875
19.429999900000002,4.790797710418701,7.527369976043701,-20.312406539916992,104.095458984375,155.5023193359375,171.478271484375
19.4499999,7.3693528175354,6.09324312210083,-18.452112197875977,58.746337890625,145.6756591796875,191.0858154296875
19.4699999,9.99339771270752,3.35667085647583,-15.672444343566895,26.6571044921875,136.138916015625,177.30712890625
19.4899999,12.368446350097656,-0.7134721279144287,-12.42351245880127,-12.51220703125,126.46484375,151.6571044921875
19.5099999,14.228740692138672,-5.686229228973389,-9.150638580322266,-62.8662109375,114.4561767578125,103.6834716796875
19.5299999,15.219940185546875,-10.632649421691895,-6.04775333404541,-98.785400390625,112.091064453125,27.801513671875
19.5499999,15.152902603149414,-14.791378021240234,-3.1699230670928955,-102.6611328125,122.7874755859375,-33.4320068359375
19.5699999,13.927071571350098,-17.645265579223633,-0.38546648621559143,-95.6573486328125,121.124267578125,-67.3675537109375
19.589999900000002,11.793837547302246,-19.07939338684082,2.343923568725586,-68.5577392578125,87.09716796875,-89.569091796875
19.609999900000002,9.131484985351562,-19.254169464111328,4.850652694702148,-14.1754150390625,47.9278564453125,-119.2169189453125
19.6299999,6.435614109039307,-18.22466278076172,6.8593878746032715,58.0596923828125,34.210205078125,-160.308837890625
19.6499999,3.847482204437256,-16.021997451782227,8.027758598327637,121.4752197265625,18.00537109375,-182.7545166015625
19.6699999,1.4484920501708984,-12.799402236938477,8.11634349822998,142.3492431640625,-27.5726318359375,-183.380126953125
19.6899999,-0.7350199222564697,-9.090784072875977,7.0557122230529785,123.6724853515625,-99.0447998046875,-158.111572265625
19.7099999,-2.513911724090576,-5.592854976654053,4.876988887786865,84.8236083984375,-172.149658203125,-126.15966796875
19.7299999,-3.6607344150543213,-2.832340717315674,1.778891921043396,63.079833984375,-188.5986328125,-100.5706787109375
19.749999900000002,-4.055777549743652,-0.9361328482627869,-1.845929503440857,72.6776123046875,-143.00537109375,-78.826904296875
19.769999900000002,-3.737348794937134,0.2322375625371933,-5.56173038482666,72.9217529296875,-106.87255859375,-44.7540283203125
19.7899999,-2.8562827110290527,1.0055646896362305,-9.133879661560059,51.1016845703125,-111.083984375,-3.6773681640625
19.8099999,-1.50355863571167,1.6831238269805908,-12.440272331237793,46.0205078125,-102.5238037109375,36.468505859375
