# Time (seconds),Accel_X,Accel_Y,Accel_Z,Gyro_X,Gyro_Y,Gyro_Z
0.0099999,9.806650161743164,0.6009446382522583,0.6631938815116882,-0.701904296875,0.091552734375,-1.0833740234375
0.029999900000000003,9.84256362915039,0.5482721924781799,0.6584054827690125,-2.410888671875,0.2593994140625,-0.091552734375
0.0499999,9.871294021606445,0.47644615173339844,0.6033388376235962,-4.608154296875,0.732421875,1.15966796875
0.0699999,9.837775230407715,0.31603461503982544,0.4884171485900879,-6.9122314453125,1.5869140625,0.91552734375
0.08999990000000001,9.780313491821289,0.12210428714752197,0.363918662071228,-5.4168701171875,2.8533935546875,-4.9896240234375
0.10999990000000001,9.746794700622559,-0.090979665517807,0.24420857429504395,-4.974365234375,2.4566650390625,-13.580322265625
0.1299999,9.799467086791992,-0.19871874153614044,0.08140286058187485,-10.2691650390625,-1.3580322265625,-14.7705078125
0.14999990000000002,9.976638793945312,-0.06224924325942993,-0.17477671802043915,-15.13671875,-2.6397705078125,-8.5601806640625
0.1699999,10.180145263671875,0.22026655077934265,-0.5195417404174805,-13.9923095703125,5.279541015625,7.50732421875
0.1899999,10.314221382141113,0.5123591423034668,-0.8164227604866028,-2.1514892578125,10.040283203125,12.969970703125
0.20999990000000002,10.369287490844727,0.7661445140838623,-0.9744400978088379,8.3465576171875,1.9989013671875,-1.983642578125
0.2299999,10.347740173339844,0.9026140570640564,-0.9576807022094727,9.307861328125,-2.5787353515625,-7.14111328125
0.2499999,10.333374977111816,1.0079588890075684,-0.7182605266571045,9.063720703125,6.8359375,3.96728515625
0.2699999,10.371682167053223,1.2018892765045166,-0.43335050344467163,11.0931396484375,10.07080078125,10.92529296875
0.28999990000000003,10.414777755737305,1.50355863571167,-0.14844051003456116,15.655517578125,1.800537109375,8.4686279296875
0.3099999,10.414777755737305,1.9129672050476074,0.016759412363171577,20.69091796875,-0.5340576171875,11.8560791015625
0.3299999,10.426748275756836,2.542642116546631,-0.009576806798577309,24.7344970703125,10.5438232421875,24.5208740234375
0.34999990000000003,10.299856185913086,3.0310592651367188,-0.0694318488240242,31.06689453125,29.4647216796875,50.35400390625
0.3699999,10.093954086303711,3.1244332790374756,0.12210428714752197,46.1883544921875,32.989501953125,55.5267333984375
0.3899999,9.84495735168457,2.8179752826690674,0.5961562395095825,53.375244140625,10.772705078125,21.17919921875
0.40999990000000003,9.605537414550781,2.3032219409942627,1.1971008777618408,42.1600341796875,-8.5296630859375,-2.410888671875
0.4299999,9.473855972290039,1.900996208190918,1.7357962131500244,35.1715087890625,-3.4942626953125,7.904052734375
0.4499999,9.433155059814453,1.8722656965255737,1.944091796875,37.1856689453125,5.4168701171875,22.0489501953125
0.4699999,9.394847869873047,2.051830768585205,1.9512743949890137,37.7044677734375,6.6375732421875,23.86474609375
0.4899999,9.282320022583008,2.190694570541382,1.886630892753601,40.4510498046875,4.0435791015625,18.2647705078125
0.5099999,9.078812599182129,2.1715409755706787,1.8746598958969116,43.701171875,3.1280517578125,13.1072998046875
0.5299999,8.827422142028809,2.0398597717285156,1.845929503440857,40.2984619140625,2.3651123046875,9.4451904296875
0.5499999,8.611943244934082,1.8483237028121948,1.8842366933822632,39.1845703125,2.7618408203125,4.9591064453125
0.5699999,8.497021675109863,1.6927006244659424,1.9728221893310547,42.022705078125,6.4544677734375,0.67138671875
0.5899998999999999,8.506598472595215,1.5705963373184204,2.1116859912872314,43.212890625,4.180908203125,1.1444091796875
0.6099998999999999,8.580819129943848,1.403002142906189,2.296039342880249,38.0859375,5.6304931640625,8.7890625
0.6299999,8.669404029846191,1.1252747774124146,2.518700122833252,29.6173095703125,13.1988525390625,14.0228271484375
0.6499999,8.705317497253418,0.6584054827690125,2.7700912952423096,26.1993408203125,17.0135498046875,9.765625
0.6699999,8.762778282165527,0.12210428714752197,2.999934673309326,23.98681640625,12.908935546875,-0.1220703125
0.6899999,8.78432559967041,-0.5410895943641663,3.2776620388031006,15.5487060546875,14.862060546875,0.732421875
0.7099999,8.81784439086914,-1.3503297567367554,3.7038300037384033,6.7138671875,24.2919921875,0.5950927734375
0.7299998999999999,8.860940933227539,-2.207453966140747,4.264073371887207,-4.6844482421875,21.4385986328125,-21.1181640625
0.7499998999999999,8.920795440673828,-2.9688100814819336,4.793191909790039,-25.299072265625,-2.99072265625,-47.2412109375
0.7699999,9.119514465332031,-3.2632968425750732,5.0876784324646,-38.116455078125,-20.9808349609375,-60.85205078125
0.7899999,9.3828763961792,-3.1004912853240967,5.07570743560791,-37.3992919921875,-8.8958740234375,-52.9022216796875
0.8099999,9.804255485534668,-2.5115175247192383,4.575319290161133,-36.895751953125,-0.1068115234375,-38.2080078125
0.8299999,10.223240852355957,-1.886630892753601,4.106055736541748,-47.0428466796875,1.495361328125,-32.9437255859375
0.8499998999999999,10.54645824432373,-1.558625340461731,3.598485231399536,-60.4705810546875,0.518798828125,-25.4669189453125
0.8699998999999999,10.788272857666016,-1.53707754611969,3.19865345954895,-64.910888671875,-15.411376953125,-34.454345703125
0.8899999,10.986991882324219,-1.5969325304031372,2.801215887069702,-61.95068359375,-30.059814453125,-56.060791015625
0.9099999,11.173739433288574,-1.4484920501708984,2.276885747909546,-65.826416015625,-40.557861328125,-64.0869140625
0.9299999,11.353304862976074,-0.9576807022094727,1.5658079385757446,-74.64599609375,-41.8548583984375,-45.196533203125
0.9499999,11.39400577545166,-0.33279404044151306,0.8044517636299133,-74.5391845703125,-31.982421875,-16.7999267578125
0.9699998999999999,11.133037567138672,0.0454898327589035,0.1149216815829277,-66.497802734375,-19.7601318359375,-7.6904296875
0.9899998999999999,10.673351287841797,0.038307227194309235,-0.2849099934101105,-73.54736328125,-18.9056396484375,-15.6097412109375
1.0099999,10.158597946166992,-0.17717093229293823,-0.4644751250743866,-82.5958251953125,-29.754638671875,-25.4364013671875
1.0299999,9.727641105651855,-0.3495534360408783,-0.7086837291717529,-86.3189697265625,-45.0592041015625,-21.270751953125
1.0499999,9.514557838439941,-0.1867477297782898,-1.094150185585022,-80.810546875,-32.5775146484375,-14.34326171875
1.0699999,9.390059471130371,0.07182604819536209,-1.6735470294952393,-77.81982421875,-11.0626220703125,-1.708984375
1.0899999,9.373299598693848,0.363918662071228,-2.1811177730560303,-74.554443359375,-5.1422119140625,-0.54931640625
1.1099999,9.402029991149902,0.5746083855628967,-2.497152328491211,-72.540283203125,-13.397216796875,-7.50732421875
1.1299999,9.44991397857666,0.7206547260284424,-2.5953147411346436,-68.66455078125,-18.8446044921875,-11.4898681640625
1.1499999,9.672574996948242,1.4844050407409668,-2.6455929279327393,-55.6640625,-19.7296142578125,-18.6004638671875
1.1699998999999999,9.852140426635742,2.169146776199341,-2.6886885166168213,-47.2869873046875,-15.716552734375,-8.97216796875
1.1899998999999999,10.091560363769531,3.0861260890960693,-2.853888511657715,-38.665771484375,-9.033203125,4.0740966796875
1.2099999,10.295066833496094,4.0078935623168945,-3.0861260890960693,-28.717041015625,4.4097900390625,25.9552001953125
1.2299999,10.409989356994629,4.797980308532715,-3.3207578659057617,-12.20703125,23.1781005859375,45.989990234375
1.2499999,10.342951774597168,5.238513469696045,-3.3925838470458984,9.8114013671875,32.2113037109375,53.1158447265625
1.2699999,10.089165687561035,5.240907669067383,-3.181894063949585,31.0211181640625,25.8026123046875,49.6368408203125
1.2899999,9.667786598205566,4.81473970413208,-2.671929121017456,41.1224365234375,20.538330078125,43.8385009765625
1.3099999,9.224859237670898,4.28322696685791,-2.0685901641845703,44.1131591796875,22.6898193359375,36.07177734375
1.3299999,8.863334655761719,3.825934410095215,-1.4293384552001953,49.957275390625,33.172607421875,37.9638671875
1.3499999,8.62630844116211,3.576937437057495,-0.8690952062606812,62.9425048828125,35.430908203125,42.3583984375
1.3699999,8.492233276367188,3.44765043258667,-0.42856210470199585,73.5015869140625,28.4881591796875,40.7867431640625
1.3899999,8.62630844116211,3.7181951999664307,0.05506663769483566,80.1849365234375,37.750244140625,28.62548828125
1.4099999,8.760383605957031,4.02465295791626,0.3902548849582672,66.7877197265625,59.6923828125,54.6417236328125
1.4299998999999999,8.973467826843262,4.446032524108887,0.9002198576927185,61.9354248046875,89.9505615234375,93.841552734375
1.4499999,9.097966194152832,4.623203277587891,1.6855180263519287,76.66015625,99.9298095703125,100.2960205078125
1.4699999,9.066842079162598,4.335899353027344,2.7676970958709717,88.6383056640625,73.7762451171875,81.4666748046875
1.4899999,8.980650901794434,3.84269380569458,3.9049429893493652,80.6884765625,47.515869140625,62.5457763671875
1.5099999,8.863334655761719,3.220201253890991,4.884171485900879,67.68798828125,54.229736328125,77.239990234375
1.5299999,8.810662269592285,2.698265314102173,5.564124584197998,71.83837890625,69.1986083984375,89.935302734375
1.5499999,8.628703117370605,1.8770540952682495,6.18182897567749,75.439453125,62.896728515625,84.4268798828125
1.5699999,8.437167167663574,0.9864110946655273,6.631938934326172,65.1702880859375,19.0277099609375,40.8782958984375
1.5899999,8.238448143005371,-0.004788403399288654,7.084442615509033,54.4586181640625,2.7618408203125,10.2691650390625
1.6099999,8.224082946777344,-0.5506663918495178,7.189787864685059,44.036865234375,-0.7171630859375,6.4544677734375
1.6299999,8.358158111572266,-0.5985504388809204,6.892906665802002,35.2325439453125,-5.31005859375,17.303466796875
1.6499999,8.547300338745117,-0.33039984107017517,6.404489517211914,32.7301025390625,-6.4239501953125,25.726318359375
1.6699999,8.614337921142578,-0.09576806426048279,5.825092792510986,32.04345703125,-6.5155029296875,22.6287841796875
1.6899998999999999,8.437167167663574,-0.24660277366638184,5.477933406829834,29.022216796875,0.4119873046875,17.2119140625
1.7099999,8.180987358093262,-0.667982280254364,5.363011837005615,22.613525390625,-5.9356689453125,0.4425048828125
1.7299999,7.987056732177734,-1.1540051698684692,5.461174011230469,14.251708984375,-20.01953125,-18.951416015625
1.7499999,7.910442352294922,-1.5969325304031372,5.535394191741943,5.706787109375,-23.3917236328125,-20.8740234375
1.7699999,7.920019149780273,-1.944091796875,5.51624059677124,1.4801025390625,-18.37158203125,-18.2952880859375
1.7899999,7.939172744750977,-2.250549554824829,5.353435039520264,-0.7171630859375,-14.190673828125,-29.6478271484375
1.8099999,8.027758598327637,-2.5234885215759277,5.245696067810059,-7.1868896484375,-12.3138427734375,-46.5240478515625
1.8299999,8.250418663024902,-2.7748796939849854,5.233725070953369,-15.9759521484375,-12.0391845703125,-46.56982421875
1.8499999,8.619126319885254,-2.9544448852539062,5.365406036376953,-24.7039794921875,-19.47021484375,-41.1224365234375
1.8699999,9.097966194152832,-3.0142998695373535,5.56173038482666,-31.402587890625,-27.2216796875,-51.7578125
1.8899999,9.516951560974121,-3.0597896575927734,5.602431774139404,-37.17041015625,-36.3616943359375,-60.60791015625
1.9099999,9.859322547912598,-2.9951462745666504,5.542576789855957,-40.1458740234375,-36.041259765625,-56.3507080078125
1.9299998999999999,10.019734382629395,-2.9759926795959473,5.178658485412598,-51.7578125,-44.00634765625,-49.163818359375
1.9499999,9.974244117736816,-3.071760892868042,4.668693542480469,-60.577392578125,-43.2586669921875,-45.8526611328125
1.9699999,9.78989028930664,-3.24414324760437,4.101267337799072,-63.9495849609375,-45.6695556640625,-61.6302490234375
1.9899999,9.53849983215332,-3.4572272300720215,3.4308910369873047,-68.3135986328125,-49.4842529296875,-72.296142578125
2.0099999,9.464279174804688,-3.4141316413879395,2.806004285812378,-72.3876953125,-48.5992431640625,-73.2574462890625
2.0299999,9.672574996948242,-2.940079689025879,2.1380221843719482,-80.0018310546875,-44.281005859375,-65.00244140625
2.0499999,10.031704902648926,-2.207453966140747,1.4221558570861816,-85.113525390625,-41.80908203125,-42.755126953125
2.0699999,10.333374977111816,-1.577778935432434,0.8188169598579407,-77.3773193359375,-38.360595703125,-23.6663818359375
2.0899999,10.57040023803711,-0.9816226959228516,0.35673606395721436,-69.9615478515625,-42.6025390625,-35.09521484375
2.1099999,10.596736907958984,-0.6344634294509888,-0.05027823522686958,-82.763671875,-45.8831787109375,-34.36279296875
2.1299999,10.41956615447998,-0.5291185975074768,-0.4118026793003082,-95.03173828125,-39.1998291015625,-8.392333984375
2.1499999,10.129867553710938,-0.4141969084739685,-0.7613561153411865,-89.2791748046875,-30.33447265625,-10.6658935546875
2.1699999,9.770736694335938,-0.31603461503982544,-1.1635819673538208,-81.390380859375,-36.0565185546875,-31.55517578125
2.1899999,9.521739959716797,-0.021547814831137657,-1.5897499322891235,-79.89501953125,-44.98291015625,-40.008544921875
2.2099999,9.536105155944824,0.6033388376235962,-2.0877439975738525,-77.7435302734375,-42.8924560546875,-28.38134765625
2.2299999,9.6989107131958,1.3958195447921753,-2.7102363109588623,-69.6868896484375,-31.43310546875,-10.3302001953125
2.2499999,9.828198432922363,1.9919757843017578,-3.2968156337738037,-60.72998046875,-15.777587890625,-2.349853515625
2.2699999,9.8784761428833,2.298433542251587,-3.5673606395721436,-50.6591796875,-7.99560546875,-18.1732177734375
2.2899999,9.828198432922363,2.3487119674682617,-3.49314022064209,-39.2303466796875,-22.3846435546875,-36.7279052734375
2.3099999,9.832986831665039,2.5258827209472656,-3.222595453262329,-29.1900634765625,-38.9556884765625,-38.2537841796875
2.3299999,9.897629737854004,3.021482467651367,-3.1052796840667725,-27.252197265625,-27.9998779296875,-18.5394287109375
2.3499999,9.974244117736816,3.758896589279175,-3.268085241317749,-23.101806640625,11.474609375,13.519287109375
2.3699999,10.062829971313477,4.596867084503174,-3.4739866256713867,-13.0157470703125,48.3245849609375,39.031982421875
2.3899999,9.983820915222168,5.080495834350586,-3.5194764137268066,2.86865234375,57.31201171875,57.9071044921875
2.4099999,9.701305389404297,4.991910457611084,-3.069366693496704,20.5535888671875,47.0428466796875,56.610107421875
2.4299999,9.334992408752441,4.575319290161133,-2.322375535964966,44.9371337890625,24.444580078125,17.2119140625
2.4499999,9.14585018157959,4.592078685760498,-1.6543933153152466,50.35400390625,9.3841552734375,-6.0272216796875
2.4699999,8.980650901794434,4.829104900360107,-1.194706678390503,41.8243408203125,42.022705078125,59.326171875
2.4899999,8.925583839416504,5.166687488555908,-0.6512228846549988,54.01611328125,89.385986328125,117.7825927734375
2.5099999,8.7484130859375,5.008669853210449,0.27054479718208313,87.646484375,81.878662109375,80.7037353515625
2.5299999,8.494627952575684,4.458003520965576,1.3551181554794312,89.17236328125,22.7508544921875,11.9781494140625
2.5499999,8.367734909057617,4.0533833503723145,2.4013843536376953,63.4002685546875,8.5296630859375,15.594482421875
2.5699999,8.365341186523438,4.146757125854492,2.9041666984558105,55.908203125,52.825927734375,84.991455078125
2.5899999,8.394071578979492,4.565742492675781,3.0166940689086914,75.103759765625,89.7674560546875,117.0654296875
2.6099999,8.303091049194336,4.611232280731201,3.162740468978882,91.1712646484375,82.977294921875,93.2769775390625
2.6299999,8.2312650680542,4.455609321594238,3.5386300086975098,88.592529296875,57.6171875,59.722900390625
2.6499999,8.255207061767578,3.5194764137268066,4.81473970413208,80.8868408203125,80.047607421875,113.28125
2.6699999,8.315062522888184,2.738966703414917,5.628767967224121,89.599609375,68.05419921875,92.987060546875
2.6899999,8.224082946777344,1.6927006244659424,6.3973069190979,78.2623291015625,30.45654296875,51.025390625
2.7099999,8.130708694458008,0.47884035110473633,7.225700855255127,67.4896240234375,17.63916015625,34.4696044921875
2.7299999,8.058882713317871,-0.3447650372982025,7.548917770385742,54.8858642578125,7.537841796875,27.83203125
2.7499999,7.99184513092041,-0.8667010068893433,7.556100368499756,48.370361328125,7.4920654296875,27.1759033203125
2.7699999,7.879317760467529,-1.2401964664459229,7.326257228851318,42.0684814453125,4.180908203125,20.3399658203125
2.7899999,7.785943984985352,-1.4939818382263184,7.048529624938965,38.2080078125,-6.8206787109375,0.9918212890625
2.8099999,7.692570209503174,-1.7094600200653076,6.763619899749756,31.3262939453125,-12.20703125,-6.805419921875
2.8299999,7.694964408874512,-1.8148049116134644,6.560112476348877,23.86474609375,-7.9193115234375,-3.5858154296875
2.8499999,7.785943984985352,-1.845929503440857,6.418854713439941,17.1661376953125,-5.767822265625,-4.3182373046875
2.8699999,7.908048152923584,-1.8938134908676147,6.337451934814453,9.9945068359375,-11.749267578125,-11.0321044921875
2.8899999,7.967903137207031,-2.126051187515259,6.366182327270508,6.2408447265625,-19.683837890625,-18.2647705078125
2.9099999,7.994239330291748,-2.4588451385498047,6.382941722869873,3.936767578125,-28.076171875,-32.16552734375
2.9299999,8.037335395812988,-2.82515811920166,6.337451934814453,-5.4779052734375,-30.8074951171875,-46.234130859375
2.9499999,8.147468566894531,-3.1076738834381104,6.203376770019531,-19.195556640625,-25.1617431640625,-44.921875
2.9699999,8.418013572692871,-3.2154128551483154,6.052541732788086,-34.0423583984375,-13.6260986328125,-33.9508056640625
2.9899999,8.731653213500977,-3.3638534545898438,5.906495571136475,-42.5567626953125,-13.1683349609375,-26.824951171875
3.0099999,9.117119789123535,-3.359065055847168,5.638344764709473,-43.9605712890625,-26.55029296875,-41.656494140625
3.0299999,9.41639518737793,-3.512293815612793,5.360617637634277,-44.219970703125,-31.524658203125,-46.5240478515625
3.0499999,9.646238327026367,-3.4524388313293457,4.759673118591309,-53.6041259765625,-43.9605712890625,-47.7752685546875
3.0699999,9.861717224121094,-3.181894063949585,4.019864559173584,-58.2122802734375,-37.0635986328125,-40.5426025390625
3.0899999,9.971850395202637,-2.9328970909118652,3.1962592601776123,-61.9049072265625,-22.8729248046875,-18.2037353515625
3.1099999,10.079588890075684,-2.7102363109588623,2.516305923461914,-62.3016357421875,-18.6920166015625,-11.962890625
3.1299999,10.065223693847656,-2.80361008644104,1.9752163887023926,-59.356689453125,-32.928466796875,-24.688720703125
3.1499999,10.074800491333008,-2.896984100341797,1.6041151285171509,-61.5386962890625,-44.9676513671875,-40.771484375
3.1699999,10.007762908935547,-3.043030261993408,1.2473790645599365,-69.64111328125,-39.24560546875,-33.447265625
3.1899999,9.981427192687988,-3.0190882682800293,0.8690952062606812,-74.951171875,-28.3203125,-21.514892578125
3.2099999,10.000580787658691,-2.8802247047424316,0.5386953949928284,-78.887939453125,-23.5748291015625,-24.688720703125
3.2299999,9.921571731567383,-2.8107926845550537,0.21308395266532898,-84.1064453125,-26.5960693359375,-29.7088623046875
3.2499999,9.86889934539795,-2.6360161304473877,-0.002394201699644327,-83.2672119140625,-28.778076171875,-42.5567626953125
3.2699999,9.835380554199219,-2.300827741622925,-0.16519992053508759,-79.6356201171875,-28.9306640625,-53.2073974609375
3.2899999,9.806650161743164,-1.8171991109848022,-0.3902548849582672,-84.3658447265625,-29.0985107421875,-45.867919921875
3.3099999,9.9000244140625,-1.1324573755264282,-0.5530605912208557,-91.156005859375,-17.8070068359375,-36.376953125
3.3299999000000002,9.986215591430664,-0.44532153010368347,-0.7374141216278076,-88.2415771484375,-8.209228515625,-36.956787109375
3.3499999,10.072406768798828,0.24420857429504395,-0.8906430602073669,-82.000732421875,-11.1083984375,-42.3431396484375
3.3699999,10.182539939880371,0.9959878921508789,-1.0654197931289673,-71.807861328125,-19.012451171875,-47.1038818359375
3.3899999,10.309432983398438,1.8507179021835327,-1.3287819623947144,-62.042236328125,-20.20263671875,-38.0401611328125
3.4099999,10.393229484558105,2.6623523235321045,-1.680729627609253,-48.1414794921875,-9.5367431640625,-18.8446044921875
3.4299999,10.390835762023926,3.251325845718384,-1.9847931861877441,-30.029296875,1.678466796875,-8.36181640625
3.4499999,10.280701637268066,3.445256233215332,-2.056619167327881,-12.4664306640625,-2.38037109375,-15.07568359375
3.4699999,10.170568466186523,3.4763808250427246,-1.9369091987609863,-1.8768310546875,-18.1732177734375,-26.3671875
3.4899999,10.062829971313477,3.4308910369873047,-1.7693150043487549,-5.4779052734375,-15.228271484375,-8.9874267578125
3.5099999,10.055646896362305,3.5745432376861572,-1.623268723487854,-6.256103515625,14.678955078125,21.728515625
3.5299999,10.034099578857422,3.6296098232269287,-1.3646949529647827,4.7607421875,38.3148193359375,38.4063720703125
3.5499999,9.931148529052734,3.49314022064209,-0.8690952062606812,27.5726318359375,24.6429443359375,25.4364013671875
3.5699999,9.737217903137207,3.224989652633667,-0.2106897532939911,40.557861328125,-10.1318359375,-2.0904541015625
3.5899999,9.615114212036133,3.308786630630493,0.24420857429504395,42.205810546875,-19.34814453125,-9.2620849609375
3.6099999,9.57201862335205,4.000710964202881,0.272938996553421,25.87890625,25.1617431640625,36.4837646484375
3.6299999,9.461885452270508,4.81473970413208,0.10534487664699554,26.2603759765625,83.5418701171875,109.710693359375
3.6499999,9.258378028869629,5.293580055236816,0.2753331959247589,56.0302734375,93.7042236328125,120.1171875
3.6699999,8.87051773071289,5.12119722366333,0.9409212470054626,71.1822509765625,57.2662353515625,73.944091796875
3.6899999,8.406042098999023,4.541800498962402,1.900996208190918,60.3485107421875,28.9764404296875,50.2166748046875
3.7099999,8.01339340209961,4.019864559173584,2.7964274883270264,63.5223388671875,38.1927490234375,69.366455078125
3.7299999,7.704541206359863,3.7205893993377686,3.4093432426452637,88.7603759765625,47.9278564453125,82.244873046875
3.7499999,7.575253963470459,3.6152446269989014,3.8570590019226074,111.1297607421875,38.26904296875,61.1724853515625
3.7699999,7.718906402587891,3.663128614425659,4.436455726623535,112.60986328125,24.5819091796875,42.5872802734375
3.7899999,8.1139497756958,3.8762125968933105,4.98472785949707,108.642578125,15.44189453125,61.3861083984375
3.8099999,8.552088737487793,4.106055736541748,5.468356609344482,110.107421875,24.4293212890625,99.151611328125
3.8299999000000002,8.705317497253418,3.9384617805480957,5.829881191253662,107.177734375,43.6859130859375,123.1689453125
3.8499999,8.44195556640625,3.002328872680664,6.236895561218262,97.47314453125,55.5572509765625,115.264892578125
3.8699999,7.864952564239502,1.3407529592514038,6.682217121124268,84.686279296875,40.1153564453125,88.56201171875
3.8899999,7.3238630294799805,-0.48602294921875,7.026981830596924,74.310302734375,12.51220703125,56.45751953125
3.9099999,7.074865818023682,-1.889025092124939,7.129932880401611,66.2994384765625,-1.1749267578125,27.7252197265625
3.9299999,7.1251444816589355,-2.6815059185028076,6.890512466430664,63.568115234375,6.1187744140625,26.885986328125
3.9499999,7.438784599304199,-2.8562827110290527,6.557718276977539,57.55615234375,14.923095703125,32.684326171875
3.9699999,7.7643961906433105,-2.9257144927978516,6.452373504638672,47.332763671875,16.6015625,35.491943359375
3.9899999,7.915230751037598,-3.2345664501190186,6.7061591148376465,32.3333740234375,8.8958740234375,26.6876220703125
4.0099999,7.838616371154785,-3.797203779220581,7.218518257141113,17.852783203125,-7.32421875,-5.8135986328125
4.029999900000001,7.534552574157715,-4.474762916564941,7.671022415161133,6.4697265625,-25.299072265625,-35.7513427734375
4.0499999,7.273584842681885,-4.869806289672852,7.86734676361084,-4.6539306640625,-28.778076171875,-51.513671875
4.069999900000001,7.225700855255127,-4.778826713562012,7.682993412017822,-12.7105712890625,-26.031494140625,-56.732177734375
4.0899999000000005,7.489062786102295,-4.206612586975098,7.127538681030273,-16.4337158203125,-29.2205810546875,-56.793212890625
4.1099999,7.960720539093018,-3.426102638244629,6.418854713439941,-22.2625732421875,-24.9176025390625,-44.9981689453125
4.1299999000000005,8.403648376464844,-2.8634653091430664,5.705382823944092,-32.3944091796875,-12.176513671875,-28.045654296875
4.1499999,8.695740699768066,-2.6431987285614014,5.16429328918457,-35.0494384765625,-9.979248046875,-35.003662109375
4.1699999000000005,8.865729331970215,-3.0166940689086914,4.580107688903809,-46.81396484375,-22.7508544921875,-56.0455322265625
4.1899999,8.927978515625,-3.1866824626922607,4.37420654296875,-49.9267578125,-15.8233642578125,-42.327880859375
4.209999900000001,9.045293807983398,-3.1723172664642334,4.1395745277404785,-49.896240234375,-17.730712890625,-40.618896484375
4.2299999,9.196128845214844,-3.07415509223938,3.825934410095215,-48.675537109375,-26.275634765625,-50.567626953125
4.249999900000001,9.368511199951172,-2.9496564865112305,3.4380736351013184,-57.6171875,-27.0233154296875,-45.41015625
4.2699999,9.519346237182617,-2.9233202934265137,3.098097085952759,-69.76318359375,-12.8173828125,-25.482177734375
4.289999900000001,9.672574996948242,-2.978386878967285,2.715024709701538,-72.235107421875,-14.8162841796875,-24.35302734375
4.3099999,9.794678688049316,-3.1483752727508545,2.4205379486083984,-68.66455078125,-29.1595458984375,-43.304443359375
4.329999900000001,9.909601211547852,-3.2776620388031006,2.073378562927246,-71.0906982421875,-36.3311767578125,-51.8035888671875
4.3499999,10.034099578857422,-3.268085241317749,1.5514427423477173,-81.6802978515625,-35.369873046875,-41.8243408203125
4.369999900000001,10.146626472473145,-3.1866824626922607,0.9552865028381348,-86.2579345703125,-24.658203125,-28.3203125
4.3899999,10.196905136108398,-3.114856481552124,0.3687070608139038,-86.883544921875,-23.49853515625,-31.4178466796875
4.409999900000001,10.194510459899902,-3.0095114707946777,-0.13168109953403473,-88.409423828125,-35.552978515625,-50.6439208984375
4.4299999,10.204087257385254,-2.693476915359497,-0.5386953949928284,-85.418701171875,-43.0450439453125,-63.385009765625
4.449999900000001,10.201693534851074,-2.0638017654418945,-0.9648633003234863,-84.7320556640625,-30.57861328125,-52.1697998046875
4.4699999,10.196905136108398,-1.1779472827911377,-1.3455413579940796,-83.953857421875,-6.6375732421875,-30.8685302734375
4.489999900000001,10.122684478759766,-0.33039984107017517,-1.5298948287963867,-77.1331787109375,2.9296875,-25.5126953125
4.5099999,10.062829971313477,0.3447650372982025,-1.338358759880066,-65.521240234375,-7.2784423828125,-37.3382568359375
4.529999900000001,10.04846477508545,0.9097966551780701,-0.9744400978088379,-55.9234619140625,-28.1524658203125,-50.2777099609375
4.5499999,10.156203269958496,1.5682021379470825,-0.6991068720817566,-52.337646484375,-35.5377197265625,-46.7987060546875
4.569999900000001,10.357316970825195,2.410961151123047,-0.7709329724311829,-48.2177734375,-15.5792236328125,-26.519775390625
4.5899999000000005,10.611102104187012,3.428496837615967,-1.1252747774124146,-37.9486083984375,10.25390625,-2.74658203125
4.609999900000001,10.793061256408691,4.211400985717773,-1.4389152526855469,-17.7001953125,19.1802978515625,15.9454345703125
4.6299999000000005,10.893617630004883,4.6471452713012695,-1.4197616577148438,10.2691650390625,4.9896240234375,11.04736328125
4.6499999,10.826580047607422,4.704606533050537,-1.1683704853057861,22.3236083984375,-17.1661376953125,-3.84521484375
4.6699999000000005,10.754754066467285,4.8051629066467285,-0.8331822156906128,31.06689453125,-18.06640625,-10.955810546875
4.6899999,10.754754066467285,5.286397457122803,-0.6033388376235962,41.290283203125,5.2032470703125,15.31982421875
4.709999900000001,10.563218116760254,5.767632007598877,-0.4836287498474121,48.309326171875,28.3203125,73.8677978515625
4.7299999,10.235212326049805,5.9519853591918945,-0.004788403399288654,70.9075927734375,38.51318359375,85.7391357421875
4.749999900000001,9.713275909423828,5.851428985595703,0.5003881454467773,90.6982421875,12.847900390625,39.794921875
4.7699999,9.114726066589355,5.621585369110107,1.0654197931289673,78.5369873046875,16.4794921875,41.7938232421875
4.789999900000001,8.580819129943848,5.451597213745117,1.702277421951294,71.47216796875,66.436767578125,110.809326171875
4.8099999,8.08043098449707,5.078101634979248,2.449268341064453,90.1641845703125,83.3740234375,145.355224609375
4.829999900000001,7.63989782333374,4.326322555541992,3.5266590118408203,109.19189453125,52.2308349609375,95.8099365234375
4.8499999,7.264008045196533,3.294421434402466,4.5825018882751465,99.67041015625,12.2528076171875,45.806884765625
4.869999900000001,7.1251444816589355,2.3511061668395996,5.453991413116455,80.3070068359375,26.580810546875,63.385009765625
4.8899999,7.240066051483154,1.965639591217041,5.8203043937683105,74.2950439453125,53.7567138671875,95.2301025390625
4.909999900000001,7.374141216278076,1.5610195398330688,6.064512729644775,79.681396484375,52.642822265625,97.0001220703125
4.9299999,7.501033782958984,1.1276689767837524,6.337451934814453,89.569091796875,19.5159912109375,52.5665283203125
4.949999900000001,7.474697589874268,0.4572925269603729,6.54574728012085,75.25634765625,-5.157470703125,25.8636474609375
4.9699999,7.486668586730957,0.023942016065120697,6.507440090179443,62.957763671875,2.7618408203125,31.1737060546875
4.989999900000001,7.510610580444336,-0.1388636976480484,6.236895561218262,60.882568359375,25.5126953125,45.47119140625
5.0099999,7.479485988616943,-0.21308395266532898,5.664681434631348,59.26513671875,25.421142578125,51.239013671875
5.029999900000001,7.433996200561523,-0.33039984107017517,5.262455463409424,62.6220703125,13.763427734375,33.447265625
5.0499999,7.386112213134766,-0.545877993106842,4.982333660125732,60.0738525390625,15.5181884765625,24.96337890625
5.069999900000001,7.3885064125061035,-0.8020575642585754,4.994304656982422,52.978515625,26.9317626953125,35.919189453125
5.0899999000000005,7.340622425079346,-1.3479355573654175,5.303156852722168,49.37744140625,28.3966064453125,47.1954345703125
5.109999900000001,7.230489253997803,-2.279279947280884,5.999869346618652,52.7801513671875,12.451171875,23.3612060546875
5.1299999000000005,6.998251438140869,-3.471592426300049,6.75883150100708,43.76220703125,-12.4664306640625,-26.2603759765625
5.1499999,6.842628479003906,-4.548983097076416,7.422025203704834,27.0538330078125,-20.9197998046875,-54.0771484375
5.1699999000000005,6.947973251342773,-5.114014625549316,7.781155586242676,15.3350830078125,-13.702392578125,-49.1943359375
5.1899999,7.359776020050049,-5.056553840637207,7.773972988128662,1.5411376953125,-8.087158203125,-37.0635986328125
5.209999900000001,7.979874134063721,-4.6255974769592285,7.5968017578125,-7.8582763671875,-11.2762451171875,-37.261962890625
5.2299999,8.561665534973145,-4.2975921630859375,7.266402244567871,-16.3726806640625,-19.47021484375,-39.703369140625
5.249999900000001,8.96149730682373,-4.1395745277404785,6.823474884033203,-24.35302734375,-20.0347900390625,-41.290283203125
5.2699999,9.260771751403809,-4.106055736541748,6.509834289550781,-28.3966064453125,-11.444091796875,-47.8057861328125
5.289999900000001,9.39245319366455,-4.170699596405029,6.100425720214844,-38.787841796875,-28.106689453125,-51.605224609375
5.3099999,9.490615844726562,-4.177882194519043,5.772420406341553,-48.9044189453125,-28.2745361328125,-44.036865234375
5.329999900000001,9.435548782348633,-4.2951979637146,5.413290023803711,-61.6607666015625,-23.406982421875,-35.3851318359375
5.3499999,9.301473617553711,-4.481945514678955,5.044582843780518,-69.64111328125,-22.674560546875,-44.73876953125
5.369999900000001,9.14345645904541,-4.666299343109131,4.649539470672607,-73.5321044921875,-33.4930419921875,-64.422607421875
5.3899999,9.148244857788086,-4.55616569519043,4.1874589920043945,-78.4912109375,-45.928955078125,-74.0966796875
5.409999900000001,9.41400146484375,-4.039018154144287,3.620033025741577,-85.418701171875,-40.252685546875,-59.8907470703125
5.4299999,9.782708168029785,-3.361459255218506,2.8874073028564453,-94.696044921875,-26.6265869140625,-33.050537109375
5.449999900000001,10.103530883789062,-2.7916390895843506,2.183511972427368,-101.74560546875,-20.3094482421875,-24.3377685546875
5.4699999,10.189722061157227,-2.6408045291900635,1.5873557329177856,-104.6295166015625,-30.517578125,-37.872314453125
5.489999900000001,10.137049674987793,-2.6360161304473877,1.1563993692398071,-102.569580078125,-41.9921875,-63.629150390625
5.5099999,10.113107681274414,-2.425326347351074,0.7015010714530945,-104.9957275390625,-49.6368408203125,-73.7457275390625
5.529999900000001,10.290278434753418,-1.7477672100067139,0.20111294090747833,-107.5286865234375,-40.6646728515625,-53.03955078125
5.5499999,10.541669845581055,-0.9457096457481384,-0.26815059781074524,-110.9771728515625,-21.728515625,-19.073486328125
5.569999900000001,10.78587818145752,-0.2944868206977844,-0.4357447028160095,-103.5308837890625,-16.0980224609375,-15.838623046875
5.5899999000000005,10.805032730102539,-0.1364694982767105,-0.31603461503982544,-97.5189208984375,-33.8897705078125,-42.90771484375
5.609999900000001,10.716446876525879,-0.12689268589019775,0.021547814831137657,-90.9576416015625,-54.2755126953125,-74.0509033203125
5.6299999000000005,10.623072624206543,0.1412578970193863,0.20350714027881622,-84.8541259765625,-60.97412109375,-79.864501953125
5.6499999,10.675745010375977,1.0342950820922852,0.009576806798577309,-78.2318115234375,-50.8880615234375,-56.915283203125
5.6699999000000005,10.764330863952637,2.2194249629974365,-0.45489832758903503,-74.798583984375,-29.0679931640625,-17.9290771484375
5.6899999,10.400412559509277,3.778050184249878,-1.3934253454208374,-37.3992919921875,-33.843994140625,-24.7650146484375
5.709999900000001,10.002974510192871,4.101267337799072,-1.702277421951294,-19.83642578125,-47.0733642578125,-44.7540283203125
5.7299999,9.725247383117676,4.577713489532471,-1.9632453918457031,-11.016845703125,-35.614013671875,-23.5443115234375
5.749999900000001,9.677363395690918,5.3797712326049805,-2.2697031497955322,-7.0343017578125,-3.2806396484375,26.0009765625
5.7699999,9.66299819946289,6.076483726501465,-2.4420857429504395,-4.2266845703125,31.2957763671875,73.028564453125
5.789999900000001,9.461885452270508,5.983109951019287,-2.030282974243164,19.7906494140625,40.5426025390625,74.1729736328125
5.8099999,9.157821655273438,5.4228668212890625,-1.290474772453308,58.868408203125,-4.2877197265625,12.481689453125
5.829999900000001,8.93037223815918,4.879383087158203,-0.5027823448181152,61.2030029296875,-29.4647216796875,-16.326904296875
5.8499999,8.825027465820312,4.525041103363037,0.2082955539226532,39.48974609375,26.947021484375,53.0853271484375
5.869999900000001,8.83699893951416,4.501099109649658,0.6967126727104187,33.75244140625,72.113037109375,111.38916015625
5.8899999,8.678980827331543,3.9863457679748535,1.41257905960083,60.05859375,54.2449951171875,89.111328125
5.909999900000001,8.339004516601562,3.0597896575927734,2.22660756111145,81.146240234375,3.0975341796875,21.30126953125
5.9299999,7.99184513092041,2.1523873805999756,2.7772738933563232,66.650390625,-12.02392578125,-4.4708251953125
5.949999900000001,7.86734676361084,1.7741034030914307,3.0166940689086914,55.8013916015625,33.0352783203125,32.745361328125
5.9699999,7.817068576812744,1.7884687185287476,2.8826189041137695,57.281494140625,65.3228759765625,73.7762451171875
5.989999900000001,7.805097579956055,1.6950948238372803,3.0142998695373535,75.8819580078125,47.8363037109375,57.9681396484375
6.0099999,7.754819393157959,1.4772224426269531,3.201047658920288,84.5184326171875,7.4005126953125,0.1678466796875
6.029999900000001,7.711723804473877,1.1755530834197998,3.490746021270752,70.7855224609375,8.544921875,-6.0577392578125
6.0499999,7.769184589385986,1.1061211824417114,3.5960910320281982,66.10107421875,39.0167236328125,27.5421142578125
6.069999900000001,7.931990146636963,1.259350061416626,3.5889084339141846,69.549560546875,46.783447265625,38.02490234375
6.0899999000000005,8.109161376953125,1.280897855758667,3.778050184249878,79.3304443359375,32.89794921875,23.7579345703125
6.109999900000001,8.221688270568848,1.036689281463623,4.046200752258301,75.592041015625,19.012451171875,12.664794921875
6.1299999000000005,8.394071578979492,0.7565677165985107,4.367023944854736,67.9779052734375,22.0489501953125,12.02392578125
6.149999900000001,8.604761123657227,0.5410895943641663,4.534617900848389,62.5152587890625,27.9083251953125,22.5982666015625
6.1699999000000005,8.798690795898438,0.3423708379268646,4.525041103363037,59.9365234375,29.876708984375,38.1927490234375
6.1899999,8.944737434387207,0.090979665517807,4.462791919708252,64.88037109375,28.900146484375,38.238525390625
6.209999900000001,9.02135181427002,-0.2968810200691223,4.400542736053467,67.8253173828125,27.40478515625,28.656005859375
6.2299999,9.042900085449219,-0.8020575642585754,4.398148536682129,58.837890625,27.130126953125,29.327392578125
6.249999900000001,9.042900085449219,-1.41257905960083,4.520252704620361,49.8199462890625,26.79443359375,35.858154296875
6.2699999,9.07641887664795,-2.013523578643799,4.7620673179626465,45.2728271484375,21.270751953125,30.3955078125
6.289999900000001,9.081207275390625,-2.6384103298187256,5.070919036865234,41.3818359375,11.3372802734375,14.9078369140625
6.3099999,9.0859956741333,-3.1531636714935303,5.353435039520264,35.21728515625,2.288818359375,1.922607421875
6.329999900000001,9.10993766784668,-3.466804027557373,5.588066577911377,27.0843505859375,-0.7781982421875,-1.8768310546875
6.3499999,9.141061782836914,-3.5266590118408203,5.688623428344727,13.6260986328125,-0.030517578125,3.84521484375
6.369999900000001,9.10993766784668,-3.512293815612793,5.652710437774658,1.434326171875,0.4425048828125,12.0697021484375
6.3899999,8.971074104309082,-3.49314022064209,5.477933406829834,-1.983642578125,-3.509521484375,6.3018798828125
6.409999900000001,8.789113998413086,-3.466804027557373,5.190629482269287,-4.852294921875,-7.4615478515625,-10.6353759765625
6.4299999,8.662221908569336,-3.28963303565979,4.795586109161377,-7.0648193359375,-13.1378173828125,-20.172119140625
6.449999900000001,8.619126319885254,-3.0166940689086914,4.288015365600586,-11.1541748046875,-10.7421875,-10.8489990234375
6.4699999,8.662221908569336,-2.671929121017456,3.737348794937134,-13.153076171875,-2.349853515625,-3.143310546875
6.489999900000001,8.769960403442383,-2.38462495803833,3.24414324760437,-13.1072998046875,5.2337646484375,-9.8724365234375
6.5099999,8.939949035644531,-2.142810583114624,2.829946517944336,-13.0462646484375,-3.8909912109375,-23.6053466796875
6.529999900000001,9.248801231384277,-1.8363527059555054,2.564189910888672,-9.4146728515625,-10.223388671875,-25.57373046875
6.5499999,9.852140426635742,-1.3958195447921753,2.449268341064453,-6.2103271484375,-10.4217529296875,-17.8375244140625
6.569999900000001,10.63504409790039,-0.9552865028381348,2.4396915435791016,-3.4332275390625,-9.521484375,-11.077880859375
6.5899999000000005,11.494562149047852,-0.5578489899635315,2.52109432220459,-5.0506591796875,-20.2484130859375,-7.7972412109375
6.609999900000001,12.078747749328613,-0.3232172429561615,2.631227731704712,-12.420654296875,-25.1922607421875,3.9825439453125
6.6299999000000005,12.042834281921387,-0.33997663855552673,2.715024709701538,-17.9901123046875,-23.0712890625,17.5933837890625
6.649999900000001,11.312602996826172,-0.5363011956214905,2.647987127304077,-14.0838623046875,-22.39990234375,8.1787109375
6.6699999000000005,10.043676376342773,-0.8595184087753296,2.4181437492370605,-9.063720703125,-23.1475830078125,-12.2833251953125
6.6899999,8.71489429473877,-1.0965443849563599,2.1380221843719482,-4.0130615234375,-17.2119140625,-23.681640625
6.709999900000001,7.800309181213379,-1.0247182846069336,1.8052281141281128,-1.46484375,-8.72802734375,-21.3470458984375
6.7299999,7.544129371643066,-0.6775590777397156,1.6136919260025024,-3.47900390625,3.8299560546875,-9.124755859375
6.749999900000001,7.876923561096191,-0.31364041566848755,1.6304513216018677,-4.302978515625,11.4898681640625,1.9073486328125
6.7699999,8.628703117370605,-0.033518824726343155,1.86508309841156,-1.1444091796875,4.6539306640625,-3.204345703125
6.789999900000001,9.466673851013184,0.031124621629714966,2.2218191623687744,-0.701904296875,-5.9661865234375,-10.9405517578125
6.8099999,10.14902114868164,0.009576806798577309,2.5737667083740234,-0.244140625,-9.9334716796875,-10.25390625
6.829999900000001,10.481815338134766,-0.040701430290937424,2.736572504043579,-1.678466796875,-9.2010498046875,-2.8533935546875
6.8499999,10.426748275756836,-0.090979665517807,2.734178304672241,-3.448486328125,-4.425048828125,4.2266845703125
6.869999900000001,10.06043529510498,-0.2059013396501541,2.58813214302063,-3.753662109375,-0.457763671875,5.1422119140625
6.8899999,9.603142738342285,-0.3734954595565796,2.434903144836426,-2.0751953125,1.739501953125,-0.457763671875
6.909999900000001,9.263166427612305,-0.5339069962501526,2.346317768096924,-1.495361328125,2.349853515625,-5.0811767578125
6.9299999,9.153033256530762,-0.6392518281936646,2.3511061668395996,-2.7008056640625,0.9307861328125,-4.4097900390625
6.949999900000001,9.265560150146484,-0.6224924325942993,2.410961151123047,-3.23486328125,-0.7171630859375,-1.6937255859375
6.9699999,9.464279174804688,-0.5626373887062073,2.492363929748535,-4.2266845703125,-1.0986328125,1.3427734375
6.989999900000001,9.619902610778809,-0.4908113479614258,2.5330653190612793,-3.3721923828125,-1.52587890625,1.46484375
7.0099999,9.674968719482422,-0.4381389021873474,2.5258827209472656,-2.8076171875,-3.0059814453125,-1.861572265625
7.029999900000001,9.62947940826416,-0.40701428055763245,2.473210334777832,-3.0975341796875,-2.9144287109375,-2.349853515625
7.0499999,9.550470352172852,-0.3902548849582672,2.4205379486083984,-3.0670166015625,-0.5950927734375,-0.1220703125
7.069999900000001,9.48343276977539,-0.37828385829925537,2.363077163696289,-2.5482177734375,-1.220703125,-0.762939453125
7.0899999000000005,9.464279174804688,-0.3758896589279175,2.3558945655822754,-2.105712890625,-1.8463134765625,-2.38037109375
7.109999900000001,9.478644371032715,-0.38307225704193115,2.363077163696289,-3.021240234375,-1.6021728515625,-0.946044921875
7.1299999000000005,9.50737476348877,-0.3926490843296051,2.387019157409668,-2.8228759765625,-1.739501953125,0.579833984375
7.149999900000001,9.543288230895996,-0.38067805767059326,2.3965959548950195,-1.7852783203125,-2.38037109375,-0.54931640625
7.1699999000000005,9.552865028381348,-0.3734954595565796,2.3965959548950195,-2.3040771484375,-1.617431640625,0.6256103515625
7.1899999,9.53849983215332,-0.3926490843296051,2.403778553009033,-2.197265625,-0.9918212890625,2.6397705078125
7.209999900000001,9.512163162231445,-0.4620809257030487,2.4181437492370605,-1.7547607421875,-6.1798095703125,-2.655029296875
7.2299999,9.519346237182617,-0.48602294921875,2.4133553504943848,-2.197265625,-4.9591064453125,-1.0833740234375
7.249999900000001,9.543288230895996,-0.4836287498474121,2.382230758666992,-1.2359619140625,-3.662109375,0.9002685546875
7.2699999,9.560047149658203,-0.4620809257030487,2.3295583724975586,-1.373291015625,-4.364013671875,0.3662109375
7.289999900000001,9.557653427124023,-0.44771572947502136,2.2816741466522217,-1.46484375,-4.2572021484375,-0.4730224609375
7.3099999,9.524134635925293,-0.4620809257030487,2.22660756111145,-1.9378662109375,-2.105712890625,0.0457763671875
7.329999900000001,9.490615844726562,-0.4812345504760742,2.1930887699127197,-1.8157958984375,0.244140625,-0.5035400390625
7.3499999,9.469067573547363,-0.5027823448181152,2.1787235736846924,-1.4801025390625,-0.244140625,-2.3956298828125
7.369999900000001,9.476250648498535,-0.507570743560791,2.185906171798706,-1.4190673828125,-1.1749267578125,-2.8228759765625
7.3899999,9.516951560974121,-0.47405192255973816,2.212242364883423,-0.3204345703125,-1.434326171875,-2.838134765625
7.409999900000001,9.564835548400879,-0.4381389021873474,2.231395959854126,1.3580322265625,-2.197265625,-2.50244140625
7.4299999,9.603142738342285,-0.38546648621559143,2.231395959854126,1.28173828125,-2.86865234375,-2.5177001953125
7.449999900000001,9.612719535827637,-0.3519476354122162,2.22660756111145,0.18310546875,-1.9378662109375,-1.617431640625
7.4699999,9.600749015808105,-0.3423708379268646,2.205059766769409,0.091552734375,-2.1820068359375,-0.823974609375
7.489999900000001,9.579200744628906,-0.3471592366695404,2.183511972427368,0.8697509765625,-3.41796875,-2.1820068359375
7.5099999,9.5624418258667,-0.35913026332855225,2.1763293743133545,3.265380859375,-4.8675537109375,-4.1351318359375
7.529999900000001,9.560047149658203,-0.3687070608139038,2.1739351749420166,2.9144287109375,-5.5084228515625,-4.0435791015625
7.5499999,9.576807022094727,-0.3447650372982025,2.166752576828003,1.129150390625,-5.859375,-2.5787353515625
7.569999900000001,9.588777542114258,-0.3447650372982025,2.166752576828003,1.64794921875,-4.7454833984375,-0.1220703125
7.5899999000000005,9.593565940856934,-0.35673606395721436,2.145204782485962,2.4871826171875,-6.195068359375,-1.5411376953125
7.609999900000001,9.593565940856934,-0.395043283700943,2.1332337856292725,2.0751953125,-6.9427490234375,-4.730224609375
7.6299999000000005,9.603142738342285,-0.4189853072166443,2.118868589401245,1.312255859375,-7.4005126953125,-6.011962890625
7.649999900000001,9.62947940826416,-0.395043283700943,2.0901381969451904,-0.6256103515625,-6.7901611328125,-3.082275390625
7.6699999000000005,9.653421401977539,-0.35434186458587646,2.0446481704711914,-1.8463134765625,-5.3253173828125,0.9765625
7.6899999,9.670180320739746,-0.2944868206977844,1.9991583824157715,-0.5035400390625,-3.9825439453125,-0.213623046875
7.709999900000001,9.653421401977539,-0.2777273952960968,1.9488801956176758,-0.30517578125,-4.5623779296875,-2.2430419921875
7.7299999,9.627084732055664,-0.2753331959247589,1.922544002532959,-0.3662109375,-4.8065185546875,-2.9754638671875
7.749999900000001,9.610325813293457,-0.26096799969673157,1.9033904075622559,-0.6256103515625,-4.0435791015625,-3.3416748046875
7.7699999,9.615114212036133,-0.24181437492370605,1.9057846069335938,-0.335693359375,-3.4027099609375,-2.0294189453125
7.789999900000001,9.636661529541016,-0.2082955539226532,1.8842366933822632,0.091552734375,-4.608154296875,-1.5869140625
7.8099999,9.646238327026367,-0.19871874153614044,1.8722656965255737,0.3662109375,-3.753662109375,-1.190185546875
7.829999900000001,9.646238327026367,-0.21308395266532898,1.8483237028121948,0.3509521484375,-2.9296875,-1.7547607421875
7.8499999,9.62947940826416,-0.24420857429504395,1.8195933103561401,-0.42724609375,-2.899169921875,-2.7008056640625
7.869999900000001,9.617507934570312,-0.272938996553421,1.8076223134994507,-0.8087158203125,-2.1820068359375,-2.7313232421875
7.8899999,9.622296333312988,-0.2825157940387726,1.800439715385437,-1.0528564453125,-2.410888671875,-2.1514892578125
7.909999900000001,9.641449928283691,-0.26336219906806946,1.800439715385437,-0.7171630859375,-2.777099609375,-2.3040771484375
7.9299999,9.658209800720215,-0.24660277366638184,1.7980455160140991,0.152587890625,-2.99072265625,-2.1514892578125
7.949999900000001,9.66299819946289,-0.2298433631658554,1.7908629179000854,0.457763671875,-2.74658203125,-2.838134765625
7.9699999,9.658209800720215,-0.2059013396501541,1.766920804977417,-0.2593994140625,-2.9449462890625,-3.509521484375
7.989999900000001,9.651026725769043,-0.1867477297782898,1.7549498081207275,-0.54931640625,-1.89208984375,-2.1514892578125
8.0099999,9.653421401977539,-0.15562310814857483,1.7405846118927002,-0.2593994140625,-1.7242431640625,-1.2359619140625
8.0299999,9.672574996948242,-0.12210428714752197,1.723825216293335,-0.1068115234375,-1.617431640625,-1.129150390625
8.049999900000001,9.68694019317627,-0.10773907601833344,1.723825216293335,-0.579833984375,-0.4119873046875,-0.67138671875
8.069999900000001,9.68933391571045,-0.09816227108240128,1.7070658206939697,-0.42724609375,-0.335693359375,-1.0223388671875
8.0899999,9.677363395690918,-0.10773907601833344,1.6974890232086182,-0.518798828125,0.1678466796875,-0.5950927734375
8.1099999,9.670180320739746,-0.11971008777618408,1.6927006244659424,-0.1983642578125,1.52587890625,-0.3204345703125
8.129999900000001,9.670180320739746,-0.13168109953403473,1.6879122257232666,-0.4425048828125,1.495361328125,-0.1983642578125
8.149999900000001,9.672574996948242,-0.14844051003456116,1.6927006244659424,-0.579833984375,1.40380859375,0.67138671875
8.1699999,9.66299819946289,-0.17956513166427612,1.6927006244659424,-0.5340576171875,1.2969970703125,0.762939453125
8.1899999,9.627084732055664,-0.22744916379451752,1.7094600200653076,-0.9002685546875,2.3651123046875,-0.48828125
8.2099999,9.586383819580078,-0.2825157940387726,1.7262194156646729,-1.0986328125,1.983642578125,-2.471923828125
8.229999900000001,9.579200744628906,-0.2968810200691223,1.7549498081207275,-1.312255859375,0.42724609375,-4.5928955078125
8.2499999,9.617507934570312,-0.26096799969673157,1.7741034030914307,-2.0751953125,-0.213623046875,-3.9215087890625
8.2699999,9.68933391571045,-0.16519992053508759,1.7764976024627686,-1.495361328125,0.3814697265625,-1.7547607421875
8.2899999,9.75397777557373,-0.047884032130241394,1.7597382068634033,-0.7171630859375,0.6256103515625,-0.1068115234375
8.309999900000001,9.782708168029785,0.047884032130241394,1.7262194156646729,-0.3662109375,0.6561279296875,0.6103515625
8.3299999,9.768342971801758,0.08619125932455063,1.6974890232086182,0.457763671875,1.0528564453125,1.0833740234375
8.3499999,9.727641105651855,0.05746084079146385,1.6855180263519287,0.457763671875,1.2054443359375,1.1138916015625
8.3699999,9.68933391571045,-0.011971008032560349,1.699883222579956,-0.1983642578125,0.7781982421875,0.030517578125
8.389999900000001,9.672574996948242,-0.08858546614646912,1.721431016921997,-0.274658203125,-0.6103515625,-1.373291015625
8.4099999,9.670180320739746,-0.14604631066322327,1.7405846118927002,-0.30517578125,-0.640869140625,-0.67138671875
8.4299999,9.674968719482422,-0.16759411990642548,1.742978811264038,-0.1068115234375,0.518798828125,0.3814697265625
8.4499999,9.66299819946289,-0.17717093229293823,1.7262194156646729,-0.3662109375,1.190185546875,0.335693359375
8.469999900000001,9.641449928283691,-0.1867477297782898,1.721431016921997,-1.2664794921875,1.312255859375,-0.5340576171875
8.4899999,9.612719535827637,-0.2059013396501541,1.7190368175506592,-1.4801025390625,1.6326904296875,-1.6632080078125
8.5099999,9.600749015808105,-0.21547815203666687,1.7381904125213623,-1.7242431640625,1.15966796875,-2.471923828125
8.5299999,9.615114212036133,-0.19632454216480255,1.745373010635376,-1.739501953125,0.91552734375,-2.7313232421875
8.549999900000001,9.655815124511719,-0.13407529890537262,1.7405846118927002,-1.251220703125,0.48828125,-2.227783203125
8.569999900000001,9.701305389404297,-0.0454898327589035,1.721431016921997,0.0152587890625,0.518798828125,-0.9307861328125
8.5899999,9.730035781860352,0.028730420395731926,1.6903064250946045,0.3814697265625,0.9765625,1.0223388671875
8.6099999,9.737217903137207,0.07182604819536209,1.678335428237915,0.518798828125,1.708984375,1.0833740234375
8.629999900000001,9.713275909423828,0.0454898327589035,1.680729627609253,0.2593994140625,1.220703125,0.579833984375
8.649999900000001,9.68694019317627,-0.011971008032560349,1.702277421951294,-0.18310546875,0.2899169921875,-0.5340576171875
8.6699999,9.677363395690918,-0.0694318488240242,1.7310078144073486,-0.6866455078125,0.5645751953125,-0.8697509765625
8.6899999,9.679757118225098,-0.11013327538967133,1.7525556087493896,-0.518798828125,0.8087158203125,0.1373291015625
8.709999900000001,9.696516990661621,-0.10295066982507706,1.7501614093780518,-0.6561279296875,0.3204345703125,0.457763671875
8.729999900000001,9.68933391571045,-0.08619125932455063,1.7405846118927002,-0.518798828125,0.946044921875,0.5950927734375
8.7499999,9.682151794433594,-0.0694318488240242,1.721431016921997,-0.457763671875,1.068115234375,0.4119873046875
8.7699999,9.672574996948242,-0.05985504388809204,1.7142484188079834,0.06103515625,0.885009765625,0.48828125
8.7899999,9.667786598205566,-0.0694318488240242,1.7118542194366455,0.4425048828125,0.8544921875,0.5035400390625
8.809999900000001,9.670180320739746,-0.07661445438861847,1.7190368175506592,0.4730224609375,0.18310546875,-0.48828125
8.8299999,9.672574996948242,-0.090979665517807,1.7190368175506592,0.1220703125,-0.0762939453125,-0.213623046875
8.8499999,9.670180320739746,-0.11013327538967133,1.7286136150360107,-0.1983642578125,0.4730224609375,1.068115234375
8.8699999,9.670180320739746,-0.11252748221158981,1.721431016921997,-0.335693359375,0.152587890625,-0.1373291015625
8.889999900000001,9.667786598205566,-0.1149216815829277,1.7118542194366455,-0.6561279296875,0.3662109375,-0.396728515625
8.9099999,9.66299819946289,-0.11013327538967133,1.699883222579956,-0.518798828125,1.0986328125,0.30517578125
8.9299999,9.672574996948242,-0.090979665517807,1.6950948238372803,-0.244140625,0.8087158203125,0.5950927734375
8.9499999,9.679757118225098,-0.08140286058187485,1.6927006244659424,-0.5035400390625,0.457763671875,0.640869140625
8.969999900000001,9.684545516967773,-0.08140286058187485,1.699883222579956,-1.1444091796875,0.518798828125,0.5035400390625
8.9899999,9.682151794433594,-0.090979665517807,1.702277421951294,-1.1749267578125,0.6866455078125,0.152587890625
9.0099999,9.679757118225098,-0.08858546614646912,1.7046716213226318,-0.6866455078125,0.823974609375,-0.0152587890625
9.0299999,9.679757118225098,-0.08619125932455063,1.7046716213226318,-0.5950927734375,1.1138916015625,0.640869140625
9.049999900000001,9.684545516967773,-0.07900865375995636,1.7094600200653076,-0.3662109375,0.8544921875,0.9002685546875
9.069999900000001,9.68694019317627,-0.08379705995321274,1.7190368175506592,-0.1983642578125,0.518798828125,0.91552734375
9.0899999,9.68694019317627,-0.09816227108240128,1.723825216293335,-0.6866455078125,-0.030517578125,0.457763671875
9.1099999,9.682151794433594,-0.1173158809542656,1.723825216293335,-1.0986328125,-0.274658203125,-0.0457763671875
9.129999900000001,9.679757118225098,-0.11252748221158981,1.7166426181793213,-0.213623046875,-0.152587890625,-0.3509521484375
9.149999900000001,9.677363395690918,-0.11252748221158981,1.7070658206939697,-0.0762939453125,0.42724609375,0.823974609375
9.1699999,9.682151794433594,-0.09576806426048279,1.6974890232086182,-0.3509521484375,0.18310546875,0.579833984375
9.1899999,9.68694019317627,-0.0933738648891449,1.6927006244659424,-0.0457763671875,0.1220703125,0.1220703125
9.209999900000001,9.694122314453125,-0.09576806426048279,1.6974890232086182,0.244140625,0.3814697265625,0.48828125
9.229999900000001,9.706093788146973,-0.10295066982507706,1.7046716213226318,0.030517578125,-0.3204345703125,0.579833984375
9.2499999,9.706093788146973,-0.1149216815829277,1.7046716213226318,-1.220703125,-1.2359619140625,0.9002685546875
9.2699999,9.708487510681152,-0.11013327538967133,1.6927006244659424,-1.2664794921875,-1.2054443359375,0.30517578125
9.2899999,9.694122314453125,-0.1173158809542656,1.6687586307525635,-0.67138671875,-0.7476806640625,0.9613037109375
9.309999900000001,9.684545516967773,-0.10295066982507706,1.6376339197158813,-0.48828125,-0.3509521484375,1.068115234375
9.3299999,9.674968719482422,-0.10055647045373917,1.623268723487854,-0.518798828125,0.18310546875,1.15966796875
9.3499999,9.66539192199707,-0.10773907601833344,1.623268723487854,-0.3204345703125,0.457763671875,1.2969970703125
9.3699999,9.660603523254395,-0.12210428714752197,1.6328455209732056,-0.274658203125,0.42724609375,0.823974609375
9.389999900000001,9.655815124511719,-0.14844051003456116,1.647210717201233,-0.79345703125,0.701904296875,0.823974609375
9.4099999,9.658209800720215,-0.16998831927776337,1.6543933153152466,-0.9765625,0.640869140625,0.4425048828125
9.4299999,9.66299819946289,-0.18914192914962769,1.659181833267212,-1.1749267578125,0.5950927734375,0.335693359375
9.4499999,9.670180320739746,-0.19153612852096558,1.6519991159439087,-1.800537109375,0.640869140625,-0.0152587890625
9.469999900000001,9.679757118225098,-0.181959331035614,1.6400281190872192,-1.190185546875,0.518798828125,0
9.4899999,9.691728591918945,-0.1628057211637497,1.6304513216018677,-0.54931640625,1.251220703125,0.5645751953125
9.5099999,9.6989107131958,-0.15801730751991272,1.625662922859192,-0.8544921875,1.3275146484375,1.190185546875
9.5299999,9.6989107131958,-0.15562310814857483,1.6304513216018677,-1.40380859375,0.213623046875,0.1983642578125
9.549999900000001,9.68933391571045,-0.16998831927776337,1.6519991159439087,-1.28173828125,0.3662109375,-0.6103515625
9.569999900000001,9.679757118225098,-0.17238251864910126,1.6687586307525635,-1.190185546875,0.0457763671875,-0.67138671875
9.5899999,9.679757118225098,-0.15801730751991272,1.680729627609253,-1.03759765625,0.030517578125,-0.42724609375
9.6099999,9.684545516967773,-0.12928688526153564,1.6831238269805908,-0.579833984375,0.3662109375,0.3204345703125
9.629999900000001,9.68933391571045,-0.10534487664699554,1.6711528301239014,-0.06103515625,0.6866455078125,1.0223388671875
9.649999900000001,9.684545516967773,-0.09816227108240128,1.6543933153152466,-0.3509521484375,0.762939453125,1.03759765625
9.6699999,9.672574996948242,-0.10773907601833344,1.6376339197158813,-0.8697509765625,0.8544921875,0.457763671875
9.6899999,9.660603523254395,-0.1388636976480484,1.6208745241165161,-0.579833984375,0.6866455078125,-0.0457763671875
9.709999900000001,9.660603523254395,-0.1604115068912506,1.6184803247451782,-0.152587890625,0.8697509765625,-0.274658203125
9.729999900000001,9.667786598205566,-0.17717093229293823,1.6208745241165161,-0.0457763671875,0.9918212890625,-0.30517578125
9.7499999,9.682151794433594,-0.17477671802043915,1.6352397203445435,-0.0762939453125,0.701904296875,-0.091552734375
9.7699999,9.68933391571045,-0.1628057211637497,1.6400281190872192,-0.2899169921875,0.518798828125,0.30517578125
9.7899999,9.691728591918945,-0.15801730751991272,1.644816517829895,-0.335693359375,0.79345703125,0.518798828125
9.809999900000001,9.691728591918945,-0.15083470940589905,1.6400281190872192,-0.457763671875,0.67138671875,-0.0457763671875
9.8299999,9.68933391571045,-0.15322890877723694,1.6352397203445435,-0.762939453125,0.5645751953125,-0.06103515625
9.8499999,9.68933391571045,-0.15562310814857483,1.6304513216018677,-0.701904296875,0.8697509765625,0.4119873046875
9.8699999,9.691728591918945,-0.15801730751991272,1.6304513216018677,-0.2593994140625,1.0223388671875,0.30517578125
9.889999900000001,9.691728591918945,-0.1628057211637497,1.6352397203445435,-0.4730224609375,0.885009765625,0.0152587890625
9.9099999,9.691728591918945,-0.16519992053508759,1.6400281190872192,-0.762939453125,0.54931640625,-0.2593994140625
9.9299999,9.6989107131958,-0.15801730751991272,1.644816517829895,-0.335693359375,0.244140625,-0.2593994140625
9.9499999,9.694122314453125,-0.1628057211637497,1.644816517829895,-0.18310546875,0.4119873046875,0.3204345703125
9.969999900000001,9.694122314453125,-0.15562310814857483,1.6376339197158813,-0.5340576171875,0.3814697265625,-0.030517578125
9.9899999,9.691728591918945,-0.15083470940589905,1.6280571222305298,-0.518798828125,0.6561279296875,-0.3662109375
10.0099999,9.68933391571045,-0.15322890877723694,1.625662922859192,-0.2593994140625,1.3885498046875,0.3509521484375
10.0299999,9.68933391571045,-0.15801730751991272,1.625662922859192,-0.3662109375,0.4730224609375,0.4119873046875
10.049999900000001,9.68933391571045,-0.16519992053508759,1.6280571222305298,-0.4119873046875,-0.2593994140625,-0.6103515625
10.069999900000001,9.679757118225098,-0.17717093229293823,1.623268723487854,-0.5340576171875,0.274658203125,-0.5035400390625
10.0899999,9.672574996948242,-0.17477671802043915,1.6112977266311646,-0.3662109375,1.2054443359375,-0.2899169921875
10.1099999,9.670180320739746,-0.1604115068912506,1.5969325304031372,-0.579833984375,1.52587890625,-0.1068115234375
10.129999900000001,9.674968719482422,-0.15083470940589905,1.5969325304031372,-0.5340576171875,1.7547607421875,0.3509521484375
10.149999900000001,9.68933391571045,-0.1388636976480484,1.6065093278884888,-0.091552734375,0.9765625,0.0457763671875
10.1699999,9.6989107131958,-0.14365209639072418,1.625662922859192,0,0.5645751953125,-0.3509521484375
10.1899999,9.706093788146973,-0.15083470940589905,1.6424223184585571,-0.6103515625,0.457763671875,-0.42724609375
10.209999900000001,9.703699111938477,-0.15322890877723694,1.647210717201233,-0.7171630859375,0.274658203125,-0.579833984375
10.229999900000001,9.703699111938477,-0.1412578970193863,1.6376339197158813,0.0152587890625,1.068115234375,0.6103515625
10.2499999,9.701305389404297,-0.1388636976480484,1.6280571222305298,-0.213623046875,0.9918212890625,0.518798828125
10.2699999,9.694122314453125,-0.14365209639072418,1.623268723487854,-0.5645751953125,0.9765625,0.06103515625
10.2899999,9.684545516967773,-0.15083470940589905,1.6208745241165161,-0.1220703125,0.5035400390625,0.1068115234375
10.309999900000001,9.684545516967773,-0.15562310814857483,1.6280571222305298,0.4730224609375,0.335693359375,-0.0457763671875
10.3299999,9.684545516967773,-0.16998831927776337,1.6304513216018677,-0.42724609375,0.18310546875,0.2593994140625
10.3499999,9.68933391571045,-0.17238251864910126,1.625662922859192,-0.518798828125,0.1068115234375,-0.5950927734375
10.3699999,9.68933391571045,-0.17956513166427612,1.6208745241165161,-0.0152587890625,0.3662109375,-0.7171630859375
10.389999900000001,9.691728591918945,-0.16998831927776337,1.6184803247451782,-0.1220703125,0.3662109375,-0.152587890625
10.4099999,9.696516990661621,-0.15562310814857483,1.6208745241165161,-0.0457763671875,0.30517578125,0.06103515625
10.4299999,9.6989107131958,-0.15083470940589905,1.625662922859192,0.06103515625,0.2593994140625,0.2288818359375
10.4499999,9.703699111938477,-0.14604631066322327,1.6304513216018677,-0.2288818359375,0.2899169921875,-0.0152587890625
10.469999900000001,9.706093788146973,-0.14844051003456116,1.6304513216018677,-0.4119873046875,0.030517578125,0.030517578125
10.4899999,9.701305389404297,-0.15083470940589905,1.6184803247451782,-0.8392333984375,-0.2899169921875,0.2288818359375
10.5099999,9.706093788146973,-0.1412578970193863,1.6112977266311646,-0.7476806640625,0,0.0457763671875
10.5299999,9.6989107131958,-0.14604631066322327,1.5945383310317993,-0.67138671875,0.3204345703125,0.6256103515625
10.549999900000001,9.696516990661621,-0.14844051003456116,1.5897499322891235,-0.457763671875,0.6103515625,0.4119873046875
10.569999900000001,9.691728591918945,-0.1628057211637497,1.5897499322891235,-0.396728515625,0.2899169921875,-0.213623046875
10.5899999,9.691728591918945,-0.16519992053508759,1.5921441316604614,-0.54931640625,-0.2899169921875,-0.6866455078125
10.6099999,9.691728591918945,-0.16759411990642548,1.5897499322891235,-0.3204345703125,-0.2593994140625,-0.1373291015625
10.629999900000001,9.68933391571045,-0.15322890877723694,1.580173134803772,-0.3204345703125,0.4425048828125,0.091552734375
10.649999900000001,9.691728591918945,-0.13407529890537262,1.5658079385757446,-0.6256103515625,1.03759765625,0
10.6699999,9.691728591918945,-0.12449848651885986,1.5610195398330688,-0.2288818359375,1.312255859375,0.4730224609375
10.6899999,9.691728591918945,-0.12689268589019775,1.5658079385757446,0.1220703125,1.2359619140625,0.79345703125
10.709999900000001,9.694122314453125,-0.1388636976480484,1.5705963373184204,0.18310546875,0.4119873046875,0.152587890625
10.729999900000001,9.691728591918945,-0.1628057211637497,1.5849615335464478,-0.2899169921875,0.3662109375,-0.152587890625
10.7499999,9.691728591918945,-0.181959331035614,1.5873557329177856,-0.5950927734375,0.79345703125,-0.2288818359375
10.7699999,9.691728591918945,-0.1843535304069519,1.5873557329177856,-0.701904296875,0.762939453125,-0.274658203125
10.7899999,9.6989107131958,-0.16759411990642548,1.5825673341751099,-0.1220703125,0.9002685546875,-0.1983642578125
10.809999900000001,9.703699111938477,-0.14844051003456116,1.5825673341751099,0.1983642578125,0.91552734375,0.48828125
10.8299999,9.703699111938477,-0.13168109953403473,1.5849615335464478,0.030517578125,1.0223388671875,0.7476806640625
10.8499999,9.703699111938477,-0.12928688526153564,1.5921441316604614,-0.18310546875,0.885009765625,0.06103515625
10.8699999,9.703699111938477,-0.14844051003456116,1.6089035272598267,-0.18310546875,0.54931640625,-0.091552734375
10.889999900000001,9.706093788146973,-0.16759411990642548,1.6208745241165161,-0.396728515625,0.2288818359375,-0.274658203125
10.9099999,9.706093788146973,-0.17717093229293823,1.6160861253738403,-0.732421875,-0.0457763671875,-0.274658203125
10.9299999,9.701305389404297,-0.16759411990642548,1.601720929145813,-0.1983642578125,0.54931640625,-0.06103515625
10.9499999,9.694122314453125,-0.15083470940589905,1.580173134803772,-0.1068115234375,1.3885498046875,0.5035400390625
10.969999900000001,9.694122314453125,-0.12928688526153564,1.5682021379470825,-0.3204345703125,1.4801025390625,0.640869140625
10.9899999,9.68933391571045,-0.13407529890537262,1.5729905366897583,-0.3814697265625,1.28173828125,0.8697509765625
11.0099999,9.694122314453125,-0.15083470940589905,1.5849615335464478,-0.7781982421875,0.885009765625,0.2593994140625
11.0299999,9.694122314453125,-0.16998831927776337,1.5897499322891235,-0.8087158203125,0.396728515625,-0.732421875
11.049999900000001,9.691728591918945,-0.18914192914962769,1.5921441316604614,-0.79345703125,1.2054443359375,-0.274658203125
11.069999900000001,9.696516990661621,-0.17477671802043915,1.5849615335464478,-0.8087158203125,1.434326171875,-0.0762939453125
11.0899999,9.696516990661621,-0.16519992053508759,1.5753847360610962,-0.5035400390625,1.0528564453125,0.2288818359375
11.1099999,9.701305389404297,-0.15083470940589905,1.577778935432434,0.091552734375,1.6632080078125,-0.1220703125
11.129999900000001,9.6989107131958,-0.15562310814857483,1.577778935432434,-0.5035400390625,0.5645751953125,-0.0762939453125
11.149999900000001,9.696516990661621,-0.1604115068912506,1.5729905366897583,-0.6256103515625,0.8392333984375,-0.457763671875
11.1699999,9.6989107131958,-0.1628057211637497,1.5825673341751099,0.213623046875,1.8157958984375,-0.8392333984375
11.1899999,9.694122314453125,-0.17477671802043915,1.5825673341751099,0.18310546875,1.312255859375,-0.06103515625
11.209999900000001,9.696516990661621,-0.16759411990642548,1.5945383310317993,-0.5645751953125,0.2593994140625,-0.5340576171875
11.229999900000001,9.696516990661621,-0.16519992053508759,1.601720929145813,-0.3814697265625,0,-1.129150390625
11.2499999,9.6989107131958,-0.14844051003456116,1.5969325304031372,-0.2899169921875,0.030517578125,-0.30517578125
11.2699999,9.703699111938477,-0.12928688526153564,1.5921441316604614,0.152587890625,0.640869140625,0.3814697265625
11.2899999,9.701305389404297,-0.1173158809542656,1.577778935432434,0.274658203125,0.9918212890625,0.2593994140625
11.309999900000001,9.694122314453125,-0.12210428714752197,1.5705963373184204,0.5035400390625,0.7171630859375,-0.3814697265625
11.3299999,9.682151794433594,-0.13407529890537262,1.5634137392044067,0.5645751953125,0.732421875,-0.6561279296875
11.3499999,9.677363395690918,-0.14844051003456116,1.5658079385757446,0.9307861328125,1.28173828125,-0.7171630859375
11.3699999,9.682151794433594,-0.15322890877723694,1.5729905366897583,0.9307861328125,0.9918212890625,-0.701904296875
11.389999900000001,9.694122314453125,-0.15083470940589905,1.5825673341751099,0.5340576171875,-0.152587890625,-0.6866455078125
11.4099999,9.6989107131958,-0.15083470940589905,1.5969325304031372,-0.2593994140625,0.3814697265625,-0.2288818359375
11.4299999,9.706093788146973,-0.1412578970193863,1.599326729774475,-0.3509521484375,0.2288818359375,-0.8392333984375
11.4499999,9.708487510681152,-0.12928688526153564,1.5921441316604614,0.0152587890625,-0.244140625,-0.8544921875
11.469999900000001,9.710882186889648,-0.11252748221158981,1.5873557329177856,-0.06103515625,0.4119873046875,0.0762939453125
11.4899999,9.708487510681152,-0.10773907601833344,1.5849615335464478,0.0152587890625,0.1068115234375,0.1220703125
11.5099999,9.713275909423828,-0.10773907601833344,1.5897499322891235,-0.0762939453125,-1.0833740234375,-0.8544921875
11.5299999,9.718064308166504,-0.11252748221158981,1.601720929145813,-0.396728515625,-0.8697509765625,-0.9002685546875
11.549999900000001,9.742006301879883,-0.09816227108240128,1.6208745241165161,-0.3509521484375,-0.3509521484375,-0.0457763671875
11.569999900000001,9.765948295593262,-0.0694318488240242,1.6400281190872192,-0.3662109375,-0.8087158203125,1.3885498046875
11.5899999,9.785101890563965,-0.0071826050989329815,1.659181833267212,-0.0457763671875,-1.3275146484375,2.288818359375
11.6099999,9.794678688049316,0.05746084079146385,1.6927006244659424,1.220703125,-0.1373291015625,3.84521484375
11.629999900000001,9.813833236694336,0.09816227108240128,1.7956513166427612,1.7852783203125,1.7852783203125,6.256103515625
11.649999900000001,9.84256362915039,0.1173158809542656,1.9297266006469727,1.3580322265625,-0.9918212890625,5.7373046875
11.6699999,9.885659217834473,0.09576806426048279,2.094926595687866,0,-2.8228759765625,6.195068359375
11.6899999,9.895236015319824,0.011971008032560349,2.2218191623687744,-2.532958984375,-0.396728515625,9.8114013671875
11.709999900000001,9.871294021606445,-0.05027823522686958,2.2864625453948975,-5.584716796875,2.4566650390625,11.1541748046875
11.729999900000001,9.59596061706543,-0.3974374830722809,2.540247917175293,-15.472412109375,14.70947265625,17.6239013671875
11.7499999,9.306262016296387,-0.7158663272857666,2.7437551021575928,-19.195556640625,11.3677978515625,5.0506591796875
11.7699999,9.066842079162598,-0.9050082564353943,2.9065608978271484,-14.8468017578125,4.0283203125,-23.49853515625
11.7899999,9.011775016784668,-0.7110779285430908,2.827552318572998,-13.3056640625,-1.6937255859375,-38.787841796875
11.809999900000001,9.342175483703613,0.11252748221158981,2.434903144836426,-18.61572265625,5.218505859375,-18.4783935546875
11.8299999,9.871294021606445,1.2210428714752197,1.8195933103561401,-24.35302734375,27.9693603515625,26.8402099609375
11.8499999,10.431536674499512,2.2409727573394775,1.1659762859344482,-14.1448974609375,38.6810302734375,45.928955078125
11.8699999,10.824186325073242,2.849100112915039,0.5650315880775452,10.2996826171875,26.885986328125,24.993896484375
11.889999900000001,11.013327598571777,3.0119056701660156,0.19153612852096558,29.510498046875,18.5699462890625,11.9781494140625
11.9099999,11.051634788513184,2.9927520751953125,-0.17238251864910126,35.2020263671875,19.0277099609375,29.0679931640625
11.9299999,10.994174003601074,2.940079689025879,-0.49799394607543945,43.5638427734375,29.9530029296875,53.2684326171875
11.9499999,10.802638053894043,2.806004285812378,-0.730231523513794,61.8133544921875,44.403076171875,65.85693359375
11.969999900000001,10.347740173339844,2.31758713722229,-0.8188169598579407,70.8160400390625,50.3997802734375,77.8656005859375
11.9899999,9.68694019317627,1.4460978507995605,-0.6727706789970398,75.592041015625,50.1556396484375,77.117919921875
12.0099999,9.006986618041992,0.3926490843296051,-0.30885201692581177,91.156005859375,46.142578125,55.17578125
12.0299999,8.468291282653809,-0.6631938815116882,0.14365209639072418,101.5777587890625,48.5076904296875,45.928955078125
12.049999900000001,8.24084186553955,-1.5849615335464478,0.7852981686592102,97.71728515625,61.7828369140625,61.6912841796875
12.069999900000001,8.226476669311523,-2.655169725418091,1.6041151285171509,91.00341796875,62.8662109375,69.7479248046875
12.0899999,8.336610794067383,-3.794809579849243,2.43011474609375,94.42138671875,27.740478515625,29.296875
12.1099999,8.643068313598633,-4.6040496826171875,3.136404275894165,99.700927734375,4.6844482421875,-23.8800048828125
12.129999900000001,8.995016098022461,-4.920084476470947,3.4308910369873047,72.08251953125,25.81787109375,-3.265380859375
12.149999900000001,9.454702377319336,-4.546588897705078,3.624821424484253,39.61181640625,73.18115234375,55.3436279296875
12.1699999,9.617507934570312,-4.2329487800598145,3.8522706031799316,27.64892578125,82.733154296875,78.4454345703125
12.1899999,9.418789863586426,-4.323928356170654,4.412513732910156,40.34423828125,53.3599853515625,39.12353515625
12.209999900000001,8.904036521911621,-4.7620673179626465,5.154716491699219,36.31591796875,33.416748046875,-5.218505859375
12.229999900000001,8.327033042907715,-5.22175407409668,5.959167957305908,4.669189453125,46.539306640625,7.7667236328125
12.2499999,7.7883381843566895,-5.489904403686523,6.682217121124268,-10.4827880859375,53.7261962890625,32.3944091796875
12.2699999,7.326257228851318,-5.750872611999512,7.453149795532227,1.7242431640625,27.3284912109375,11.688232421875
12.289999900000002,6.97430944442749,-5.884947776794434,8.128314971923828,9.002685546875,-9.552001953125,-47.91259765625
12.309999900000001,6.677428722381592,-5.975927352905273,8.65743350982666,-16.29638671875,-19.34814453125,-61.3861083984375
12.3299999,6.552929878234863,-5.760449409484863,8.9064302444458,-45.0439453125,-5.18798828125,-42.205810546875
12.3499999,6.469132900238037,-5.281609058380127,8.832210540771484,-53.8330078125,-7.3089599609375,-45.5322265625
12.3699999,6.332663536071777,-4.757278919219971,8.523358345031738,-55.419921875,-21.4385986328125,-68.2830810546875
12.389999900000001,6.22731876373291,-4.125209331512451,8.149862289428711,-63.2781982421875,-21.240234375,-84.747314453125
12.4099999,6.110002517700195,-3.4739866256713867,7.675810813903809,-84.6099853515625,-12.7105712890625,-72.8302001953125
12.4299999,6.086060523986816,-2.7437551021575928,7.228095054626465,-94.6502685546875,-4.241943359375,-63.4613037109375
12.4499999,6.107608318328857,-2.0901381969451904,6.98628044128418,-84.625244140625,-7.0648193359375,-80.413818359375
12.469999900000001,6.0836663246154785,-1.625662922859192,6.828263282775879,-78.2623291015625,-24.5361328125,-96.6644287109375
12.4899999,6.050147533416748,-1.1851298809051514,6.8809356689453125,-89.6148681640625,-24.7802734375,-100.6317138671875
12.5099999,5.95677375793457,-0.7781155705451965,6.955155849456787,-103.4698486328125,-15.9912109375,-95.733642578125
12.5299999,5.896918773651123,-0.24899697303771973,7.086836814880371,-98.9990234375,-14.3280029296875,-101.2115478515625
12.549999900000001,5.884947776794434,0.3663128614425659,7.225700855255127,-98.2208251953125,-22.2320556640625,-104.339599609375
12.569999900000001,5.980715751647949,1.0797849893569946,7.398083209991455,-110.992431640625,-24.1851806640625,-97.747802734375
12.5899999,6.102819919586182,1.7836803197860718,7.536946773529053,-120.0714111328125,-28.9306640625,-91.2017822265625
12.6099999,6.291962146759033,2.494758129119873,7.594407558441162,-116.0430908203125,-38.2537841796875,-95.88623046875
12.629999900000001,6.469132900238037,3.1435868740081787,7.5417351722717285,-108.8714599609375,-44.2657470703125,-101.4404296875
12.649999900000001,6.720524311065674,3.88818359375,7.352593421936035,-106.170654296875,-53.375244140625,-104.6295166015625
12.6699999,7.117961883544922,4.824316501617432,6.962338447570801,-103.179931640625,-59.6160888671875,-92.83447265625
12.6899999,7.527369976043701,5.657498836517334,6.402095317840576,-98.9532470703125,-53.680419921875,-60.638427734375
12.709999900000001,7.905653953552246,6.294356346130371,5.722142219543457,-89.141845703125,-48.2025146484375,-43.609619140625
12.729999900000001,8.214506149291992,6.574477672576904,4.972756862640381,-82.794189453125,-49.9267578125,-46.905517578125
12.7499999,8.453926086425781,6.624756336212158,4.32871675491333,-74.8291015625,-50.23193359375,-41.9158935546875
12.7699999,8.614337921142578,6.3733649253845215,3.665522813796997,-55.084228515625,-54.2144775390625,-23.9715576171875
12.789999900000002,8.822632789611816,6.0836663246154785,3.1483752727508545,-43.2586669921875,-51.6357421875,-22.0794677734375
12.809999900000001,8.956708908081055,5.623979568481445,2.674323320388794,-41.656494140625,-50.3387451171875,-28.0609130859375
12.8299999,9.062053680419922,5.130774021148682,2.274491548538208,-37.29248046875,-56.6864013671875,-27.9693603515625
12.8499999,9.2033109664917,4.807557106018066,1.9129672050476074,-28.0303955078125,-56.5338134765625,-21.2860107421875
12.8699999,9.251194953918457,4.49870491027832,1.5322890281677246,-17.88330078125,-48.4619140625,-9.185791015625
12.889999900000001,9.301473617553711,4.28322696685791,1.1276689767837524,-8.3770751953125,-42.3431396484375,-9.979248046875
12.9099999,9.404424667358398,4.165910720825195,0.7469909191131592,-1.7852783203125,-34.8358154296875,-10.7421875
12.9299999,9.445125579833984,3.9815573692321777,0.40940847992897034,-2.8839111328125,-22.003173828125,18.12744140625
12.9499999,9.404424667358398,3.6798880100250244,0.08619125932455063,-4.4403076171875,-5.9051513671875,45.71533203125
12.969999900000001,9.311050415039062,3.2106244564056396,-0.1149216815829277,11.9476318359375,0.8087158203125,32.16552734375
12.9899999,9.167398452758789,2.5450363159179688,-0.33039984107017517,39.6728515625,-12.542724609375,-0.4119873046875
13.0099999,9.23443603515625,2.166752576828003,-0.629675030708313,54.0313720703125,-27.374267578125,-17.88330078125
13.0299999,9.588777542114258,2.3271639347076416,-1.2306196689605713,51.239013671875,-16.78466796875,-0.091552734375
13.049999900000001,10.129867553710938,2.935291290283203,-2.0638017654418945,54.7943115234375,19.989013671875,35.9954833984375
13.069999900000001,10.737994194030762,3.758896589279175,-2.849100112915039,76.9500732421875,43.1976318359375,53.497314453125
13.0899999,11.149797439575195,4.343081951141357,-3.464409828186035,94.6807861328125,39.6575927734375,58.7005615234375
13.1099999,11.33654499053955,4.548983097076416,-3.581725835800171,98.7548828125,41.7633056640625,69.3359375
13.129999900000001,11.36048698425293,4.438849925994873,-3.3279404640197754,114.5477294921875,47.8515625,76.6754150390625
13.149999900000001,11.188104629516602,4.046200752258301,-2.853888511657715,128.47900390625,46.630859375,91.49169921875
13.1699999,10.843339920043945,3.4596214294433594,-2.3295583724975586,118.8201904296875,56.4422607421875,116.0736083984375
13.1899999,10.177751541137695,2.451662540435791,-1.8842366933822632,104.8736572265625,75.86669921875,134.857177734375
13.209999900000001,9.32541561126709,1.1420341730117798,-1.434126853942871,103.6834716796875,94.085693359375,121.7041015625
13.229999900000001,8.616731643676758,-0.2298433631658554,-0.7398083209991455,120.391845703125,88.043212890625,84.3658447265625
13.2499999,8.257601737976074,-2.2816741466522217,0.8236053586006165,107.391357421875,45.074462890625,95.64208984375
13.2699999,8.348581314086914,-3.0765492916107178,1.4269442558288574,84.197998046875,84.77783203125,106.3385009765625
13.289999900000002,8.456320762634277,-4.125209331512451,2.38462495803833,90.9576416015625,108.5662841796875,71.22802734375
13.309999900000001,8.647856712341309,-5.099649429321289,3.713406801223755,114.4561767578125,61.70654296875,6.28662109375
13.3299999,8.925583839416504,-5.928043365478516,5.219359874725342,88.897705078125,-0.0457763671875,0.5340576171875
13.3499999,9.476250648498535,-6.011840343475342,6.761225700378418,47.8363037109375,28.564453125,28.74755859375
13.3699999,9.66299819946289,-5.870582580566406,7.556100368499756,14.678955078125,68.7255859375,61.279296875
13.389999900000001,9.50737476348877,-5.849034786224365,8.322244644165039,25.0396728515625,51.8035888671875,45.1812744140625
13.4099999,9.069235801696777,-5.774814605712891,8.71489429473877,68.145751953125,-35.3851318359375,-31.005859375
13.4299999,8.62391471862793,-5.5545477867126465,9.114726066589355,37.59765625,-49.468994140625,-38.9404296875
13.4499999,8.010998725891113,-5.537788391113281,9.148244857788086,-24.1546630859375,2.3651123046875,34.027099609375
13.469999900000001,7.340622425079346,-5.398924827575684,8.803479194641113,-39.886474609375,13.519287109375,26.3519287109375
13.4899999,6.495469093322754,-5.51624059677124,8.276755332946777,-38.4063720703125,-11.474609375,-39.9169921875
13.5099999,5.815515995025635,-5.4875102043151855,7.862558364868164,-38.7725830078125,-18.8751220703125,-69.2138671875
13.5299999,5.453991413116455,-5.085284233093262,7.527369976043701,-64.27001953125,0.030517578125,-35.5072021484375
13.549999900000001,5.413290023803711,-4.446032524108887,7.407660007476807,-93.6126708984375,18.3868408203125,-5.9051513671875
13.569999900000001,5.451597213745117,-3.931279182434082,7.46033239364624,-98.2818603515625,14.7552490234375,-37.078857421875
13.5899999,5.446808815002441,-3.6535518169403076,7.694964408874512,-92.254638671875,4.058837890625,-86.8377685546875
13.6099999,5.477933406829834,-3.2968156337738037,7.9631147384643555,-87.5244140625,-9.94873046875,-109.3597412109375
13.629999900000001,5.631162166595459,-2.5737667083740234,8.092401504516602,-89.996337890625,-21.8048095703125,-103.94287109375
13.649999900000001,5.837063789367676,-1.599326729774475,8.054094314575195,-96.160888671875,-22.0489501953125,-92.8497314453125
13.6699999,5.9735331535339355,-0.5578489899635315,7.8529815673828125,-99.4110107421875,-16.5863037109375,-95.2301025390625
13.6899999,5.978321552276611,0.3064578175544739,7.577648162841797,-98.3428955078125,-17.76123046875,-99.456787109375
13.709999900000001,5.96874475479126,1.0295066833496094,7.393294811248779,-96.923828125,-19.1650390625,-97.0611572265625
13.729999900000001,6.081272125244141,1.699883222579956,7.38132381439209,-101.1199951171875,-19.7601318359375,-88.9892578125
13.7499999,6.248866558074951,2.2649147510528564,7.443572998046875,-109.7564697265625,-23.0560302734375,-77.1484375
13.7699999,6.4380083084106445,2.7509377002716064,7.522581577301025,-116.3787841796875,-24.8870849609375,-72.052001953125
13.789999900000002,6.6846113204956055,3.2824504375457764,7.5417351722717285,-115.447998046875,-25.543212890625,-79.5135498046875
13.809999900000001,6.916848659515381,3.713406801223755,7.496245384216309,-117.2943115234375,-29.510498046875,-72.784423828125
13.8299999,7.137115478515625,4.146757125854492,7.2783732414245605,-119.7052001953125,-34.1033935546875,-61.4166259765625
13.8499999,7.41484260559082,4.60165548324585,6.897695064544678,-112.3046875,-40.0543212890625,-69.0460205078125
13.8699999,7.7213006019592285,5.015852451324463,6.291962146759033,-104.1717529296875,-32.0587158203125,-61.4013671875
13.889999900000001,8.075642585754395,5.377377033233643,5.56173038482666,-98.81591796875,-24.932861328125,-40.52734375
13.9099999,8.554482460021973,5.736507415771484,4.865017890930176,-91.8731689453125,-25.5279541015625,-30.70068359375
13.9299999,9.033323287963867,5.961562156677246,4.213795185089111,-79.193115234375,-30.57861328125,-25.0701904296875
13.9499999,9.373299598693848,5.8442463874816895,3.6296098232269287,-62.0574951171875,-27.8167724609375,-12.3138427734375
13.969999900000001,9.497797966003418,5.434837818145752,3.179499864578247,-37.65869140625,-25.5279541015625,-19.3939208984375
13.9899999,9.497797966003418,4.867412090301514,2.7437551021575928,-14.404296875,-40.130615234375,-47.698974609375
14.0099999,9.5408935546875,4.551377296447754,2.38462495803833,1.1444091796875,-48.797607421875,-56.8389892578125
14.0299999,9.648633003234863,4.60165548324585,1.9488801956176758,-0.4119873046875,-31.8603515625,-15.5181884765625
14.049999900000001,9.837775230407715,5.008669853210449,1.4700398445129395,-1.007080078125,-6.103515625,36.7889404296875
14.069999900000001,9.95748519897461,5.274426460266113,1.05105459690094,16.78466796875,7.38525390625,57.647705078125
14.0899999,9.859322547912598,4.999093055725098,0.7972691655158997,39.459228515625,-0.0457763671875,49.163818359375
14.1099999,9.6989107131958,4.460397720336914,0.6057330369949341,57.525634765625,-18.7835693359375,19.5770263671875
14.129999900000001,9.634267807006836,4.000710964202881,0.2849099934101105,75.8209228515625,-23.9105224609375,5.2032470703125
14.149999900000001,9.86650562286377,4.086902141571045,-0.22266076505184174,89.5538330078125,-8.23974609375,26.214599609375
14.1699999,10.302249908447266,4.654327869415283,-0.9241618514060974,99.30419921875,8.7738037109375,68.3135986328125
14.1899999,10.733205795288086,5.250484466552734,-1.5921441316604614,111.81640625,13.7786865234375,105.255126953125
14.209999900000001,10.927136421203613,5.39174222946167,-2.099714994430542,129.0130615234375,16.2200927734375,120.819091796875
14.229999900000001,10.72841739654541,4.6950297355651855,-2.185906171798706,134.27734375,35.430908203125,131.7291259765625
14.2499999,10.280701637268066,3.265691041946411,-1.9249382019042969,130.401611328125,45.5169677734375,135.3912353515625
14.2699999,9.785101890563965,1.4963760375976562,-1.2880805730819702,134.2926025390625,36.92626953125,122.2076416015625
14.289999900000002,9.351752281188965,-0.2298433631658554,-0.5195417404174805,136.5509033203125,29.4342041015625,116.3787841796875
14.309999900000001,8.892065048217773,-2.1045033931732178,0.3447650372982025,140.3350830078125,37.811279296875,120.2545166015625
14.3299999,8.504204750061035,-3.97916316986084,1.3431471586227417,148.2696533203125,43.8385009765625,84.1064453125
14.3499999,8.336610794067383,-5.614402770996094,2.4612393379211426,138.336181640625,30.487060546875,17.9595947265625
14.3699999,8.367734909057617,-6.768408298492432,3.4380736351013184,123.96240234375,11.5203857421875,-8.2244873046875
14.389999900000001,8.841787338256836,-6.708553314208984,4.1156325340271,109.344482421875,24.627685546875,8.2244873046875
14.4099999,9.208099365234375,-6.076483726501465,4.388571739196777,78.1402587890625,69.9920654296875,58.6395263671875
14.4299999,9.306262016296387,-5.461174011230469,4.704606533050537,74.52392578125,82.6568603515625,67.413330078125
14.4499999,9.121908187866211,-5.102043628692627,5.152322292327881,102.630615234375,40.740966796875,3.0364990234375
14.469999900000001,8.937555313110352,-4.819528102874756,5.7556610107421875,92.28515625,5.6610107421875,-22.3541259765625
14.4899999,8.927978515625,-4.311957359313965,6.440402507781982,35.614013671875,42.2821044921875,44.5098876953125
14.5099999,8.78193187713623,-3.9671921730041504,6.866570472717285,-14.617919921875,65.4449462890625,123.779296875
14.5299999,8.324639320373535,-4.256890773773193,7.309497833251953,-9.613037109375,47.2412109375,97.6104736328125
14.549999900000001,7.503427982330322,-5.082890033721924,7.580042362213135,11.3525390625,15.68603515625,-2.8076171875
14.569999900000001,6.641515731811523,-5.894524574279785,7.503427982330322,10.6201171875,-0.091552734375,-48.5382080078125
14.5899999,6.174646377563477,-5.978321552276611,7.158663272857666,-7.0648193359375,17.578125,-17.63916015625
14.6099999,6.0405707359313965,-5.432443618774414,6.63433313369751,-20.751953125,38.2537841796875,13.36669921875
14.629999900000001,6.042964935302734,-4.802768707275391,6.311115741729736,-13.0615234375,28.1982421875,-14.22119140625
14.649999900000001,6.167463779449463,-4.206612586975098,6.399701118469238,8.3160400390625,3.8604736328125,-73.4405517578125
14.6699999,6.411672115325928,-3.5673606395721436,6.75883150100708,5.1727294921875,-9.70458984375,-82.9925537109375
14.6899999,6.627150535583496,-2.9879636764526367,7.15387487411499,-29.052734375,-1.9989013671875,-33.8287353515625
14.709999900000001,6.754043102264404,-2.47560453414917,7.4100542068481445,-44.00634765625,5.3863525390625,-25.909423828125
14.729999900000001,6.653486728668213,-2.2625205516815186,7.560888767242432,-37.1856689453125,4.3792724609375,-67.0318603515625
14.7499999,6.447585105895996,-2.164358377456665,7.642292022705078,-37.4298095703125,-7.62939453125,-89.141845703125
14.7699999,6.354211330413818,-1.45806884765625,7.869740962982178,-59.906005859375,-22.76611328125,-54.19921875
14.789999900000002,6.291962146759033,-1.0582371950149536,7.908048152923584,-67.2760009765625,-21.392822265625,-61.21826171875
14.809999900000001,6.09324312210083,-0.8547300100326538,7.903259754180908,-66.864013671875,-18.0816650390625,-83.43505859375
14.8299999,5.884947776794434,-0.6607996821403503,7.922413349151611,-66.192626953125,-23.01025390625,-92.10205078125
14.8499999,5.796362400054932,-0.2992752194404602,8.051700592041016,-76.629638671875,-30.0750732421875,-83.709716796875
14.8699999,5.75326681137085,0.10055647045373917,8.17141056060791,-92.620849609375,-34.2559814453125,-74.21875
14.889999900000001,5.65031623840332,0.43095630407333374,8.219294548034668,-96.282958984375,-39.0777587890625,-85.87646484375
14.9099999,5.643133640289307,0.9481038451194763,8.087613105773926,-83.8623046875,-50.8270263671875,-120.17822265625
14.9299999,5.834669589996338,1.7166426181793213,7.879317760467529,-83.770751953125,-53.436279296875,-123.1842041015625
14.9499999,6.215347766876221,2.6791117191314697,7.594407558441162,-103.515625,-46.81396484375,-82.0159912109375
14.969999900000001,6.71334171295166,3.5936968326568604,7.378929615020752,-116.5618896484375,-34.9884033203125,-56.5643310546875
14.9899999,7.105990409851074,4.106055736541748,7.33583402633667,-111.6790771484375,-40.71044921875,-73.760986328125
15.0099999,7.3885064125061035,4.405331134796143,7.268796443939209,-106.6131591796875,-61.2640380859375,-96.8017578125
15.0299999,7.6997528076171875,4.809951305389404,7.105990409851074,-107.696533203125,-75.25634765625,-89.9658203125
15.049999900000001,8.11634349822998,5.47075080871582,6.691793918609619,-109.9395751953125,-69.4732666015625,-55.6488037109375
15.069999900000001,8.554482460021973,6.253654956817627,5.899312973022461,-101.6387939453125,-62.896728515625,-32.0892333984375
15.0899999,8.93037223815918,6.825869083404541,4.999093055725098,-88.6688232421875,-57.861328125,-23.0560302734375
15.1099999,9.114726066589355,6.864176273345947,4.14915132522583,-77.6519775390625,-59.26513671875,-9.6282958984375
15.129999900000001,9.17697525024414,6.564900875091553,3.4165258407592773,-63.751220703125,-72.57080078125,-11.474609375
15.149999900000001,9.138668060302734,6.021417140960693,2.7892448902130127,-53.7567138671875,-79.4219970703125,-17.4102783203125
15.1699999,9.093177795410156,5.521028995513916,2.1332337856292725,-35.1409912109375,-81.4056396484375,-19.012451171875
15.1899999,9.239224433898926,5.413290023803711,1.4508862495422363,-16.6015625,-76.11083984375,-11.2457275390625
15.209999900000001,9.495404243469238,5.542576789855957,0.7445967197418213,-14.251708984375,-61.370849609375,25.1312255859375
15.229999900000001,9.749189376831055,5.75326681137085,0.06224924325942993,-7.4005126953125,-48.76708984375,57.3883056640625
15.2499999,9.8784761428833,5.863399982452393,-0.6368576288223267,20.69091796875,-43.487548828125,56.5032958984375
15.2699999,9.828198432922363,5.686229228973389,-1.2737152576446533,56.640625,-35.5224609375,50.3082275390625
15.289999900000002,9.737217903137207,5.430049419403076,-1.766920804977417,75.775146484375,-17.2882080078125,62.0880126953125
15.309999900000001,9.59835433959961,4.991910457611084,-2.0901381969451904,81.0546875,-4.0435791015625,89.141845703125
15.3299999,9.564835548400879,4.496310710906982,-2.123656988143921,106.6436767578125,2.1514892578125,93.109130859375
15.3499999,9.50737476348877,3.847482204437256,-2.0638017654418945,135.040283203125,1.2054443359375,84.65576171875
15.3699999,9.409213066101074,3.045424461364746,-1.9105730056762695,138.48876953125,15.7470703125,97.7020263671875
15.389999900000001,9.220070838928223,2.0614075660705566,-1.8076223134994507,134.002685546875,37.17041015625,116.2109375
15.4099999,8.987833023071289,0.9409212470054626,-1.647210717201233,149.1546630859375,49.0570068359375,106.6131591796875
15.4299999,8.844181060791016,-0.26575639843940735,-1.3000515699386597,166.595458984375,55.2520751953125,83.221435546875
15.4499999,8.865729331970215,-1.3862427473068237,-0.7805097699165344,154.5257568359375,55.511474609375,82.09228515625
15.469999900000001,8.913613319396973,-2.3918075561523438,-0.37828385829925537,112.884521484375,56.182861328125,103.57666015625
15.4899999,8.877699851989746,-3.3016040325164795,-0.18914192914962769,91.8731689453125,77.423095703125,106.7047119140625
15.5099999,8.841787338256836,-4.106055736541748,0.06703764945268631,143.6614990234375,90.7440185546875,58.2275390625
15.5299999,8.935160636901855,-4.704606533050537,0.5363011956214905,177.8717041015625,72.052001953125,17.120361328125
15.549999900000001,9.229647636413574,-5.1331682205200195,1.3527239561080933,117.431640625,61.1114501953125,45.4559326171875
15.569999900000001,9.605537414550781,-5.224148273468018,2.1715409755706787,56.7779541015625,72.1893310546875,76.5380859375
15.5899999,9.883264541625977,-5.260061264038086,3.0837318897247314,68.4661865234375,84.5794677734375,64.2547607421875
15.6099999,9.967061996459961,-5.264849662780762,3.7708675861358643,139.5111083984375,34.515380859375,20.2484130859375
15.629999900000001,10.022128105163574,-5.07570743560791,4.4939165115356445,123.8250732421875,-5.126953125,16.3726806640625
15.649999900000001,9.964667320251465,-4.8937482833862305,5.0685248374938965,50.5218505859375,19.9737548828125,63.9495849609375
15.6699999,9.627084732055664,-4.843470096588135,5.372588634490967,34.4085693359375,44.1741943359375,81.6497802734375
15.6899999,9.014169692993164,-4.960785865783691,5.475539207458496,61.4776611328125,35.1104736328125,48.1719970703125
15.709999900000001,8.315062522888184,-4.9799394607543945,5.506663799285889,63.1866455078125,12.20703125,21.484375
15.729999900000001,7.582436561584473,-5.106832027435303,5.813121795654297,4.669189453125,43.670654296875,76.2481689453125
15.7499999,6.605602264404297,-5.765237808227539,6.270414352416992,-42.9840087890625,79.193115234375,127.197265625
15.7699999,5.434837818145752,-6.993463039398193,6.952761650085449,-11.3525390625,53.3905029296875,51.57470703125
15.789999900000002,4.244919776916504,-8.355764389038086,7.675810813903809,23.468017578125,8.880615234375,-69.7021484375
15.809999900000001,3.2632968425750732,-9.670180320739746,8.564059257507324,-12.0849609375,21.5301513671875,-73.05908203125
15.8299999,2.9281086921691895,-10.017339706420898,9.47146224975586,-44.7845458984375,34.423828125,-57.7850341796875
15.8499999,3.1292216777801514,-9.387664794921875,10.213664054870605,-42.5262451171875,9.70458984375,-105.0872802734375
15.869999900000002,3.6080620288848877,-8.2312650680542,10.697293281555176,-41.0003662109375,-19.1650390625,-139.678955078125
15.889999900000001,4.235342979431152,-6.562506675720215,10.795455932617188,-56.5185546875,-23.4222412109375,-132.1868896484375
15.9099999,4.786009311676025,-4.73573112487793,10.405200958251953,-77.7130126953125,-21.759033203125,-112.12158203125
15.9299999,5.240907669067383,-2.8610711097717285,9.677363395690918,-81.8939208984375,-27.4505615234375,-118.59130859375
15.9499999,5.494692802429199,-1.2761094570159912,8.789113998413086,-76.202392578125,-33.3251953125,-125.9918212890625
15.969999900000001,5.568912982940674,0.014365210197865963,7.8314337730407715,-78.277587890625,-33.294677734375,-111.358642578125
15.9899999,5.580883979797363,1.0438719987869263,7.0557122230529785,-84.5794677734375,-22.64404296875,-93.231201171875
16.0099999,5.513846397399902,1.7262194156646729,6.514622688293457,-84.6405029296875,-18.0206298828125,-84.9151611328125
16.0299999,5.453991413116455,2.094926595687866,6.402095317840576,-81.939697265625,-17.547607421875,-82.5042724609375
16.0499999,5.355829238891602,2.1523873805999756,6.6391215324401855,-89.17236328125,-17.8375244140625,-69.03076171875
16.0699999,5.236119270324707,1.845929503440857,7.208941459655762,-99.7161865234375,-12.6953125,-57.8460693359375
16.089999900000002,5.1331682205200195,1.3503297567367554,8.04930591583252,-91.6290283203125,-13.092041015625,-82.977294921875
16.109999900000002,5.116408824920654,1.0199298858642578,8.791508674621582,-87.7685546875,-39.9932861328125,-123.199462890625
16.1299999,5.374982833862305,1.2090718746185303,9.433155059814453,-94.1619873046875,-52.734375,-127.9296875
16.1499999,5.872976779937744,1.8746598958969116,9.694122314453125,-99.91455078125,-57.1441650390625,-100.7537841796875
16.1699999,6.615179061889648,3.0597896575927734,9.516951560974121,-113.4796142578125,-56.21337890625,-86.639404296875
16.1899999,7.331045627593994,4.156333923339844,9.057265281677246,-121.0784912109375,-55.60302734375,-80.13916015625
16.2099999,7.960720539093018,5.092466831207275,8.286332130432129,-114.74609375,-63.0035400390625,-74.554443359375
16.2299999,8.401253700256348,5.679046630859375,7.457938194274902,-101.4404296875,-71.83837890625,-66.4825439453125
16.249999900000002,8.664615631103516,6.0597243309021,6.555324077606201,-86.7767333984375,-90.2099609375,-69.366455078125
16.269999900000002,8.813055992126465,6.332663536071777,5.5114521980285645,-71.258544921875,-119.293212890625,-76.0955810546875
16.2899999,9.066842079162598,7.230489253997803,2.698265314102173,-81.146240234375,-79.0557861328125,11.04736328125
16.3099999,9.083600997924805,7.38132381439209,1.2066776752471924,-64.1632080078125,-47.821044921875,43.9300537109375
16.3299999,9.011775016784668,7.096413612365723,-0.002394201699644327,-19.9737548828125,-59.4940185546875,11.7034912109375
16.3499999,8.932766914367676,6.6127848625183105,-0.9241618514060974,8.3465576171875,-79.3914794921875,-10.9405517578125
16.3699999,8.999804496765137,6.256049156188965,-1.6687586307525635,22.15576171875,-65.4754638671875,17.6544189453125
16.3899999,9.188945770263672,6.169857978820801,-2.2840683460235596,40.6494140625,-26.18408203125,61.6455078125
16.4099999,9.41639518737793,6.169857978820801,-2.760514497756958,70.1751708984375,-10.7574462890625,73.3184814453125
16.429999900000002,9.600749015808105,6.011840343475342,-2.9735984802246094,99.334716796875,-14.0380859375,71.3958740234375
16.4499999,9.713275909423828,5.628767967224121,-2.9041666984558105,119.6441650390625,-4.1046142578125,84.686279296875
16.4699999,9.861717224121094,5.1595048904418945,-2.674323320388794,134.002685546875,19.6075439453125,107.0556640625
16.4899999,10.007762908935547,4.481945514678955,-2.322375535964966,143.4478759765625,39.4287109375,128.4637451171875
16.5099999,10.103530883789062,3.471592426300049,-1.8363527059555054,150.0244140625,44.5404052734375,141.998291015625
16.5299999,10.153809547424316,2.142810583114624,-1.2497732639312744,156.1279296875,42.083740234375,134.21630859375
16.5499999,10.165780067443848,0.5650315880775452,-0.5267243981361389,159.48486328125,47.18017578125,125.3814697265625
16.5699999,10.180145263671875,-0.993593692779541,0.12689268589019775,155.21240234375,52.4139404296875,132.0953369140625
16.589999900000002,10.072406768798828,-2.5905263423919678,0.7733271718025208,145.7977294921875,56.9610595703125,146.0723876953125
16.609999900000002,9.751583099365234,-4.168305397033691,1.213860273361206,147.491455078125,50.6439208984375,131.0577392578125
16.6299999,9.282320022583008,-5.590460777282715,1.5131354331970215,155.09033203125,52.3681640625,83.5723876953125
16.6499999,8.918401718139648,-6.562506675720215,1.8722656965255737,142.88330078125,66.436767578125,56.5185546875
16.6699999,8.655038833618164,-7.079654216766357,2.126051187515259,115.570068359375,56.8084716796875,73.1353759765625
16.6899999,8.559270858764648,-7.187393665313721,2.3965959548950195,108.154296875,39.642333984375,78.155517578125
16.7099999,8.465897560119629,-7.196970462799072,2.6886885166168213,116.8365478515625,41.1834716796875,48.03466796875
16.7299999,8.14028549194336,-7.362170219421387,2.691082715988159,90.9576416015625,50.6439208984375,24.1851806640625
16.749999900000002,8.255207061767578,-6.8809356689453125,3.0765492916107178,63.9495849609375,61.798095703125,12.542724609375
16.769999900000002,8.128314971923828,-6.610390663146973,3.423708438873291,65.2008056640625,37.9180908203125,45.5474853515625
16.7899999,7.8960771560668945,-6.624756336212158,4.050989151000977,81.11572265625,-7.0037841796875,49.6826171875
16.8099999,7.615955829620361,-6.471527099609375,4.534617900848389,115.41748046875,-37.41455078125,-58.5174560546875
16.8299999,7.254431247711182,-6.368576526641846,4.886565685272217,81.0546875,-26.641845703125,-74.89013671875
16.8499999,7.029376029968262,-5.949591159820557,5.169081687927246,35.5072021484375,10.25390625,11.0015869140625
16.8699999,6.907271862030029,-5.34625244140625,5.410895824432373,35.94970703125,4.8675537109375,38.0096435546875
16.8899999,6.730101108551025,-5.006275653839111,5.904101371765137,66.741943359375,-17.3492431640625,-30.8990478515625
16.9099999,6.524199485778809,-4.829104900360107,6.3949127197265625,58.2733154296875,-29.4647216796875,-73.5931396484375
16.929999900000002,6.461950302124023,-4.503493309020996,6.964732646942139,-0.3204345703125,-0.823974609375,-19.3023681640625
16.9499999,6.514622688293457,-4.043806552886963,7.422025203704834,-38.818359375,32.7301025390625,46.295166015625
16.9699999,6.3973069190979,-4.072536945343018,7.979874134063721,-16.937255859375,35.858154296875,23.0712890625
16.9899999,6.100425720214844,-4.5394062995910645,8.633491516113281,17.15087890625,6.317138671875,-62.530517578125
17.0099999,5.779603004455566,-5.051765441894531,9.169792175292969,-11.7034912109375,-22.247314453125,-98.2666015625
17.0299999,5.779603004455566,-5.020640850067139,9.674968719482422,-50.5523681640625,-10.43701171875,-64.2852783203125
17.0499999,5.987898349761963,-4.426878929138184,9.763554573059082,-59.600830078125,-3.84521484375,-35.7208251953125
17.0699999,6.200982570648193,-3.6391866207122803,9.569623947143555,-66.650390625,-7.6141357421875,-46.783447265625
17.089999900000002,6.196194171905518,-3.1004912853240967,9.193734169006348,-74.493408203125,-14.22119140625,-72.81494140625
17.109999900000002,6.0597243309021,-2.63362193107605,8.707711219787598,-84.6405029296875,-19.5770263671875,-88.3941650390625
17.1299999,5.9974751472473145,-1.9967641830444336,8.248024940490723,-90.9423828125,-20.3704833984375,-90.606689453125
17.1499999,6.102819919586182,-1.036689281463623,7.833827972412109,-95.4742431640625,-21.66748046875,-85.9222412109375
17.1699999,6.275202751159668,0.028730420395731926,7.501033782958984,-98.5107421875,-23.5443115234375,-77.4993896484375
17.1899999,6.3518171310424805,0.8738836050033569,7.271190643310547,-98.846435546875,-20.172119140625,-69.122314453125
17.2099999,6.258443355560303,1.290474772453308,7.208941459655762,-105.52978515625,-8.0413818359375,-68.267822265625
17.2299999,6.179434776306152,1.4987702369689941,7.419631004333496,-113.8763427734375,-3.2501220703125,-83.8623046875
17.249999900000002,6.04775333404541,1.4413094520568848,7.690176010131836,-117.828369140625,-19.22607421875,-86.8377685546875
17.269999900000002,5.975927352905273,1.3934253454208374,7.972691535949707,-120.7733154296875,-27.9083251953125,-86.2884521484375
17.2899999,5.96874475479126,1.4628572463989258,8.106766700744629,-123.443603515625,-19.989013671875,-101.13525390625
17.3099999,6.102819919586182,1.7118542194366455,8.178592681884766,-121.52099609375,-17.974853515625,-113.616943359375
17.3299999,6.3973069190979,2.2361843585968018,8.169015884399414,-125.6256103515625,-31.4483642578125,-106.292724609375
17.3499999,6.9024834632873535,3.0310592651367188,8.030152320861816,-134.521484375,-41.3665771484375,-87.158203125
17.3699999,7.441178798675537,3.8786067962646484,7.773972988128662,-133.30078125,-28.472900390625,-72.7386474609375
17.3899999,7.778761386871338,4.486733913421631,7.105990409851074,-126.15966796875,-32.77587890625,-70.9991455078125
17.409999900000003,8.054094314575195,5.0014872550964355,6.354211330413818,-107.23876953125,-45.745849609375,-82.855224609375
17.429999900000002,8.252813339233398,5.374982833862305,5.442020416259766,-89.324951171875,-55.48095703125,-78.7353515625
17.4499999,8.513781547546387,5.837063789367676,4.5609540939331055,-76.2176513671875,-54.7943115234375,-58.6700439453125
17.4699999,8.69095230102539,6.14831018447876,3.5889084339141846,-71.4874267578125,-52.398681640625,-31.43310546875
17.4899999,8.825027465820312,6.265625953674316,2.695871114730835,-55.633544921875,-49.468994140625,-18.280029296875
17.5099999,8.927978515625,6.205770969390869,1.965639591217041,-26.824951171875,-49.2401123046875,-21.7132568359375
17.5299999,9.095572471618652,6.071695327758789,1.3239935636520386,-20.20263671875,-52.764892578125,-7.0953369140625
17.5499999,9.423578262329102,6.054935932159424,0.8212111592292786,-13.641357421875,-49.713134765625,20.9503173828125
17.5699999,9.797073364257812,6.114790916442871,0.2082955539226532,5.5694580078125,-42.1142578125,43.7469482421875
17.589999900000002,10.211270332336426,6.174646377563477,-0.3447650372982025,41.8243408203125,-31.3568115234375,49.591064453125
17.609999900000002,10.474632263183594,6.1052141189575195,-0.9145850539207458,77.1636962890625,-32.379150390625,49.6368408203125
17.6299999,10.685321807861328,6.081272125244141,-1.335964560508728,91.2933349609375,-28.594970703125,61.6912841796875
17.6499999,10.757147789001465,6.0836663246154785,-1.5107412338256836,97.3052978515625,-4.08935546875,94.90966796875
17.6699999,10.579977035522461,5.872976779937744,-1.4700398445129395,125.8392333984375,7.4615478515625,124.4049072265625
17.6899999,10.15141487121582,5.315127849578857,-1.1683704853057861,160.15625,2.716064453125,121.6583251953125
17.7099999,9.29189682006836,3.931279182434082,-0.8188169598579407,153.1219482421875,8.4075927734375,123.8250732421875
17.7299999,8.322244644165039,1.900996208190918,-0.4884171485900879,145.32470703125,27.4200439453125,109.19189453125
17.749999900000002,7.82185697555542,-0.08140286058187485,0.038307227194309235,157.867431640625,51.4373779296875,70.4345703125
17.769999900000002,7.833827972412109,-1.824381709098816,0.5602431893348694,148.3612060546875,56.4117431640625,82.8857421875
17.7899999,9.191340446472168,-4.51067590713501,2.0614075660705566,135.6201171875,45.318603515625,94.970703125
17.8099999,9.928754806518555,-5.501875400543213,2.669534921646118,144.989013671875,29.23583984375,30.548095703125
17.8299999,10.51054573059082,-5.987898349761963,2.7126305103302,116.3330078125,11.2457275390625,16.17431640625
17.8499999,10.970232009887695,-5.693411827087402,2.492363929748535,95.64208984375,30.8685302734375,51.3916015625
17.8699999,10.99656867980957,-5.272032260894775,2.073378562927246,124.0386962890625,39.825439453125,68.9239501953125
17.8899999,10.608707427978516,-4.967968463897705,1.6663644313812256,150.7720947265625,18.9971923828125,27.7862548828125
17.909999900000003,10.113107681274414,-4.922478675842285,1.900996208190918,126.251220703125,24.9481201171875,-6.65283203125
17.929999900000002,9.706093788146973,-4.90571928024292,2.3271639347076416,61.767578125,39.0167236328125,38.26904296875
17.9499999,9.375694274902344,-4.99669885635376,3.066972494125366,31.005859375,47.8057861328125,100.2197265625
17.9699999,8.942343711853027,-5.600037574768066,3.9025487899780273,70.0531005859375,22.6287841796875,73.8983154296875
17.9899999,8.391676902770996,-6.390124320983887,4.58968448638916,100.2349853515625,-20.599365234375,-31.8603515625
18.0099999,7.95832633972168,-6.871358871459961,5.015852451324463,67.9779052734375,-29.1900634765625,-62.98828125
18.0299999,7.812280178070068,-6.677428722381592,5.17626428604126,2.50244140625,26.123046875,20.3704833984375
18.0499999,7.802703380584717,-5.963956356048584,5.149928092956543,-17.1356201171875,63.7969970703125,77.0263671875
18.0699999,7.608773231506348,-5.69580602645874,5.48272180557251,14.2059326171875,41.3665771484375,36.9110107421875
18.089999900000002,7.127538681030273,-5.8873419761657715,5.925649166107178,37.7960205078125,-14.7705078125,-52.734375
18.109999900000002,6.718130111694336,-6.028599739074707,6.5265936851501465,10.345458984375,-22.186279296875,-72.32666015625
18.1299999,6.4164605140686035,-5.944802761077881,6.830657482147217,-39.6270751953125,24.0478515625,-11.65771484375
18.1499999,6.382941722869873,-5.327098846435547,6.9240312576293945,-50.3387451171875,42.8924560546875,3.8909912109375
18.1699999,6.258443355560303,-4.838681697845459,6.861782073974609,-35.7208251953125,18.096923828125,-36.041259765625
18.1899999,6.172252178192139,-4.314351558685303,6.847416877746582,-21.7437744140625,-7.6904296875,-74.70703125
18.2099999,6.167463779449463,-3.5913026332855225,6.742072105407715,-35.6292724609375,-1.5106201171875,-68.878173828125
18.2299999,6.308721542358398,-2.6839001178741455,6.643909931182861,-57.5714111328125,21.5911865234375,-30.731201171875
18.249999900000002,6.576871871948242,-1.7405846118927002,6.6391215324401855,-53.1768798828125,24.1851806640625,-28.076171875
18.269999900000002,6.787561893463135,-1.1252747774124146,6.746860504150391,-44.9066162109375,6.072998046875,-48.583984375
18.2899999,6.962338447570801,-0.706289529800415,6.909666061401367,-40.863037109375,-10.1165771484375,-64.8651123046875
18.3099999,7.16584587097168,-0.24660277366638184,7.005434036254883,-44.952392578125,-8.941650390625,-63.1256103515625
18.3299999,7.4316020011901855,0.38067805767059326,6.962338447570801,-50.750732421875,-5.2032470703125,-45.623779296875
18.3499999,7.671022415161133,1.048660397529602,6.806715488433838,-53.741455078125,-9.8114013671875,-26.7181396484375
18.3699999,7.759607791900635,1.5203180313110352,6.600813865661621,-53.863525390625,-12.237548828125,-18.3868408203125
18.3899999,7.6111674308776855,1.6543933153152466,6.294356346130371,-50.2471923828125,-9.8114013671875,-22.4456787109375
18.409999900000003,7.3023152351379395,1.4772224426269531,5.983109951019287,-40.9088134765625,-7.75146484375,-33.0047607421875
18.429999900000002,7.048529624938965,1.2545616626739502,5.748478412628174,-28.1829833984375,-11.3525390625,-44.9981689453125
18.4499999,6.9695210456848145,1.1563993692398071,5.5329999923706055,-30.2886962890625,-17.3187255859375,-43.5028076171875
18.4699999,7.113173484802246,1.2545616626739502,5.351040840148926,-40.863037109375,-10.833740234375,-31.951904296875
18.4899999,7.390900611877441,1.5059528350830078,5.051765441894531,-35.980224609375,-7.293701171875,-29.754638671875
18.5099999,7.781155586242676,1.886630892753601,4.644751071929932,-21.9268798828125,-9.674072265625,-35.125732421875
18.5299999,8.224082946777344,2.250549554824829,4.180276393890381,-16.143798828125,-8.1329345703125,-26.0772705078125
18.5499999,8.676587104797363,2.4468741416931152,3.7828385829925537,-21.1334228515625,0.213623046875,-3.8604736328125
18.5699999,9.131484985351562,2.449268341064453,3.5266590118408203,-18.85986328125,3.72314453125,1.89208984375
18.589999900000002,9.519346237182617,2.212242364883423,3.3949780464172363,-8.514404296875,1.434326171875,-6.4239501953125
18.609999900000002,9.81143856048584,1.8100165128707886,3.3949780464172363,-2.4871826171875,-1.3275146484375,-4.486083984375
18.6299999,9.976638793945312,1.2952631711959839,3.464409828186035,-3.5400390625,1.922607421875,6.8359375
18.6499999,10.072406768798828,0.8355764150619507,3.581725835800171,-3.936767578125,4.69970703125,4.302978515625
18.6699999,10.038887977600098,0.36152446269989014,3.7014358043670654,-0.8392333984375,1.8463134765625,-1.9073486328125
18.6899999,9.955090522766113,-0.040701430290937424,3.866635799407959,0.579833984375,0.4730224609375,0.9918212890625
18.7099999,9.856928825378418,-0.31603461503982544,4.01268196105957,-0.701904296875,0.946044921875,2.7008056640625
18.7299999,9.727641105651855,-0.5363011956214905,4.1395745277404785,-0.823974609375,-2.197265625,1.6021728515625
18.749999900000002,9.603142738342285,-0.6607996821403503,4.242525577545166,1.434326171875,-6.3323974609375,-2.8533935546875
18.769999900000002,9.493009567260742,-0.7230489253997803,4.321534156799316,2.8228759765625,-8.97216796875,-4.180908203125
18.7899999,9.390059471130371,-0.7613561153411865,4.316745758056641,0.91552734375,-11.138916015625,0.18310546875
18.8099999,9.284713745117188,-0.7972691655158997,4.273650169372559,-0.274658203125,-9.82666015625,0.3509521484375
18.8299999,9.196128845214844,-0.8188169598579407,4.170699596405029,-0.518798828125,-8.3160400390625,-4.241943359375
18.8499999,9.11233139038086,-0.8523358106613159,4.055777549743652,-0.5340576171875,-7.904052734375,-5.2642822265625
18.8699999,9.062053680419922,-0.8451532125473022,3.9480385780334473,-1.4801025390625,-9.246826171875,-1.9073486328125
18.8899999,9.042900085449219,-0.8236053586006165,3.8762125968933105,-2.2430419921875,-8.5906982421875,-0.9002685546875
18.909999900000003,9.016563415527344,-0.8092401623725891,3.799597978591919,-2.7923583984375,-7.781982421875,-2.532958984375
18.929999900000002,9.009381294250488,-0.7852981686592102,3.773261785507202,-3.082275390625,-5.8441162109375,-3.6773681640625
18.9499999,9.006986618041992,-0.7374141216278076,3.7493197917938232,-2.99072265625,-5.889892578125,-1.9378662109375
18.9699999,9.038111686706543,-0.6392518281936646,3.778050184249878,-3.4942626953125,-6.04248046875,1.1138916015625
18.9899999,9.066842079162598,-0.5602431893348694,3.8163576126098633,-2.777099609375,-6.256103515625,4.1046142578125
19.0099999,9.040505409240723,-0.5506663918495178,3.8307228088378906,-1.77001953125,-7.7972412109375,4.94384765625
19.0299999,8.987833023071289,-0.5937620401382446,3.8307228088378906,0.0762939453125,-7.476806640625,0.6256103515625
19.0499999,8.93037223815918,-0.6703764796257019,3.8163576126098633,1.5106201171875,-5.9967041015625,-2.3345947265625
19.0699999,8.913613319396973,-0.7086837291717529,3.794809579849243,0.762939453125,-7.2021484375,-0.6103515625
19.089999900000002,8.968679428100586,-0.6871358752250671,3.821146011352539,0.091552734375,-7.843017578125,1.922607421875
19.109999900000002,9.035717010498047,-0.6536170840263367,3.8379054069519043,0.152587890625,-11.16943359375,2.8839111328125
19.1299999,9.093177795410156,-0.6344634294509888,3.825934410095215,-0.8697509765625,-14.6942138671875,1.4190673828125
19.1499999,9.117119789123535,-0.646434485912323,3.799597978591919,-1.617431640625,-12.6495361328125,-0.457763671875
19.1699999,9.121908187866211,-0.6607996821403503,3.7229835987091064,-1.2969970703125,-12.115478515625,-1.2664794921875
19.1899999,9.138668060302734,-0.6607996821403503,3.6511576175689697,0.701904296875,-14.34326171875,-1.2054443359375
19.2099999,9.160215377807617,-0.6607996821403503,3.5913026332855225,0.3204345703125,-16.3421630859375,-0.3204345703125
19.2299999,9.157821655273438,-0.6823474764823914,3.5003228187561035,-2.50244140625,-17.7001953125,-0.946044921875
19.249999900000002,9.155426979064941,-0.706289529800415,3.4189200401306152,-1.7547607421875,-15.380859375,-4.2877197265625
19.269999900000002,9.162610054016113,-0.7134721279144287,3.3279404640197754,2.25830078125,-13.12255859375,-6.134033203125
19.2899999,9.193734169006348,-0.689530074596405,3.2609026432037354,1.800537109375,-11.138916015625,-2.13623046875
19.3099999,9.258378028869629,-0.6177040338516235,3.2130186557769775,-0.8087158203125,-6.04248046875,0.5340576171875
19.3299999,9.246406555175781,-0.6009446382522583,3.1962592601776123,0.18310546875,-7.3394775390625,-0.518798828125
19.3499999,9.208099365234375,-0.6057330369949341,3.1531636714935303,-0.6561279296875,-7.568359375,2.2735595703125
19.3699999,9.196128845214844,-0.5841852426528931,3.136404275894165,0.6103515625,-5.0506591796875,0.8544921875
19.3899999,9.162610054016113,-0.5985504388809204,3.066972494125366,-1.6326904296875,-6.5460205078125,1.4190673828125
19.409999900000003,9.172186851501465,-0.5985504388809204,3.043030261993408,-3.7994384765625,-5.3253173828125,1.8768310546875
19.429999900000002,9.181763648986816,-0.6105214357376099,3.004723072052002,-2.899169921875,-4.0130615234375,1.40380859375
19.4499999,9.188945770263672,-0.6536170840263367,3.0119056701660156,0.4730224609375,-3.47900390625,0.18310546875
19.4699999,9.198522567749023,-0.6919242739677429,3.0119056701660156,4.08935546875,-7.8582763671875,-5.0811767578125
19.4899999,9.232041358947754,-0.6919242739677429,3.0190882682800293,1.922607421875,-6.8359375,-6.6680908203125
19.5099999,9.287108421325684,-0.6392518281936646,3.0142998695373535,-1.220703125,-1.4190673828125,-1.678466796875
19.5299999,9.351752281188965,-0.5626373887062073,2.999934673309326,-0.5340576171875,0.8697509765625,3.8299560546875
19.5499999,9.390059471130371,-0.5291185975074768,2.9975404739379883,-0.3204345703125,-1.556396484375,3.4027099609375
19.5699999,9.39245319366455,-0.5626373887062073,3.0142998695373535,-1.220703125,-3.9520263671875,-0.823974609375
19.589999900000002,9.361329078674316,-0.6440402865409851,3.0142998695373535,-2.288818359375,-4.4403076171875,-2.838134765625
19.609999900000002,9.349357604980469,-0.6775590777397156,2.9903578758239746,-1.2359619140625,-3.2196044921875,-2.471923828125
19.6299999,9.349357604980469,-0.6751648783683777,2.9496564865112305,0.579833984375,-1.434326171875,0.1220703125
19.6499999,9.344569206237793,-0.6536170840263367,2.8850131034851074,1.373291015625,-2.3345947265625,1.7852783203125
19.6699999,9.332598686218262,-0.6584054827690125,2.8562827110290527,2.227783203125,-1.9683837890625,-0.3814697265625
19.6899999,9.296685218811035,-0.6991068720817566,2.8371291160583496,1.3580322265625,-2.5634765625,-2.777099609375
19.7099999,9.272743225097656,-0.7254431247711182,2.8419175148010254,1.5106201171875,-3.6163330078125,-3.9520263671875
19.7299999,9.282320022583008,-0.7134721279144287,2.849100112915039,1.129150390625,-2.9144287109375,-3.5247802734375
19.749999900000002,9.330204010009766,-0.6416460275650024,2.8586769104003906,0.152587890625,-1.3580322265625,-3.1585693359375
19.769999900000002,9.404424667358398,-0.5410895943641663,2.8562827110290527,-0.3814697265625,0.213623046875,-1.922607421875
19.7899999,9.469067573547363,-0.4644751250743866,2.8802247047424316,-0.91552734375,0.396728515625,1.190185546875
19.8099999,9.521739959716797,-0.4118026793003082,2.9089550971984863,-1.64794921875,0.1373291015625,1.3275146484375
19.8299999,9.528923034667969,-0.43095630407333374,2.959233283996582,-1.6632080078125,-0.244140625,1.40380859375
19.8499999,9.500192642211914,-0.4884171485900879,2.983175277709961,-1.2359619140625,-0.518798828125,0.8697509765625
19.8699999,9.452308654785156,-0.5626373887062073,2.999934673309326,-0.4425048828125,0.3662109375,-0.79345703125
19.8899999,9.38048267364502,-0.6177040338516235,2.959233283996582,0.2288818359375,-0.79345703125,-2.4871826171875
19.909999900000003,9.339780807495117,-0.6224924325942993,2.9161376953125,1.373291015625,-0.152587890625,-3.0517578125
19.929999900000002,9.332598686218262,-0.5841852426528931,2.873042106628418,1.15966796875,0.946044921875,-1.28173828125
19.9499999,9.35654067993164,-0.5267243981361389,2.846705913543701,-0.0762939453125,0.823974609375,1.2054443359375
19.9699999,9.387664794921875,-0.5051765441894531,2.846705913543701,-0.6866455078125,0.9918212890625,2.25830078125
19.9899999,9.411606788635254,-0.507570743560791,2.853888511657715,0.4425048828125,0.5340576171875,0.030517578125
20.0099999,9.409213066101074,-0.5506663918495178,2.8658595085144043,1.40380859375,0.274658203125,-1.220703125
20.0299999,9.41400146484375,-0.5793967843055725,2.8778305053710938,0.8697509765625,0.0762939453125,-1.2969970703125
20.0499999,9.418789863586426,-0.5985504388809204,2.896984100341797,-0.152587890625,-0.5645751953125,-0.5645751953125
20.0699999,9.418789863586426,-0.6105214357376099,2.9041666984558105,-0.518798828125,-1.251220703125,0.3509521484375
20.089999900000002,9.41639518737793,-0.608127236366272,2.9041666984558105,-0.4119873046875,-0.9613037109375,-1.0223388671875
20.109999900000002,9.41400146484375,-0.5937620401382446,2.8850131034851074,0.0762939453125,-0.823974609375,-1.89208984375
20.1299999,9.411606788635254,-0.5626373887062073,2.8634653091430664,0.152587890625,-0.1220703125,-0.701904296875
20.1499999,9.411606788635254,-0.5267243981361389,2.832340717315674,-0.30517578125,-0.0762939453125,0.91552734375
20.1699999,9.404424667358398,-0.5051765441894531,2.808398485183716,-0.3662109375,-0.3662109375,0.4730224609375
20.1899999,9.378087997436523,-0.5027823448181152,2.7748796939849854,-0.3204345703125,0.0152587890625,-0.244140625
20.2099999,9.327810287475586,-0.5386953949928284,2.734178304672241,0.1678466796875,0.396728515625,-0.0762939453125
20.2299999,9.265560150146484,-0.6105214357376099,2.6886885166168213,1.068115234375,0.8392333984375,-1.6632080078125
20.249999900000002,9.196128845214844,-0.7134721279144287,2.6647465229034424,0.946044921875,2.0599365234375,-5.126953125
20.269999900000002,9.121908187866211,-0.8619126081466675,2.655169725418091,-0.0457763671875,1.0528564453125,-8.697509765625
20.2899999,9.057265281677246,-1.048660397529602,2.6599581241607666,-1.2664794921875,0.1678466796875,-13.18359375
20.3099999,9.004592895507812,-1.2473790645599365,2.669534921646118,-1.373291015625,0.4425048828125,-20.233154296875
20.3299999,8.983044624328613,-1.4700398445129395,2.695871114730835,-2.4871826171875,3.1585693359375,-26.611328125
