# Time (seconds),Accel_X,Accel_Y,Accel_Z,Gyro_X,Gyro_Y,Gyro_Z
0.0099999,9.634267807006836,0.28730419278144836,0.3495534360408783,-0.885009765625,4.8675537109375,0.0152587890625
0.029999900000000003,9.653421401977539,0.2537853717803955,0.45250412821769714,-1.251220703125,2.5787353515625,-0.244140625
0.0499999,9.696516990661621,0.20350714027881622,0.5219359993934631,-2.685546875,-0.5035400390625,0.274658203125
0.0699999,9.758766174316406,0.15322890877723694,0.5291185975074768,-2.8076171875,-2.1209716796875,0.91552734375
0.08999990000000001,9.818621635437012,0.1173158809542656,0.49559974670410156,-4.1961669921875,-0.762939453125,1.1138916015625
0.10999990000000001,9.864110946655273,0.10295066982507706,0.43095630407333374,-2.7618408203125,1.5106201171875,-1.556396484375
0.1299999,9.916783332824707,0.08140286058187485,0.3878606855869293,-2.3040771484375,3.2958984375,-4.241943359375
0.14999990000000002,9.93593692779541,0.08858546614646912,0.3734954595565796,-3.204345703125,2.227783203125,-8.880615234375
0.1699999,9.959878921508789,0.09576806426048279,0.395043283700943,-4.547119140625,-1.953125,-5.6304931640625
0.1899999,9.947908401489258,0.13407529890537262,0.42377370595932007,-3.173828125,-3.6163330078125,-1.2359619140625
0.20999990000000002,9.907206535339355,0.1867477297782898,0.44532153010368347,-2.2735595703125,-2.50244140625,-2.25830078125
0.2299999,9.852140426635742,0.24181437492370605,0.45489832758903503,-1.8768310546875,-2.3193359375,0.06103515625
0.2499999,9.785101890563965,0.26336219906806946,0.45010992884635925,-0.8697509765625,-3.509521484375,4.852294921875
0.2699999,9.72285270690918,0.27054479718208313,0.4572925269603729,-0.2593994140625,-4.364013671875,5.3558349609375
0.28999990000000003,9.696516990661621,0.2346317619085312,0.47165772318840027,0.8392333984375,-4.8370361328125,5.5694580078125
0.3099999,9.703699111938477,0.16759411990642548,0.4812345504760742,2.0904541015625,-6.5155029296875,5.859375
0.3299999,9.749189376831055,0.07422025501728058,0.4836287498474121,-0.6103515625,-8.544921875,5.2337646484375
0.34999990000000003,9.816226959228516,-0.019153613597154617,0.4405331015586853,-0.9765625,-10.5743408203125,4.9285888671875
0.3699999,9.880870819091797,-0.08619125932455063,0.36152446269989014,-0.6561279296875,-10.8642578125,4.974365234375
0.3899999,9.93354320526123,-0.12210428714752197,0.24899697303771973,-0.732421875,-9.27734375,5.889892578125
0.40999990000000003,9.971850395202637,-0.1149216815829277,0.12928688526153564,-0.1678466796875,-6.0577392578125,4.486083984375
0.4299999,9.995792388916016,-0.09816227108240128,0.043095629662275314,-0.244140625,-3.6773681640625,3.1280517578125
0.4499999,10.02691650390625,-0.07900865375995636,0.009576806798577309,-0.0152587890625,-3.204345703125,4.7607421875
0.4699999,10.053253173828125,-0.07182604819536209,0.021547814831137657,2.105712890625,-3.509521484375,4.9591064453125
0.4899999,10.070012092590332,-0.06703764945268631,0.043095629662275314,2.9144287109375,-3.8299560546875,4.8675537109375
0.5099999,10.0580415725708,-0.07422025501728058,0.05985504388809204,1.3275146484375,-2.471923828125,4.425048828125
0.5299999,10.012551307678223,-0.07422025501728058,0.06703764945268631,0.518798828125,-0.1983642578125,3.082275390625
0.5499999,9.938331604003906,-0.07182604819536209,0.08379705995321274,1.6021728515625,1.5869140625,2.4566650390625
0.5699999,9.837775230407715,-0.05746084079146385,0.12449848651885986,1.8310546875,1.9073486328125,2.0294189453125
0.5899998999999999,9.751583099365234,-0.047884032130241394,0.18914192914962769,2.655029296875,0.2593994140625,1.40380859375
0.6099998999999999,9.68694019317627,-0.047884032130241394,0.2537853717803955,3.3721923828125,0,0.9307861328125
0.6299999,9.658209800720215,-0.0694318488240242,0.304063618183136,4.0283203125,-1.129150390625,-0.7781982421875
0.6499999,9.66539192199707,-0.11013327538967133,0.3280056416988373,1.800537109375,-10.986328125,-3.6163330078125
0.6699999,9.672574996948242,-0.15801730751991272,0.3280056416988373,-0.946044921875,-16.357421875,-0.823974609375
0.6899999,9.66539192199707,-0.181959331035614,0.3016694188117981,0.4425048828125,-6.591796875,-1.4495849609375
0.7099999,9.641449928283691,-0.181959331035614,0.2561795711517334,1.8310546875,-2.9754638671875,-2.4871826171875
0.7299998999999999,9.612719535827637,-0.14604631066322327,0.19632454216480255,1.4190673828125,-6.0272216796875,0.579833984375
0.7499998999999999,9.603142738342285,-0.10773907601833344,0.12928688526153564,1.6632080078125,-5.4168701171875,0.1678466796875
0.7699999,9.627084732055664,-0.08140286058187485,0.06224924325942993,2.4261474609375,-4.302978515625,0.9918212890625
0.7899999,9.679757118225098,-0.08619125932455063,0.009576806798577309,0.946044921875,-5.523681640625,3.0975341796875
0.8099999,9.749189376831055,-0.11971008777618408,-0.023942016065120697,0.640869140625,-4.241943359375,1.678466796875
0.8299999,9.825803756713867,-0.16759411990642548,-0.031124621629714966,1.9683837890625,-1.1749267578125,0.7171630859375
0.8499998999999999,9.876082420349121,-0.2059013396501541,-0.023942016065120697,4.547119140625,5.7373046875,1.2359619140625
0.8699998999999999,9.911994934082031,-0.22744916379451752,-0.004788403399288654,1.190185546875,-1.2359619140625,-0.2899169921875
0.8899999,9.919178009033203,-0.2322375625371933,0.004788403399288654,-1.983642578125,-6.744384765625,-0.0152587890625
0.9099999,9.911994934082031,-0.21308395266532898,0.0071826050989329815,-0.579833984375,-3.7994384765625,-1.861572265625
0.9299999,9.895236015319824,-0.19632454216480255,0.009576806798577309,0.396728515625,-2.38037109375,-3.60107421875
0.9499999,9.859322547912598,-0.16759411990642548,0.014365210197865963,0.8697509765625,-0.6866455078125,-2.1209716796875
0.9699998999999999,9.818621635437012,-0.14844051003456116,0.026336219161748886,1.373291015625,3.2196044921875,-0.213623046875
0.9899998999999999,9.782708168029785,-0.13168109953403473,0.040701430290937424,1.190185546875,1.861572265625,0.091552734375
1.0099999,9.763554573059082,-0.12689268589019775,0.05027823522686958,0.4119873046875,-3.2958984375,-1.0223388671875
1.0299999,9.768342971801758,-0.12689268589019775,0.05506663769483566,0.54931640625,-5.0506591796875,-1.2969970703125
1.0499999,9.77791976928711,-0.13407529890537262,0.031124621629714966,1.9989013671875,-1.6937255859375,-0.18310546875
1.0699999,9.794678688049316,-0.14365209639072418,-0.0071826050989329815,1.6326904296875,-0.274658203125,1.40380859375
1.0899999,9.806650161743164,-0.15083470940589905,-0.05985504388809204,-0.396728515625,-3.692626953125,1.1749267578125
1.1099999,9.818621635437012,-0.15562310814857483,-0.1149216815829277,-0.6256103515625,-4.4097900390625,0.274658203125
1.1299999,9.818621635437012,-0.14844051003456116,-0.14844051003456116,0.152587890625,-2.593994140625,-0.640869140625
1.1499999,9.816226959228516,-0.1364694982767105,-0.15322890877723694,-0.0152587890625,-1.28173828125,0.823974609375
1.1699998999999999,9.804255485534668,-0.12689268589019775,-0.1388636976480484,0.67138671875,0.1220703125,2.227783203125
1.1899998999999999,9.801861763000488,-0.12449848651885986,-0.09816227108240128,-0.1678466796875,-0.9765625,1.373291015625
1.2099999,9.81143856048584,-0.1388636976480484,-0.05506663769483566,-0.4425048828125,-2.1209716796875,0.152587890625
1.2299999,9.835380554199219,-0.1604115068912506,-0.026336219161748886,0.030517578125,-2.4261474609375,0.4119873046875
1.2499999,9.852140426635742,-0.181959331035614,-0.014365210197865963,-0.1373291015625,-1.617431640625,0.6561279296875
1.2699999,9.86650562286377,-0.19632454216480255,-0.021547814831137657,-0.8087158203125,-0.762939453125,0.3204345703125
1.2899999,9.876082420349121,-0.20350714027881622,-0.035913024097681046,-0.4730224609375,-0.762939453125,0.1678466796875
1.3099999,9.86889934539795,-0.20350714027881622,-0.0454898327589035,0.8544921875,-0.152587890625,-1.64794921875
1.3299999,9.859322547912598,-0.19632454216480255,-0.038307227194309235,0.6256103515625,-0.3662109375,-1.9683837890625
1.3499999,9.835380554199219,-0.19153612852096558,-0.033518824726343155,0.3662109375,-0.9002685546875,-1.0528564453125
1.3699999,9.80904483795166,-0.181959331035614,-0.014365210197865963,-0.885009765625,-0.9613037109375,-0.42724609375
1.3899999,9.780313491821289,-0.16759411990642548,0,-0.8392333984375,-1.220703125,-0.5035400390625
1.4099999,9.761159896850586,-0.14844051003456116,0.016759412363171577,-0.2899169921875,-1.7852783203125,-0.7781982421875
1.4299998999999999,9.763554573059082,-0.13407529890537262,0.021547814831137657,0.6866455078125,-2.3956298828125,-0.06103515625
1.4499999,9.782708168029785,-0.12928688526153564,0.014365210197865963,0.701904296875,-2.5634765625,0.5950927734375
1.4699999,9.823410034179688,-0.1412578970193863,-0.0071826050989329815,0.7781982421875,-1.312255859375,-0.152587890625
1.4899999,9.871294021606445,-0.1604115068912506,-0.023942016065120697,0,-0.335693359375,-1.46484375
1.5099999,9.9000244140625,-0.17717093229293823,-0.031124621629714966,0.1983642578125,-0.701904296875,-1.678466796875
1.5299999,9.907206535339355,-0.1843535304069519,-0.014365210197865963,0.2593994140625,-1.6021728515625,-1.0833740234375
1.5499999,9.892841339111328,-0.1843535304069519,0.011971008032560349,0.18310546875,-2.532958984375,-0.732421875
1.5699999,9.864110946655273,-0.17956513166427612,0.033518824726343155,0.152587890625,-3.0975341796875,-0.91552734375
1.5899999,9.84256362915039,-0.181959331035614,0.033518824726343155,1.1444091796875,-3.204345703125,-1.2664794921875
1.6099999,9.818621635437012,-0.181959331035614,0.014365210197865963,0.9765625,-2.7313232421875,-2.1209716796875
1.6299999,9.804255485534668,-0.17477671802043915,-0.021547814831137657,0.274658203125,-2.13623046875,-1.8310546875
1.6499999,9.797073364257812,-0.17477671802043915,-0.05985504388809204,0.274658203125,-2.5482177734375,-0.30517578125
1.6699999,9.794678688049316,-0.16759411990642548,-0.090979665517807,0.1220703125,-2.716064453125,-0.823974609375
1.6899998999999999,9.799467086791992,-0.16519992053508759,-0.11971008777618408,-0.9002685546875,-2.777099609375,-1.1138916015625
1.7099999,9.801861763000488,-0.1604115068912506,-0.14844051003456116,-0.9613037109375,-2.4261474609375,-1.2054443359375
1.7299999,9.801861763000488,-0.14844051003456116,-0.15801730751991272,-1.0833740234375,-1.5106201171875,-1.4190673828125
1.7499999,9.794678688049316,-0.1364694982767105,-0.16998831927776337,-0.762939453125,-0.8392333984375,-0.5340576171875
1.7699999,9.787496566772461,-0.11971008777618408,-0.15322890877723694,-2.288818359375,-1.129150390625,0.2593994140625
1.7899999,9.782708168029785,-0.11252748221158981,-0.13168109953403473,-1.861572265625,-1.03759765625,-0.213623046875
1.8099999,9.785101890563965,-0.10534487664699554,-0.09816227108240128,-0.9765625,-0.701904296875,-0.762939453125
1.8299999,9.797073364257812,-0.10295066982507706,-0.05746084079146385,-1.007080078125,-1.2969970703125,-0.5340576171875
1.8499999,9.81143856048584,-0.10295066982507706,-0.031124621629714966,-0.8544921875,-1.800537109375,-0.6561279296875
1.8699999,9.830592155456543,-0.10773907601833344,-0.019153613597154617,-0.457763671875,-1.7852783203125,-1.03759765625
1.8899999,9.849745750427246,-0.1149216815829277,-0.023942016065120697,-0.4730224609375,-1.6937255859375,-0.7171630859375
1.9099999,9.861717224121094,-0.11971008777618408,-0.05027823522686958,0.3814697265625,-1.6632080078125,-1.3427734375
1.9299998999999999,9.86889934539795,-0.12449848651885986,-0.07900865375995636,0.2288818359375,-1.3885498046875,-1.495361328125
1.9499999,9.871294021606445,-0.12449848651885986,-0.10773907601833344,-0.3509521484375,-0.8087158203125,-1.3885498046875
1.9699999,9.856928825378418,-0.1149216815829277,-0.13407529890537262,-0.4425048828125,-0.5035400390625,-1.0986328125
1.9899999,9.840168952941895,-0.10055647045373917,-0.1388636976480484,-0.457763671875,-0.5950927734375,-0.335693359375
2.0099999,9.821015357971191,-0.08379705995321274,-0.13168109953403473,0,-0.579833984375,-0.274658203125
2.0299999,9.799467086791992,-0.0694318488240242,-0.11252748221158981,0.7171630859375,-0.2899169921875,-1.3427734375
2.0499999,9.785101890563965,-0.05985504388809204,-0.08858546614646912,0.2593994140625,-0.9918212890625,-0.7476806640625
2.0699999,9.770736694335938,-0.05506663769483566,-0.07182604819536209,-0.1068115234375,-1.3580322265625,0.9002685546875
2.0899999,9.763554573059082,-0.05746084079146385,-0.05985504388809204,0.1678466796875,-1.1444091796875,0.335693359375
2.1099999,9.763554573059082,-0.06224924325942993,-0.05985504388809204,0.3662109375,-1.312255859375,-0.335693359375
2.1299999,9.761159896850586,-0.07661445438861847,-0.06224924325942993,0.2593994140625,-1.15966796875,-0.9002685546875
2.1499999,9.758766174316406,-0.0933738648891449,-0.07900865375995636,0.2899169921875,-1.312255859375,0.2899169921875
2.1699999,9.744400978088379,-0.09576806426048279,-0.090979665517807,-0.79345703125,-1.220703125,0.396728515625
2.1899999,9.732429504394531,-0.090979665517807,-0.0933738648891449,-0.7171630859375,-1.312255859375,0.6561279296875
2.2099999,9.739612579345703,-0.08858546614646912,-0.08858546614646912,0.06103515625,-1.9378662109375,0.8697509765625
2.2299999,9.75637149810791,-0.08619125932455063,-0.08619125932455063,-0.2899169921875,-2.6397705078125,0.9307861328125
2.2499999,9.799467086791992,-0.09576806426048279,-0.090979665517807,-1.495361328125,-2.899169921875,1.2969970703125
2.2699999,9.84495735168457,-0.1149216815829277,-0.10534487664699554,-1.0223388671875,-1.5106201171875,0.6256103515625
2.2899999,9.885659217834473,-0.13168109953403473,-0.1149216815829277,0.0152587890625,-0.0152587890625,-0.9765625
2.3099999,9.904812812805176,-0.1388636976480484,-0.11013327538967133,0.457763671875,-0.1220703125,-1.52587890625
2.3299999,9.90241813659668,-0.1412578970193863,-0.10055647045373917,-0.030517578125,-1.3275146484375,-0.1220703125
2.3499999,9.888052940368652,-0.1388636976480484,-0.08858546614646912,-0.79345703125,-1.9073486328125,0.9307861328125
2.3699999,9.86889934539795,-0.1412578970193863,-0.08858546614646912,-0.30517578125,-1.3427734375,-0.335693359375
2.3899999,9.854534149169922,-0.1412578970193863,-0.09816227108240128,0.2593994140625,-1.0833740234375,-0.9613037109375
2.4099999,9.837775230407715,-0.1364694982767105,-0.1149216815829277,0.244140625,-0.946044921875,-0.6256103515625
2.4299999,9.825803756713867,-0.12928688526153564,-0.12928688526153564,0.152587890625,-0.4730224609375,0.244140625
2.4499999,9.81143856048584,-0.12210428714752197,-0.1364694982767105,-0.0762939453125,-0.2288818359375,0.30517578125
2.4699999,9.806650161743164,-0.12210428714752197,-0.1388636976480484,-0.5645751953125,-0.7171630859375,0.457763671875
2.4899999,9.801861763000488,-0.12449848651885986,-0.13407529890537262,-0.9613037109375,-0.6103515625,0.0457763671875
2.5099999,9.797073364257812,-0.12689268589019775,-0.12928688526153564,-0.54931640625,0.1678466796875,-0.5950927734375
2.5299999,9.785101890563965,-0.1173158809542656,-0.11252748221158981,-0.4119873046875,0.1983642578125,-0.518798828125
2.5499999,9.773131370544434,-0.10773907601833344,-0.090979665517807,-0.640869140625,0.1220703125,0.0152587890625
2.5699999,9.768342971801758,-0.09576806426048279,-0.05746084079146385,-1.6937255859375,-0.9307861328125,0.640869140625
2.5899999,9.768342971801758,-0.090979665517807,-0.031124621629714966,-1.007080078125,-1.4495849609375,0.30517578125
2.6099999,9.782708168029785,-0.08858546614646912,-0.014365210197865963,-0.244140625,-1.5106201171875,0.091552734375
2.6299999,9.799467086791992,-0.08858546614646912,-0.011971008032560349,0.06103515625,-1.556396484375,-0.274658203125
2.6499999,9.818621635437012,-0.0933738648891449,-0.026336219161748886,0.4425048828125,-1.1138916015625,-0.67138671875
2.6699999,9.837775230407715,-0.10534487664699554,-0.05027823522686958,-0.2288818359375,-1.3580322265625,-0.030517578125
2.6899999,9.849745750427246,-0.1173158809542656,-0.08379705995321274,0.0152587890625,-1.373291015625,-0.1983642578125
2.7099999,9.854534149169922,-0.12928688526153564,-0.11252748221158981,0.0457763671875,-1.0833740234375,0.1983642578125
2.7299999,9.847352027893066,-0.12928688526153564,-0.13407529890537262,0.091552734375,-0.5340576171875,0.274658203125
2.7499999,9.837775230407715,-0.12928688526153564,-0.14365209639072418,0.3814697265625,-0.06103515625,-0.1068115234375
2.7699999,9.832986831665039,-0.13168109953403473,-0.1364694982767105,0.4425048828125,0.152587890625,-0.1373291015625
2.7899999,9.828198432922363,-0.1388636976480484,-0.12449848651885986,0.06103515625,-0.0457763671875,0.1220703125
2.8099999,9.830592155456543,-0.14844051003456116,-0.10534487664699554,-0.2899169921875,-0.457763671875,0.9002685546875
2.8299999,9.835380554199219,-0.15562310814857483,-0.08619125932455063,0.091552734375,-0.1373291015625,-0.1220703125
2.8499999,9.837775230407715,-0.1604115068912506,-0.06703764945268631,0.579833984375,0.42724609375,-1.2664794921875
2.8699999,9.840168952941895,-0.15562310814857483,-0.047884032130241394,0.091552734375,0.06103515625,-0.91552734375
2.8899999,9.840168952941895,-0.14844051003456116,-0.033518824726343155,-0.0152587890625,-0.7476806640625,-0.2288818359375
2.9099999,9.832986831665039,-0.1388636976480484,-0.021547814831137657,0.0152587890625,-1.190185546875,0.1373291015625
2.9299999,9.825803756713867,-0.1388636976480484,-0.026336219161748886,0.3509521484375,-1.52587890625,-0.1678466796875
2.9499999,9.80904483795166,-0.13407529890537262,-0.035913024097681046,0.823974609375,-1.1444091796875,-1.4190673828125
2.9699999,9.780313491821289,-0.12928688526153564,-0.05746084079146385,0.7781982421875,-0.5340576171875,-1.251220703125
2.9899999,9.75637149810791,-0.1149216815829277,-0.06703764945268631,-0.3662109375,-1.0986328125,0.762939453125
3.0099999,9.734824180603027,-0.09816227108240128,-0.08140286058187485,-0.4119873046875,-1.28173828125,0.640869140625
3.0299999,9.737217903137207,-0.08379705995321274,-0.08140286058187485,-0.4119873046875,-1.5411376953125,0.885009765625
3.0499999,9.758766174316406,-0.08140286058187485,-0.08140286058187485,-0.091552734375,-1.3580322265625,0.91552734375
3.0699999,9.792284965515137,-0.090979665517807,-0.07900865375995636,0.8544921875,-0.3509521484375,-0.152587890625
3.0899999,9.835380554199219,-0.11252748221158981,-0.06224924325942993,0.518798828125,-0.2288818359375,0.5035400390625
3.1099999,9.86889934539795,-0.1412578970193863,-0.0454898327589035,0.732421875,-0.67138671875,-0.274658203125
3.1299999,9.895236015319824,-0.16759411990642548,-0.021547814831137657,0.3814697265625,-1.6937255859375,-0.18310546875
3.1499999,9.9000244140625,-0.1843535304069519,-0.004788403399288654,-0.18310546875,-2.410888671875,-0.091552734375
3.1699999,9.890447616577148,-0.1843535304069519,-0.002394201699644327,0.640869140625,-2.2430419921875,-0.7476806640625
3.1899999,9.859322547912598,-0.17477671802043915,-0.019153613597154617,1.0223388671875,-2.99072265625,0.091552734375
3.2099999,9.823410034179688,-0.16519992053508759,-0.05267243832349777,0.3204345703125,-2.838134765625,0.823974609375
3.2299999,9.78989028930664,-0.1604115068912506,-0.09816227108240128,0.244140625,-1.9378662109375,0.5950927734375
3.2499999,9.773131370544434,-0.15801730751991272,-0.13168109953403473,0.1068115234375,-1.3275146484375,0.0457763671875
3.2699999,9.780313491821289,-0.1604115068912506,-0.1628057211637497,0.2593994140625,-1.46484375,0.5950927734375
3.2899999,9.799467086791992,-0.16519992053508759,-0.16998831927776337,-0.244140625,-1.556396484375,0.9765625
3.3099999,9.818621635437012,-0.16998831927776337,-0.1604115068912506,-0.1373291015625,-0.9307861328125,0.4119873046875
3.3299999000000002,9.835380554199219,-0.16998831927776337,-0.1364694982767105,-0.2593994140625,-0.67138671875,0.5950927734375
3.3499999,9.84256362915039,-0.16759411990642548,-0.10055647045373917,0.1220703125,-1.0223388671875,0.885009765625
3.3699999,9.840168952941895,-0.1628057211637497,-0.06703764945268631,0.9002685546875,-0.79345703125,-0.6866455078125
3.3899999,9.832986831665039,-0.15801730751991272,-0.043095629662275314,0.79345703125,-1.2969970703125,-0.518798828125
3.4099999,9.828198432922363,-0.15562310814857483,-0.033518824726343155,0.274658203125,-1.8310546875,0.3662109375
3.4299999,9.816226959228516,-0.15322890877723694,-0.031124621629714966,0.18310546875,-1.617431640625,-0.2899169921875
3.4499999,9.81143856048584,-0.15322890877723694,-0.043095629662275314,0.91552734375,-2.01416015625,-0.2899169921875
3.4699999,9.801861763000488,-0.15083470940589905,-0.05746084079146385,1.220703125,-2.288818359375,-0.0457763671875
3.4899999,9.794678688049316,-0.15322890877723694,-0.08379705995321274,0.67138671875,-2.5482177734375,0.2593994140625
3.5099999,9.792284965515137,-0.15801730751991272,-0.11252748221158981,0.3814697265625,-2.3193359375,0.2288818359375
3.5299999,9.794678688049316,-0.16998831927776337,-0.14844051003456116,0.6866455078125,-1.4190673828125,-0.3509521484375
3.5499999,9.804255485534668,-0.17956513166427612,-0.16759411990642548,0.213623046875,-1.0223388671875,-0.48828125
3.5699999,9.80904483795166,-0.18914192914962769,-0.17956513166427612,0.7476806640625,-0.8697509765625,-0.2899169921875
3.5899999,9.81143856048584,-0.18914192914962769,-0.17238251864910126,0.9002685546875,-1.068115234375,0.3662109375
3.6099999,9.80904483795166,-0.19153612852096558,-0.15801730751991272,0.335693359375,-1.46484375,1.15966796875
3.6299999,9.813833236694336,-0.19871874153614044,-0.14365209639072418,0.030517578125,-1.1444091796875,0.79345703125
3.6499999,9.821015357971191,-0.20350714027881622,-0.12928688526153564,-0.1983642578125,-0.8697509765625,-0.3662109375
3.6699999,9.830592155456543,-0.2106897532939911,-0.11971008777618408,0.0762939453125,-1.3580322265625,0.1068115234375
3.6899999,9.835380554199219,-0.2059013396501541,-0.11013327538967133,0.0457763671875,-1.6021728515625,0.48828125
3.7099999,9.830592155456543,-0.20350714027881622,-0.11252748221158981,0.4730224609375,-1.3885498046875,0.2288818359375
3.7299999,9.823410034179688,-0.19632454216480255,-0.1173158809542656,-0.030517578125,-1.2664794921875,-0.030517578125
3.7499999,9.81143856048584,-0.18914192914962769,-0.12449848651885986,-0.335693359375,-0.8392333984375,-0.1983642578125
3.7699999,9.804255485534668,-0.1843535304069519,-0.12689268589019775,-0.030517578125,-0.946044921875,0.5950927734375
3.7899999,9.806650161743164,-0.17956513166427612,-0.1173158809542656,-0.274658203125,-1.5716552734375,0.5035400390625
3.8099999,9.818621635437012,-0.17956513166427612,-0.1149216815829277,-0.274658203125,-1.9073486328125,0.213623046875
3.8299999000000002,9.837775230407715,-0.181959331035614,-0.1173158809542656,-0.0762939453125,-1.5716552734375,0.152587890625
3.8499999,9.854534149169922,-0.1843535304069519,-0.12689268589019775,0.2288818359375,-0.640869140625,-0.1983642578125
3.8699999,9.861717224121094,-0.18914192914962769,-0.1412578970193863,0.701904296875,0.2899169921875,-1.068115234375
3.8899999,9.859322547912598,-0.1867477297782898,-0.1412578970193863,0.06103515625,-0.091552734375,-0.4425048828125
3.9099999,9.852140426635742,-0.18914192914962769,-0.13168109953403473,0.2288818359375,-0.762939453125,0.4119873046875
3.9299999,9.840168952941895,-0.1867477297782898,-0.11252748221158981,0.518798828125,-0.42724609375,-0.4425048828125
3.9499999,9.830592155456543,-0.19153612852096558,-0.0933738648891449,0.640869140625,-0.579833984375,-0.6866455078125
3.9699999,9.816226959228516,-0.19632454216480255,-0.08140286058187485,0.7476806640625,-0.946044921875,-0.91552734375
3.9899999,9.804255485534668,-0.20111294090747833,-0.07422025501728058,0.8697509765625,-0.5645751953125,-1.2969970703125
4.0099999,9.787496566772461,-0.20350714027881622,-0.07900865375995636,0.7781982421875,-0.823974609375,-0.79345703125
4.029999900000001,9.773131370544434,-0.20111294090747833,-0.0933738648891449,-0.2593994140625,-1.495361328125,-0.152587890625
4.0499999,9.765948295593262,-0.19632454216480255,-0.1149216815829277,-0.244140625,-1.2054443359375,-0.732421875
4.069999900000001,9.765948295593262,-0.1867477297782898,-0.13168109953403473,0.0457763671875,-0.457763671875,-0.823974609375
4.0899999000000005,9.768342971801758,-0.181959331035614,-0.14365209639072418,0.30517578125,-0.274658203125,-1.007080078125
4.1099999,9.775525093078613,-0.16759411990642548,-0.1388636976480484,-0.0457763671875,-0.3662109375,-0.79345703125
4.1299999000000005,9.77791976928711,-0.1604115068912506,-0.12689268589019775,-0.2288818359375,-0.2899169921875,-0.4119873046875
4.1499999,9.78989028930664,-0.1604115068912506,-0.10534487664699554,0.0152587890625,-0.244140625,-0.4425048828125
4.1699999000000005,9.801861763000488,-0.1628057211637497,-0.08140286058187485,-0.48828125,-0.91552734375,-0.8392333984375
4.1899999,9.813833236694336,-0.17238251864910126,-0.05746084079146385,-0.67138671875,-1.495361328125,-0.8697509765625
4.209999900000001,9.828198432922363,-0.1843535304069519,-0.043095629662275314,-0.4425048828125,-2.0599365234375,-0.091552734375
4.2299999,9.840168952941895,-0.19871874153614044,-0.043095629662275314,0,-2.0294189453125,-0.213623046875
4.249999900000001,9.854534149169922,-0.2059013396501541,-0.05506663769483566,-0.2288818359375,-1.739501953125,-1.1749267578125
4.2699999,9.86889934539795,-0.22026655077934265,-0.08619125932455063,-0.091552734375,-2.1209716796875,-1.220703125
4.289999900000001,9.873687744140625,-0.22266076505184174,-0.12449848651885986,0.2593994140625,-1.6021728515625,-1.4190673828125
4.3099999,9.871294021606445,-0.22026655077934265,-0.16519992053508759,-0.0457763671875,-1.2054443359375,-1.03759765625
4.329999900000001,9.856928825378418,-0.21308395266532898,-0.19632454216480255,-0.91552734375,-0.579833984375,-0.6561279296875
4.3499999,9.849745750427246,-0.20350714027881622,-0.21308395266532898,-0.5035400390625,0.0762939453125,-0.9918212890625
4.369999900000001,9.84256362915039,-0.18914192914962769,-0.20111294090747833,-0.274658203125,-0.0152587890625,-0.8697509765625
4.3899999,9.830592155456543,-0.17238251864910126,-0.17477671802043915,-0.30517578125,0.0152587890625,-1.2969970703125
4.409999900000001,9.816226959228516,-0.15801730751991272,-0.1388636976480484,-0.42724609375,-0.2899169921875,-0.274658203125
4.4299999,9.799467086791992,-0.14604631066322327,-0.11013327538967133,0.0762939453125,-0.42724609375,-0.18310546875
4.449999900000001,9.780313491821289,-0.1388636976480484,-0.090979665517807,0.091552734375,-0.1220703125,-0.9307861328125
4.4699999,9.765948295593262,-0.13407529890537262,-0.08619125932455063,-0.152587890625,-0.0762939453125,-0.6866455078125
4.489999900000001,9.75397777557373,-0.12689268589019775,-0.08379705995321274,-0.67138671875,-0.274658203125,-0.3662109375
4.5099999,9.746794700622559,-0.12210428714752197,-0.08140286058187485,-0.7476806640625,-0.396728515625,0.3204345703125
4.529999900000001,9.751583099365234,-0.1173158809542656,-0.07422025501728058,-0.6561279296875,-0.3814697265625,-0.152587890625
4.5499999,9.770736694335938,-0.11971008777618408,-0.06703764945268631,-0.48828125,-0.579833984375,-0.335693359375
4.569999900000001,9.794678688049316,-0.12449848651885986,-0.06703764945268631,-0.274658203125,-0.91552734375,-0.335693359375
4.5899999000000005,9.823410034179688,-0.13407529890537262,-0.06703764945268631,-0.3509521484375,-0.6866455078125,-0.67138671875
4.609999900000001,9.84495735168457,-0.14365209639072418,-0.07182604819536209,-0.18310546875,-0.2288818359375,-0.518798828125
4.6299999000000005,9.859322547912598,-0.15322890877723694,-0.06703764945268631,-0.54931640625,-0.18310546875,-0.8392333984375
4.6499999,9.86650562286377,-0.15801730751991272,-0.05746084079146385,-0.5645751953125,-0.54931640625,-0.8544921875
4.6699999000000005,9.86889934539795,-0.1604115068912506,-0.043095629662275314,-0.06103515625,-1.190185546875,-0.30517578125
4.6899999,9.861717224121094,-0.1604115068912506,-0.033518824726343155,0.7476806640625,-1.251220703125,-0.6103515625
4.709999900000001,9.849745750427246,-0.15562310814857483,-0.038307227194309235,0.5645751953125,-1.1749267578125,-1.8157958984375
4.7299999,9.832986831665039,-0.15322890877723694,-0.06224924325942993,-0.244140625,-1.312255859375,-0.9765625
4.749999900000001,9.816226959228516,-0.14844051003456116,-0.08858546614646912,-0.7476806640625,-1.0223388671875,0.030517578125
4.7699999,9.81143856048584,-0.14604631066322327,-0.11013327538967133,-0.579833984375,-1.007080078125,0.2288818359375
4.789999900000001,9.813833236694336,-0.1388636976480484,-0.11971008777618408,-0.48828125,-1.007080078125,0.0457763671875
4.8099999,9.828198432922363,-0.1388636976480484,-0.1173158809542656,0.0762939453125,-0.54931640625,-0.5950927734375
4.829999900000001,9.849745750427246,-0.1412578970193863,-0.11252748221158981,0.244140625,-0.3509521484375,-0.9613037109375
4.8499999,9.856928825378418,-0.1388636976480484,-0.10295066982507706,-0.0762939453125,-0.152587890625,-0.885009765625
4.869999900000001,9.856928825378418,-0.12689268589019775,-0.08140286058187485,-0.18310546875,-0.1068115234375,-0.2288818359375
4.8899999,9.84256362915039,-0.09576806426048279,-0.0454898327589035,0.1220703125,-0.579833984375,0.30517578125
4.909999900000001,9.835380554199219,-0.06224924325942993,0.026336219161748886,1.4495849609375,-0.91552734375,1.0528564453125
4.9299999,9.90241813659668,-0.05985504388809204,0.15562310814857483,6.683349609375,2.7923583984375,-0.30517578125
4.949999900000001,10.079588890075684,-0.12210428714752197,0.36152446269989014,13.97705078125,9.0484619140625,-3.23486328125
4.9699999,10.38604736328125,-0.26096799969673157,0.524330198764801,22.9644775390625,14.2364501953125,-7.171630859375
4.989999900000001,10.72602367401123,-0.43095630407333374,0.646434485912323,20.1263427734375,8.6517333984375,-10.650634765625
5.0099999,10.931924819946289,-0.5434837937355042,0.5841852426528931,13.8702392578125,2.3651123046875,-6.28662109375
5.029999900000001,10.881647109985352,-0.5291185975074768,0.33039984107017517,10.2081298828125,-10.101318359375,-8.6517333984375
5.0499999,10.54406452178955,-0.36152446269989014,-0.05027823522686958,2.0599365234375,-17.4560546875,-5.0048828125
5.069999900000001,9.998186111450195,-0.07900865375995636,-0.47884035110473633,-2.74658203125,-13.18359375,-0.6561279296875
5.0899999000000005,9.411606788635254,0.22266076505184174,-0.8619126081466675,-2.74658203125,-11.474609375,-1.64794921875
5.109999900000001,8.944737434387207,0.4213795065879822,-1.0558429956436157,-6.7596435546875,-16.754150390625,-0.54931640625
5.1299999000000005,8.829815864562988,0.35913026332855225,-0.9097966551780701,-4.5013427734375,-3.875732421875,1.8157958984375
5.1499999,9.430760383605957,-0.181959331035614,-0.10773907601833344,-0.1068115234375,11.8255615234375,3.662109375
5.1699999000000005,11.125855445861816,-1.434126853942871,1.5849615335464478,19.744873046875,14.9383544921875,-12.75634765625
5.1899999,14.192827224731445,-3.514688014984131,4.331110954284668,47.607421875,2.7618408203125,-48.4466552734375
5.209999900000001,17.781736373901367,-5.925649166107178,7.690176010131836,48.431396484375,-78.5369873046875,-88.0584716796875
5.2299999,20.4129638671875,-8.073247909545898,10.503362655639648,75.4547119140625,-191.22314453125,-133.3770751953125
5.249999900000001,20.618865966796875,-8.959102630615234,11.501745223999023,138.3056640625,-225.5401611328125,-184.9517822265625
5.2699999,17.62132453918457,-8.147468566894531,9.93593692779541,164.9017333984375,-186.2030029296875,-200.4547119140625
5.289999900000001,12.263101577758789,-5.9735331535339355,5.7987565994262695,168.9605712890625,-135.55908203125,-176.4984130859375
5.3099999,6.00226354598999,-2.9712042808532715,-0.040701430290937424,149.10888671875,-108.306884765625,-152.03857421875
5.329999900000001,-0.033518824726343155,0.2585737705230713,-6.675034523010254,97.930908203125,-99.8687744140625,-140.838623046875
5.3499999,-5.463568210601807,3.4596214294433594,-13.57751750946045,34.271240234375,-90.6219482421875,-103.5614013671875
5.369999900000001,-9.959878921508789,6.478709697723389,-19.43852424621582,-59.8602294921875,-45.745849609375,-33.294677734375
5.3899999,-13.129801750183105,8.908824920654297,-23.171083450317383,-132.6446533203125,33.87451171875,53.1463623046875
5.409999900000001,-14.245500564575195,10.165780067443848,-23.81991195678711,-122.5738525390625,117.919921875,127.0294189453125
5.4299999,-12.935872077941895,9.923966407775879,-21.107282638549805,-98.4344482421875,192.3065185546875,148.773193359375
5.449999900000001,-9.366117477416992,8.068459510803223,-15.686809539794922,-102.325439453125,249.8016357421875,144.9737548828125
5.4699999,-3.598485231399536,4.726154327392578,-8.178592681884766,-108.489990234375,296.1578369140625,143.3258056640625
5.489999900000001,4.553771495819092,-0.033518824726343155,1.5275006294250488,-147.369384765625,266.66259765625,149.84130859375
5.5099999,14.511256217956543,-5.4252610206604,12.567164421081543,-151.79443359375,75.5462646484375,115.386962890625
5.529999900000001,23.527820587158203,-9.840168952941895,22.170307159423828,7.5225830078125,-138.580322265625,-22.8424072265625
5.5499999,29.503747940063477,-12.174515724182129,28.086380004882812,123.931884765625,-233.6578369140625,-117.67578125
5.569999900000001,30.214824676513672,-11.599906921386719,28.17736053466797,163.9404296875,-185.9283447265625,-142.9443359375
5.5899999000000005,25.850194931030273,-8.877699851989746,22.771251678466797,194.6563720703125,-128.814697265625,-160.888671875
5.609999900000001,18.796876907348633,-5.592854976654053,14.21916389465332,181.3507080078125,-148.9105224609375,-138.275146484375
5.6299999000000005,10.99656867980957,-2.7006595134735107,4.865017890930176,105.743408203125,-214.2486572265625,-114.471435546875
5.6499999,3.8067808151245117,-0.4620809257030487,-3.8379054069519043,22.27783203125,-257.080078125,-110.7330322265625
5.6699999000000005,-2.27209734916687,1.4772224426269531,-11.101913452148438,-11.3067626953125,-225.6622314453125,-96.2066650390625
5.6899999,-7.158663272857666,3.4548330307006836,-16.64688491821289,-13.6871337890625,-137.9852294921875,-67.1539306640625
5.709999900000001,-10.852916717529297,5.509057998657227,-20.324378967285156,-39.0625,-45.0897216796875,-18.06640625
5.7299999,-12.952630996704102,7.242460250854492,-21.818359375,-81.3140869140625,36.865234375,62.3626708984375
5.749999900000001,-13.287819862365723,8.200140953063965,-21.054609298706055,-86.48681640625,123.8861083984375,134.674072265625
5.7699999,-11.690886497497559,8.118738174438477,-18.114530563354492,-65.887451171875,199.64599609375,172.1649169921875
5.789999900000001,-8.233659744262695,6.861782073974609,-13.397953033447266,-53.253173828125,264.8468017578125,181.8084716796875
5.8099999,-2.8203697204589844,4.424484729766846,-7.204153060913086,-33.782958984375,342.5140380859375,159.759521484375
5.829999900000001,4.587290287017822,0.9792284965515137,0.6320692300796509,-42.3126220703125,393.8446044921875,101.4862060546875
5.8499999,13.73314094543457,-2.8155810832977295,10.302249908447266,-150.8331298828125,206.1309814453125,75.13427734375
5.869999900000001,22.16551971435547,-5.767632007598877,19.32599639892578,-48.370361328125,-102.1270751953125,22.2320556640625
5.8899999,27.617116928100586,-7.0988078117370605,25.682601928710938,156.8450927734375,-228.5614013671875,-84.5489501953125
5.909999900000001,28.48142433166504,-6.627150535583496,26.97547149658203,219.05517578125,-219.17724609375,-104.217529296875
5.9299999,24.633941650390625,-5.190629482269287,22.512678146362305,250,-151.06201171875,-90.1947021484375
5.949999900000001,18.1097412109375,-3.9193081855773926,14.025233268737793,262.6953125,-110.2447509765625,-106.3385009765625
5.9699999,11.05642318725586,-3.28963303565979,3.9863457679748535,189.300537109375,-125.030517578125,-124.81689453125
5.989999900000001,4.5825018882751465,-3.203441858291626,-5.9519853591918945,99.700927734375,-147.0489501953125,-119.93408203125
6.0099999,-0.7613561153411865,-3.0526070594787598,-14.709975242614746,46.417236328125,-120.513916015625,-68.17626953125
6.029999900000001,-4.927267074584961,-2.3965959548950195,-21.478384017944336,-18.402099609375,-45.34912109375,-29.2816162109375
6.0499999,-7.7643961906433105,-1.2880805730819702,-25.847801208496094,-89.3096923828125,39.9627685546875,5.4931640625
6.069999900000001,-9.107542991638184,0.10295066982507706,-27.183765411376953,-157.9742431640625,101.043701171875,68.90869140625
6.0899999000000005,-8.820239067077637,1.3431471586227417,-25.309106826782227,-196.8841552734375,152.069091796875,113.0828857421875
6.109999900000001,-6.919242858886719,2.1523873805999756,-20.575769424438477,-187.530517578125,213.836669921875,120.3155517578125
6.1299999000000005,-3.315969467163086,2.1499931812286377,-13.30457878112793,-180.3131103515625,288.848876953125,127.4261474609375
6.149999900000001,2.248155355453491,1.2066776752471924,-3.737348794937134,-215.7440185546875,330.8258056640625,118.0419921875
6.1699999000000005,9.765948295593262,-0.49799394607543945,8.039729118347168,-264.1143798828125,208.160400390625,80.38330078125
6.1899999,17.949329376220703,-2.3942017555236816,19.972431182861328,-130.6304931640625,-17.1356201171875,13.702392578125
6.209999900000001,24.392126083374023,-3.6583402156829834,29.326576232910156,95.8251953125,-195.220947265625,-68.9697265625
6.2299999,27.076026916503906,-3.9408559799194336,33.47333526611328,212.34130859375,-241.424560546875,-121.551513671875
6.249999900000001,25.21333885192871,-3.4572272300720215,30.961816787719727,271.575927734375,-188.4002685546875,-132.8277587890625
6.2699999,20.05622673034668,-3.050212860107422,23.142353057861328,300.72021484375,-134.9334716796875,-126.6021728515625
6.289999900000001,13.675680160522461,-3.3303346633911133,12.354081153869629,287.689208984375,-127.25830078125,-126.5106201171875
6.3099999,7.910442352294922,-4.28322696685791,0.9265560507774353,221.7864990234375,-138.8702392578125,-134.1705322265625
6.329999900000001,3.308786630630493,-5.738901615142822,-9.885659217834473,178.6346435546875,-102.47802734375,-109.0850830078125
6.3499999,0.08140286058187485,-7.007828235626221,-19.160797119140625,135.894775390625,-52.5360107421875,-78.55224609375
6.369999900000001,-2.169146776199341,-7.625532627105713,-25.936386108398438,-8.9874267578125,-3.021240234375,-82.51953125
6.3899999,-3.428496837615967,-7.264008045196533,-29.40558433532715,-146.6522216796875,49.9114990234375,-71.7926025390625
6.409999900000001,-3.8570590019226074,-5.628767967224121,-29.084762573242188,-218.1854248046875,75.0732421875,-29.1748046875
6.4299999,-3.3949780464172363,-3.00711727142334,-25.014619827270508,-253.3721923828125,91.1865234375,-3.8604736328125
6.449999900000001,-1.7860745191574097,0.3232172429561615,-18.27733612060547,-257.7362060546875,156.341552734375,2.5177001953125
6.4699999,0.5602431893348694,3.758896589279175,-10.113107681274414,-229.4769287109375,236.297607421875,-31.463623046875
6.489999900000001,3.2393548488616943,6.9455790519714355,-1.4484920501708984,-192.87109375,300.1861572265625,-102.020263671875
6.5099999,5.904101371765137,9.739612579345703,7.568071365356445,-208.0535888671875,267.8985595703125,-110.321044921875
6.529999900000001,7.886500358581543,11.942277908325195,16.09382438659668,-151.1383056640625,101.5472412109375,-68.17626953125
6.5499999,8.942343711853027,13.26866626739502,23.168689727783203,-9.4451904296875,-82.0465087890625,-30.0445556640625
6.569999900000001,8.916007041931152,13.5870943069458,27.5333194732666,99.9298095703125,-154.4952392578125,-1.6326904296875
6.5899999000000005,7.644686222076416,12.701239585876465,27.863719940185547,190.704345703125,-160.46142578125,7.049560546875
6.609999900000001,5.556941986083984,10.654197692871094,24.583663940429688,237.6251220703125,-153.076171875,31.9366455078125
6.6299999000000005,3.224989652633667,7.580042362213135,18.83279037475586,286.956787109375,-72.906494140625,56.45751953125
6.649999900000001,1.6160861253738403,3.648763418197632,12.109871864318848,359.0850830078125,22.9034423828125,69.64111328125
6.6699999000000005,1.4389152526855469,-0.8858546018600464,5.829881191253662,378.448486328125,49.1943359375,114.0289306640625
6.6899999,3.3423056602478027,-5.748478412628174,0.6224924325942993,382.8277587890625,63.6749267578125,159.72900390625
6.709999900000001,7.146692276000977,-10.448296546936035,-3.485957622528076,397.4761962890625,90.4083251953125,119.32373046875
6.7299999,12.006921768188477,-14.408306121826172,-6.581660270690918,354.1259765625,39.9322509765625,39.5660400390625
6.749999900000001,16.452953338623047,-17.12333106994629,-9.14345645904541,279.1595458984375,-82.275390625,-9.4757080078125
6.7699999,18.63646697998047,-18.23423957824707,-12.0021333694458,225.89111328125,-171.630859375,-80.3070068359375
6.789999900000001,17.695545196533203,-17.362751007080078,-15.210363388061523,106.658935546875,-151.2908935546875,-128.753662109375
6.8099999,13.874399185180664,-14.724340438842773,-18.09537696838379,-101.3336181640625,-58.380126953125,-100.03662109375
6.829999900000001,8.49941635131836,-10.565611839294434,-19.840749740600586,-263.3056640625,-11.3372802734375,-61.4471435546875
6.8499999,3.3255462646484375,-5.669469833374023,-19.469648361206055,-317.8558349609375,-2.960205078125,-38.6199951171875
6.869999900000001,-0.5434837937355042,-0.8331822156906128,-17.19515609741211,-312.4542236328125,16.66259765625,-22.5067138671875
6.8899999,-2.7557260990142822,3.1268274784088135,-13.565546989440918,-329.742431640625,52.1087646484375,-22.2930908203125
6.909999900000001,-3.5625722408294678,6.00226354598999,-9.495404243469238,-344.573974609375,113.7237548828125,-18.5394287109375
6.9299999,-3.2345664501190186,7.819462776184082,-5.003881454467773,-361.63330078125,123.1842041015625,11.4288330078125
6.949999900000001,-2.164358377456665,8.980650901794434,0.2968810200691223,-362.7777099609375,112.213134765625,28.472900390625
6.9699999,-0.4381389021873474,9.797073364257812,6.7277069091796875,-272.5372314453125,171.051025390625,14.9078369140625
6.989999900000001,1.7597382068634033,10.319009780883789,14.267047882080078,-146.148681640625,212.2802734375,5.9356689453125
7.0099999,4.072536945343018,10.524910926818848,21.777658462524414,-11.3525390625,123.4283447265625,53.8787841796875
7.029999900000001,5.9304375648498535,10.019734382629395,27.10236358642578,165.5426025390625,-3.875732421875,116.912841796875
7.0499999,7.146692276000977,8.47786808013916,28.73760223388672,294.0673828125,-70.3582763671875,160.3851318359375
7.069999900000001,7.893682956695557,5.592854976654053,26.17820167541504,343.597412109375,-44.37255859375,188.65966796875
7.0899999000000005,8.738836288452148,1.4748282432556152,20.2956485748291,372.8790283203125,24.9176025390625,169.6624755859375
7.109999900000001,10.591948509216309,-3.622427225112915,13.15853214263916,371.2005615234375,44.1131591796875,130.1116943359375
7.1299999000000005,13.455413818359375,-8.923190116882324,5.880159378051758,355.316162109375,0.1678466796875,97.869873046875
7.149999900000001,16.58942413330078,-13.654131889343262,-0.5722141861915588,278.4423828125,-110.4583740234375,66.7572021484375
7.1699999000000005,18.753782272338867,-17.108964920043945,-6.426037311553955,204.4219970703125,-177.5360107421875,32.6690673828125
7.1899999,18.91179847717285,-18.686744689941406,-11.602301597595215,123.504638671875,-159.7747802734375,-29.9835205078125
7.209999900000001,16.66364288330078,-18.061857223510742,-15.966931343078613,-7.14111328125,-107.7880859375,-82.3516845703125
7.2299999,12.710816383361816,-15.298949241638184,-19.13924789428711,-152.40478515625,-70.6634521484375,-81.939697265625
7.249999900000001,8.214506149291992,-10.821791648864746,-20.489578247070312,-269.378662109375,-36.43798828125,-59.50927734375
7.2699999,4.228160381317139,-5.386953830718994,-19.840749740600586,-315.0634765625,-1.6021728515625,-59.0362548828125
7.289999900000001,1.45806884765625,0.05027823522686958,-17.166425704956055,-321.4874267578125,43.487548828125,-68.8934326171875
7.3099999,0.14604631066322327,4.8051629066467285,-12.90714168548584,-307.281494140625,126.6937255859375,-78.6895751953125
7.329999900000001,0.0454898327589035,8.492233276367188,-7.0126166343688965,-327.789306640625,160.552978515625,-89.90478515625
7.3499999,0.7326257228851318,11.14500904083252,0.3734954595565796,-310.8062744140625,147.5067138671875,-99.884033203125
7.369999900000001,1.7334020137786865,12.96460247039795,9.296685218811035,-217.8955078125,160.9039306640625,-99.8687744140625
7.3899999,2.580949544906616,14.118607521057129,18.52393913269043,-79.9102783203125,128.5858154296875,-66.925048828125
7.409999900000001,2.8227639198303223,14.338873863220215,25.615564346313477,95.21484375,-25.787353515625,33.5540771484375
7.4299999,2.5043349266052246,13.37161636352539,28.80224609375,218.1396484375,-147.76611328125,147.003173828125
7.449999900000001,1.9943699836730957,10.931924819946289,27.348966598510742,267.4713134765625,-118.3624267578125,175.750732421875
7.4699999,1.968033790588379,7.101202011108398,22.11045265197754,306.1981201171875,-19.4854736328125,168.6553955078125
7.489999900000001,3.0621838569641113,2.2457611560821533,15.229516983032227,332.94677734375,-1.9073486328125,181.427001953125
7.5099999,5.453991413116455,-2.8802247047424316,8.209717750549316,310.3485107421875,-20.6756591796875,168.1060791015625
7.529999900000001,8.911218643188477,-7.807491779327393,1.7310078144073486,234.0850830078125,-78.887939453125,137.908935546875
7.5499999,12.550405502319336,-12.0021333694458,-4.242525577545166,164.337158203125,-145.2789306640625,102.6763916015625
7.569999900000001,15.411476135253906,-14.867992401123047,-9.983820915222168,114.5477294921875,-167.1142578125,39.459228515625
7.5899999000000005,16.792930603027344,-15.863980293273926,-15.284584045410156,28.0914306640625,-125.42724609375,-21.54541015625
7.609999900000001,16.10818862915039,-14.465766906738281,-19.55344581604004,-104.79736328125,-81.0394287109375,-51.6510009765625
7.6299999000000005,13.886369705200195,-10.465055465698242,-21.894973754882812,-236.114501953125,-89.8895263671875,-30.2734375
7.649999900000001,10.656591415405273,-4.299986362457275,-21.63161277770996,-295.5474853515625,-85.723876953125,-25.2685546875
7.6699999000000005,7.307103633880615,2.8227639198303223,-18.444929122924805,-308.4716796875,-30.242919921875,-73.1964111328125
7.6899999,4.49870491027832,9.682151794433594,-12.923900604248047,-243.408203125,65.0787353515625,-84.3048095703125
7.709999900000001,2.4468741416931152,14.872780799865723,-5.8203043937683105,-156.0211181640625,101.74560546875,-59.5245361328125
7.7299999,1.235408067703247,17.62371826171875,1.6280571222305298,-82.977294921875,64.4073486328125,-4.21142578125
7.749999900000001,0.8643068075180054,17.535133361816406,8.492233276367188,-32.2113037109375,-0.0457763671875,64.5904541015625
7.7699999,1.0103530883789062,15.078681945800781,13.48653793334961,49.5758056640625,-19.8211669921875,97.3358154296875
7.789999900000001,1.3048399686813354,10.831368446350098,16.086641311645508,128.7841796875,-40.3289794921875,105.40771484375
7.8099999,1.6687586307525635,5.595249176025391,16.474502563476562,141.90673828125,-54.168701171875,134.5062255859375
7.829999900000001,1.9129672050476074,0.16998831927776337,14.808137893676758,166.534423828125,-53.955078125,160.2325439453125
7.8499999,2.410961151123047,-4.955997467041016,11.932701110839844,210.3118896484375,-42.2210693359375,176.94091796875
7.869999900000001,3.576937437057495,-9.679757118225098,8.372523307800293,247.4517822265625,-0.579833984375,173.9349365234375
7.8899999,5.456385612487793,-13.39555835723877,4.711789131164551,243.2708740234375,59.0972900390625,122.772216796875
7.909999900000001,8.04691219329834,-16.22311019897461,1.4293384552001953,191.192626953125,70.6024169921875,75.6072998046875
7.9299999,10.953473091125488,-17.853561401367188,-1.2617442607879639,183.1512451171875,64.453125,58.074951171875
7.949999900000001,13.769054412841797,-18.600553512573242,-3.509899616241455,179.443359375,25.2532958984375,59.7686767578125
7.9699999,16.081851959228516,-18.502389907836914,-5.894524574279785,116.0430908203125,-37.17041015625,34.027099609375
7.989999900000001,17.606958389282227,-17.56865119934082,-8.501810073852539,5.3253173828125,-50.140380859375,-39.7491455078125
8.0099999,18.236635208129883,-15.818490982055664,-11.252747535705566,-63.9495849609375,-15.44189453125,-86.7462158203125
8.0299999,17.86313819885254,-13.172897338867188,-13.646949768066406,-93.2769775390625,5.9661865234375,-93.963623046875
8.049999900000001,16.66364288330078,-9.926360130310059,-15.04516315460205,-139.678955078125,16.815185546875,-76.7822265625
8.069999900000001,14.901511192321777,-6.469132900238037,-15.15769100189209,-216.644287109375,16.9219970703125,-49.407958984375
8.0899999,12.78264331817627,-3.1675288677215576,-13.991714477539062,-273.3001708984375,-5.706787109375,-39.9322509765625
8.1099999,10.793061256408691,-0.2753331959247589,-11.437101364135742,-297.1038818359375,-18.280029296875,-37.261962890625
8.129999900000001,9.059659004211426,2.123656988143921,-7.728483200073242,-292.144775390625,4.669189453125,-52.5054931640625
8.149999900000001,7.793126583099365,3.8570590019226074,-3.313575267791748,-281.0821533203125,14.6942138671875,-82.794189453125
8.1699999,7.3693528175354,4.929661273956299,2.3080103397369385,-316.4520263671875,10.8489990234375,-89.4775390625
8.1899999,7.781155586242676,5.475539207458496,8.927978515625,-327.178955078125,0,-89.0045166015625
8.2099999,8.497021675109863,5.853823184967041,15.411476135253906,-204.0557861328125,-117.2332763671875,-118.4234619140625
8.229999900000001,8.710105895996094,6.179434776306152,20.28607177734375,-64.1326904296875,-279.815673828125,-113.1744384765625
8.2499999,7.829039573669434,6.596025466918945,22.05299186706543,-39.093017578125,-350.3265380859375,-51.361083984375
8.2699999,5.580883979797363,6.8593878746032715,20.092140197753906,-13.9617919921875,-326.2939453125,-15.0604248046875
8.2899999,2.674323320388794,6.754043102264404,15.492878913879395,48.9044189453125,-282.5775146484375,-22.186279296875
8.309999900000001,-0.10773907601833344,6.167463779449463,9.727641105651855,108.6578369140625,-245.6817626953125,-16.754150390625
8.3299999,-2.1930887699127197,4.991910457611084,3.581725835800171,151.5045166015625,-185.6842041015625,1.6632080078125
8.3499999,-3.3231520652770996,3.294421434402466,-3.184288263320923,160.675048828125,-131.3018798828125,15.0909423828125
8.3699999,-3.687070608139038,1.2210428714752197,-10.558429718017578,79.8797607421875,-139.34326171875,78.8116455078125
8.389999900000001,-3.7038300037384033,-0.6368576288223267,-18.025943756103516,-14.0838623046875,-137.4664306640625,115.7989501953125
8.4099999,-3.799597978591919,-1.965639591217041,-24.6171817779541,-12.359619140625,10.31494140625,43.0908203125
8.4299999,-3.8067808151245117,-2.5234885215759277,-28.526912689208984,2.5177001953125,174.74365234375,2.3956298828125
8.4499999,-3.8379054069519043,-2.2816741466522217,-28.960264205932617,-62.1185302734375,224.8382568359375,24.9481201171875
8.469999900000001,-3.2824504375457764,-1.525106430053711,-26.00581932067871,-100.616455078125,272.2320556640625,59.6466064453125
8.4899999,-2.231395959854126,-0.45010992884635925,-20.65956687927246,-87.2344970703125,328.094482421875,51.0711669921875
8.5099999,-0.7230489253997803,0.8667010068893433,-14.393940925598145,-68.17626953125,346.4508056640625,41.8548583984375
8.5299999,1.0989385843276978,2.169146776199341,-8.422801971435547,-70.5413818359375,338.6993408203125,69.88525390625
8.549999900000001,3.160346269607544,3.1866824626922607,-3.3255462646484375,-50.5828857421875,342.437744140625,93.6279296875
8.569999900000001,5.588066577911377,3.56017804145813,1.2689268589019775,-40.58837890625,386.1083984375,109.4970703125
8.5899999,8.580819129943848,3.2178070545196533,5.815515995025635,-58.89892578125,386.0626220703125,87.8753662109375
8.6099999,11.75792407989502,2.2194249629974365,11.379640579223633,-160.64453125,254.486083984375,22.3846435546875
8.629999900000001,15.231911659240723,0.8930372595787048,18.52393913269043,-246.368408203125,76.66015625,-14.0380859375
8.649999900000001,17.583017349243164,0.08140286058187485,25.368961334228516,-70.1446533203125,-89.6453857421875,-62.591552734375
8.6699999,18.04270362854004,-0.2082955539226532,30.289045333862305,175.1708984375,-208.4503173828125,-100.860595703125
8.6899999,16.201562881469727,0.07182604819536209,31.34728240966797,237.701416015625,-253.5552978515625,-78.094482421875
8.709999900000001,12.318167686462402,0.2944868206977844,27.629087448120117,278.2135009765625,-235.53466796875,-47.027587890625
8.729999900000001,7.627926826477051,-0.35913026332855225,20.578163146972656,326.8585205078125,-197.662353515625,-2.2735595703125
8.7499999,3.4524388313293457,-2.0590133666992188,11.892000198364258,336.5020751953125,-168.45703125,30.2886962890625
8.7699999,0.40701428055763245,-4.608838081359863,2.937685489654541,288.4368896484375,-165.9088134765625,16.2200927734375
8.7899999,-0.9672574996948242,-7.398083209991455,-5.20978307723999,188.4918212890625,-161.2701416015625,8.758544921875
8.809999900000001,-1.0582371950149536,-9.730035781860352,-12.136208534240723,106.231689453125,-132.62939453125,25.0396728515625
8.8299999,-0.17956513166427612,-11.190498352050781,-17.542316436767578,97.0001220703125,-54.1229248046875,14.70947265625
8.8499999,1.1061211824417114,-11.647790908813477,-21.533449172973633,81.11572265625,50.2777099609375,-13.36669921875
8.8699999,2.3918075561523438,-10.939107894897461,-23.77202796936035,-18.8751220703125,127.9144287109375,-19.8516845703125
8.889999900000001,3.44765043258667,-8.983044624328613,-24.18143653869629,-136.5966796875,158.111572265625,-13.702392578125
8.9099999,4.383783340454102,-6.038176536560059,-22.376209259033203,-198.6541748046875,166.7327880859375,-4.7149658203125
8.9299999,5.456385612487793,-2.5091233253479004,-18.339584350585938,-208.1146240234375,178.4515380859375,-0.396728515625
8.9499999,6.919242858886719,1.0127472877502441,-12.49055004119873,-202.6519775390625,193.5272216796875,-7.843017578125
8.969999900000001,8.767566680908203,4.082113742828369,-5.355829238891602,-238.46435546875,201.4312744140625,-32.16552734375
8.9899999,10.81700325012207,6.44279670715332,2.4612393379211426,-264.068603515625,142.9901123046875,-46.539306640625
9.0099999,12.78503704071045,8.056488990783691,10.15141487121582,-182.9833984375,38.3758544921875,-30.2581787109375
9.0299999,14.176068305969238,8.774748802185059,16.847997665405273,-41.961669921875,-18.890380859375,-30.8837890625
9.049999900000001,14.714763641357422,8.528146743774414,21.365856170654297,88.43994140625,-49.9420166015625,-39.0167236328125
9.069999900000001,14.020444869995117,7.4100542068481445,22.922086715698242,170.2117919921875,-93.719482421875,-43.914794921875
9.0899999,12.162544250488281,5.494692802429199,21.471200942993164,208.343505859375,-145.99609375,-43.701171875
9.1099999,9.473855972290039,2.8562827110290527,17.463306427001953,253.021240234375,-154.052734375,-24.7344970703125
9.129999900000001,6.995857238769531,-0.5219359993934631,11.956643104553223,295.47119140625,-114.1815185546875,20.4620361328125
9.149999900000001,5.552153587341309,-4.326322555541992,5.858611583709717,282.3944091796875,-67.3370361328125,33.0657958984375
9.1699999,5.5545477867126465,-8.092401504516602,0.10295066982507706,217.10205078125,-66.89453125,-14.9383544921875
9.1899999,7.117961883544922,-11.343728065490723,-4.999093055725098,170.5169677734375,-85.87646484375,-33.3404541015625
9.209999900000001,9.191340446472168,-13.474567413330078,-9.294290542602539,162.0635986328125,-92.529296875,-49.896240234375
9.229999900000001,11.03248119354248,-14.109030723571777,-13.098677635192871,103.3782958984375,-97.0001220703125,-55.1300048828125
9.2499999,11.93748950958252,-13.093889236450195,-16.134525299072266,-12.5579833984375,-76.568603515625,-50.201416015625
9.2699999,11.671732902526855,-10.402806282043457,-18.10734748840332,-104.8583984375,-42.5567626953125,-53.497314453125
9.2899999,10.488997459411621,-6.370970726013184,-18.495208740234375,-142.9443359375,-7.4310302734375,-55.3436279296875
9.309999900000001,8.798690795898438,-1.764526605606079,-16.979679107666016,-159.0423583984375,15.350341796875,-74.3560791015625
9.3299999,7.115567684173584,2.626439332962036,-13.998897552490234,-185.3179931640625,28.01513671875,-78.7200927734375
9.3499999,5.8203043937683105,6.236895561218262,-10.103530883789062,-205.902099609375,45.5322265625,-57.7239990234375
9.3699999,5.137956619262695,8.820239067077637,-5.585672378540039,-216.0491943359375,67.291259765625,-50.59814453125
9.389999900000001,5.1810526847839355,10.457873344421387,-0.4620809257030487,-219.3450927734375,103.4088134765625,-94.0399169921875
9.4099999,5.4875102043151855,11.441889762878418,5.22175407409668,-149.71923828125,126.7242431640625,-162.7349853515625
9.4299999,5.480327606201172,12.085929870605469,10.797849655151367,-11.7645263671875,100.7843017578125,-189.2242431640625
9.4499999,4.745307922363281,12.20803451538086,15.126565933227539,117.6300048828125,19.83642578125,-116.27197265625
9.469999900000001,3.4955344200134277,11.537657737731934,16.972496032714844,189.0869140625,-82.183837890625,11.871337890625
9.4899999,2.2218191623687744,9.713275909423828,15.830461502075195,216.61376953125,-133.4686279296875,93.048095703125
9.5099999,1.5753847360610962,6.574477672576904,12.085929870605469,242.5384521484375,-118.408203125,105.1788330078125
9.5299999,1.9608511924743652,2.5929205417633057,6.739677906036377,268.6614990234375,-66.0247802734375,79.2083740234375
9.549999900000001,3.098097085952759,-1.5322890281677246,0.8834604024887085,255.615234375,-20.416259765625,39.9017333984375
9.569999900000001,4.5394062995910645,-5.202600479125977,-4.960785865783691,215.0726318359375,-6.744384765625,34.72900390625
9.5899999,6.0597243309021,-8.078036308288574,-10.232817649841309,146.636962890625,-3.7384033203125,85.4339599609375
9.6099999,7.1490864753723145,-9.979032516479492,-14.827291488647461,58.563232421875,-2.7313232421875,80.657958984375
9.629999900000001,7.675810813903809,-10.663774490356445,-18.17438507080078,-51.422119140625,7.6446533203125,27.77099609375
9.649999900000001,7.728483200073242,-9.945513725280762,-19.838356018066406,-163.2232666015625,25.726318359375,7.5836181640625
9.6699999,7.405265808105469,-7.752425193786621,-19.467254638671875,-229.18701171875,64.7125244140625,19.6075439453125
9.6899999,7.2137298583984375,-4.402936935424805,-16.984466552734375,-265.899658203125,93.353271484375,32.928466796875
9.709999900000001,7.527369976043701,-0.4908113479614258,-12.634202003479004,-298.76708984375,126.4190673828125,30.487060546875
9.729999900000001,8.523358345031738,3.3494882583618164,-6.885724067687988,-302.1240234375,148.895263671875,8.3465576171875
9.7499999,9.871294021606445,6.63433313369751,-0.31124621629714966,-261.0015869140625,117.9351806640625,-26.580810546875
9.7699999,11.226411819458008,9.165003776550293,6.301538944244385,-171.8597412109375,63.812255859375,-31.8756103515625
9.7899999,11.999738693237305,10.807426452636719,11.860875129699707,-64.2852783203125,6.6986083984375,-29.510498046875
9.809999900000001,11.863269805908203,11.4849853515625,15.296554565429688,36.6668701171875,-82.977294921875,-8.8043212890625
9.8299999,10.644620895385742,11.188104629516602,16.091428756713867,96.5423583984375,-159.1644287109375,20.6756591796875
9.8499999,8.49941635131836,9.904812812805176,14.247894287109375,144.4549560546875,-185.8367919921875,39.0625
9.8699999,5.896918773651123,7.630321025848389,10.261548042297363,209.2742919921875,-139.58740234375,48.5992431640625
9.889999900000001,3.6727054119110107,4.486733913421631,5.137956619262695,211.3494873046875,-82.6568603515625,82.9315185546875
9.9099999,2.604891538619995,0.6943184733390808,-0.35673606395721436,156.6162109375,-50.3997802734375,120.3460693359375
9.9299999,2.8227639198303223,-3.222595453262329,-5.5329999923706055,133.8043212890625,-33.0352783203125,94.024658203125
9.9499999,4.0749311447143555,-6.780379295349121,-10.139444351196289,130.7525634765625,-22.491455078125,36.529541015625
9.969999900000001,5.635950565338135,-9.29189682006836,-13.883975982666016,65.5364990234375,-21.0723876953125,16.5252685546875
9.9899999,6.660669326782227,-10.220847129821777,-16.622941970825195,-49.407958984375,15.19775390625,26.885986328125
10.0099999,7.201758861541748,-9.334992408752441,-18.018762588500977,-130.0506591796875,84.930419921875,48.583984375
10.0299999,7.15387487411499,-6.904877662658691,-17.74821662902832,-167.2821044921875,145.660400390625,27.8472900390625
10.049999900000001,7.134721279144287,-3.3949780464172363,-15.758635520935059,-193.0999755859375,176.2237548828125,5.1116943359375
10.069999900000001,7.467514991760254,0.42377370595932007,-11.966219902038574,-259.368896484375,200.439453125,15.3656005859375
10.0899999,8.51138687133789,3.8762125968933105,-6.121973514556885,-337.4481201171875,218.3990478515625,16.357421875
10.1099999,10.06043529510498,6.629544734954834,1.1779472827911377,-281.036376953125,179.7943115234375,-26.8707275390625
10.129999900000001,11.791443824768066,8.439560890197754,9.023746490478516,-112.060546875,84.9609375,-40.52734375
10.149999900000001,12.923900604248047,9.162610054016113,15.559916496276855,39.2303466796875,-23.773193359375,-29.571533203125
10.1699999,12.787431716918945,8.760383605957031,18.739416122436523,149.9176025390625,-100.0213623046875,-10.772705078125
10.1899999,11.528080940246582,7.3023152351379395,17.822437286376953,165.008544921875,-135.009765625,32.3028564453125
10.209999900000001,9.404424667358398,4.982333660125732,13.350069046020508,127.5787353515625,-98.1903076171875,65.36865234375
10.229999900000001,7.33583402633667,2.209848165512085,6.89530086517334,100.09765625,-51.4984130859375,64.910888671875
10.2499999,5.767632007598877,-0.49799394607543945,0.26815059781074524,94.2840576171875,-24.23095703125,37.2161865234375
10.2699999,5.058948040008545,-2.717418909072876,-5.147533416748047,59.0667724609375,-11.1083984375,31.585693359375
10.2899999,5.0876784324646,-4.132391929626465,-8.80587387084961,5.0811767578125,9.9945068359375,50.0640869140625
10.309999900000001,5.671864032745361,-4.680664539337158,-10.611102104187012,-39.3218994140625,25.2532958984375,63.4918212890625
10.3299999,6.560112476348877,-4.46518611907959,-10.900800704956055,-52.9327392578125,32.8216552734375,56.7169189453125
10.3499999,7.513004779815674,-3.77565598487854,-10.089165687561035,-60.7757568359375,52.9022216796875,39.6270751953125
10.3699999,8.487444877624512,-2.9281086921691895,-8.712499618530273,-80.1849365234375,70.0225830078125,48.7060546875
10.389999900000001,9.306262016296387,-2.0254945755004883,-7.225700855255127,-90.789794921875,74.371337890625,64.1937255859375
10.4099999,9.967061996459961,-1.137245774269104,-5.978321552276611,-75.0885009765625,94.29931640625,69.4122314453125
10.4299999,10.371682167053223,-0.15801730751991272,-5.327098846435547,-52.947998046875,103.2257080078125,71.8994140625
10.4499999,10.407594680786133,0.9409212470054626,-5.066130638122559,-88.104248046875,87.860107421875,72.998046875
10.469999900000001,10.11550235748291,2.0901381969451904,-4.99669885635376,-116.8975830078125,79.5135498046875,72.906494140625
10.4899999,9.708487510681152,3.1459810733795166,-4.355052947998047,-99.334716796875,111.5264892578125,61.6455078125
10.5099999,9.320627212524414,3.9671921730041504,-2.980781078338623,-64.3768310546875,146.026611328125,51.9561767578125
10.5299999,9.081207275390625,4.393360137939453,-0.9672574996948242,-67.81005859375,123.53515625,55.4351806640625
10.549999900000001,9.119514465332031,4.299986362457275,1.7118542194366455,-117.24853515625,79.3914794921875,55.084228515625
10.569999900000001,9.344569206237793,3.663128614425659,4.6040496826171875,-113.9373779296875,50.9796142578125,33.8897705078125
10.5899999,9.785101890563965,2.540247917175293,7.493851184844971,-40.283203125,42.8009033203125,16.632080078125
10.6099999,10.237606048583984,1.2689268589019775,9.931148529052734,29.6630859375,48.4466552734375,1.495361328125
10.629999900000001,10.606313705444336,0.12928688526153564,11.413159370422363,29.8614501953125,45.8526611328125,10.4827880859375
10.649999900000001,10.718840599060059,-0.6033388376235962,11.72201156616211,2.01416015625,15.045166015625,31.2652587890625
10.6699999,10.508151054382324,-0.8643068075180054,10.982203483581543,-7.659912109375,-37.261962890625,44.921875
10.6899999,10.077195167541504,-0.8547300100326538,9.53849983215332,9.7808837890625,-72.5250244140625,52.9632568359375
10.709999900000001,9.5408935546875,-0.8475474119186401,7.60637903213501,31.1737060546875,-62.591552734375,58.1512451171875
10.729999900000001,9.030928611755371,-0.993593692779541,5.580883979797363,26.8402099609375,-35.8734130859375,53.77197265625
10.7499999,8.674192428588867,-1.3263877630233765,3.7229835987091064,20.6756591796875,-26.3824462890625,39.73388671875
10.7699999,8.398859977722168,-1.7860745191574097,2.3127987384796143,28.2135009765625,-25.177001953125,29.96826171875
10.7899999,8.214506149291992,-2.3056161403656006,1.41257905960083,37.7349853515625,-8.9569091796875,27.587890625
10.809999900000001,8.11634349822998,-2.8874073028564453,1.0558429956436157,26.8402099609375,20.3857421875,25.0396728515625
10.8299999,8.157045364379883,-3.579331636428833,1.1659762859344482,3.7384033203125,28.961181640625,15.472412109375
10.8499999,8.307879447937012,-4.273650169372559,1.7118542194366455,-17.0135498046875,2.5177001953125,16.143798828125
10.8699999,8.463502883911133,-4.881777286529541,2.6240451335906982,-22.4609375,-16.4947509765625,21.54541015625
10.889999900000001,8.69095230102539,-5.319916248321533,3.8355112075805664,-29.5867919921875,-24.078369140625,50.1861572265625
10.9099999,8.892065048217773,-5.612008571624756,5.044582843780518,-16.78466796875,-35.7208251953125,37.04833984375
10.9299999,9.27034854888916,-5.813121795654297,6.14831018447876,-3.23486328125,-60.85205078125,22.9644775390625
10.9499999,9.648633003234863,-5.896918773651123,6.8162922859191895,24.35302734375,-77.667236328125,-2.777099609375
10.969999900000001,9.895236015319824,-5.889736175537109,6.861782073974609,56.7626953125,-79.9407958984375,-9.33837890625
10.9899999,9.864110946655273,-5.801150798797607,6.22731876373291,77.484130859375,-82.4127197265625,-4.8980712890625
11.0099999,9.545681953430176,-5.621585369110107,5.056553840637207,84.1217041015625,-82.3211669921875,-4.364013671875
11.0299999,9.059659004211426,-5.446808815002441,3.6176388263702393,100.15869140625,-51.8035888671875,-20.843505859375
11.049999900000001,8.5903959274292,-5.2672438621521,2.2433669567108154,106.3232421875,-27.7557373046875,-31.8450927734375
11.069999900000001,8.192957878112793,-5.082890033721924,1.137245774269104,98.876953125,-33.447265625,-20.56884765625
11.0899999,7.955932140350342,-4.896142482757568,0.4405331015586853,93.017578125,-36.4990234375,-11.688232421875
11.1099999,7.910442352294922,-4.692635536193848,0.1604115068912506,93.841552734375,-26.85546875,-20.294189453125
11.129999900000001,8.010998725891113,-4.570530891418457,0.15083470940589905,96.13037109375,-36.6668701171875,-13.153076171875
11.149999900000001,8.185775756835938,-4.4508209228515625,0.23942017555236816,95.6878662109375,-48.6907958984375,-3.3416748046875
11.1699999,8.429984092712402,-4.4532151222229,0.3232172429561615,88.80615234375,-47.7142333984375,1.52587890625
11.1899999,8.698134422302246,-4.486733913421631,0.304063618183136,86.8988037109375,-48.2940673828125,11.4593505859375
11.209999900000001,8.944737434387207,-4.572925090789795,0.17717093229293823,87.677001953125,-65.91796875,-1.0833740234375
11.229999900000001,9.205705642700195,-4.649539470672607,-0.0454898327589035,89.17236328125,-65.5975341796875,-11.9781494140625
11.2499999,9.452308654785156,-4.726154327392578,-0.3495534360408783,81.5887451171875,-60.6231689453125,-0.6561279296875
11.2699999,9.653421401977539,-4.757278919219971,-0.6775590777397156,73.8067626953125,-53.1768798828125,-2.197265625
11.2899999,9.835380554199219,-4.766855716705322,-0.9265560507774353,74.6917724609375,-40.740966796875,-11.1846923828125
11.309999900000001,9.871294021606445,-4.69024133682251,-1.072602391242981,80.3375244140625,-26.1383056640625,-27.6641845703125
11.3299999,9.832986831665039,-4.517858505249023,-1.1492167711257935,72.75390625,-35.33935546875,-19.53125
11.3499999,9.651026725769043,-4.333505153656006,-1.2282254695892334,59.2041015625,-60.302734375,-7.781982421875
11.3699999,9.399636268615723,-4.168305397033691,-1.3287819623947144,54.6722412109375,-62.7899169921875,-19.2108154296875
11.389999900000001,9.093177795410156,-4.02465295791626,-1.4460978507995605,58.074951171875,-39.7186279296875,-24.658203125
11.4099999,8.798690795898438,-3.9001545906066895,-1.534683346748352,58.746337890625,-25.4669189453125,-21.8658447265625
11.4299999,8.576030731201172,-3.756502389907837,-1.5897499322891235,53.7109375,-30.7464599609375,-19.10400390625
11.4499999,8.49941635131836,-3.598485231399536,-1.5873557329177856,45.745849609375,-41.0308837890625,-19.4244384765625
11.469999900000001,8.520963668823242,-3.4404678344726562,-1.656787633895874,56.1065673828125,-26.092529296875,-24.0631103515625
11.4899999,8.645462036132812,-3.31118106842041,-1.6735470294952393,59.2193603515625,-9.6893310546875,-22.4761962890625
11.5099999,8.762778282165527,-3.1914708614349365,-1.6974890232086182,58.6700439453125,-0.0762939453125,-17.730712890625
11.5299999,8.956708908081055,-3.136404275894165,-1.7693150043487549,56.8695068359375,-3.96728515625,-10.3912353515625
11.549999900000001,9.141061782836914,-3.0406360626220703,-1.8626888990402222,38.5284423828125,-10.3607177734375,-17.7001953125
11.569999900000001,9.282320022583008,-2.9544448852539062,-2.0039467811584473,27.2216796875,-4.9285888671875,-27.6947021484375
11.5899999,9.332598686218262,-2.8107926845550537,-2.1092917919158936,27.9998779296875,10.589599609375,-22.7203369140625
11.6099999,9.308655738830566,-2.650381326675415,-2.1499931812286377,28.7933349609375,21.2860107421875,-19.7601318359375
11.629999900000001,9.258378028869629,-2.425326347351074,-2.0590133666992188,14.09912109375,18.3868408203125,-25.6195068359375
11.649999900000001,9.248801231384277,-2.2026655673980713,-1.9081788063049316,-5.9814453125,3.4332275390625,-19.8974609375
11.6699999,9.275136947631836,-1.9776105880737305,-1.6328455209732056,-12.20703125,-1.922607421875,-11.6424560546875
11.6899999,9.301473617553711,-1.764526605606079,-1.3192051649093628,4.1656494140625,19.744873046875,-21.9879150390625
11.709999900000001,9.349357604980469,-1.5682021379470825,-1.0247182846069336,9.307861328125,30.4107666015625,-34.149169921875
11.729999900000001,9.363722801208496,-1.357512354850769,-0.8212111592292786,-14.0533447265625,12.3291015625,-31.524658203125
11.7499999,9.344569206237793,-1.0678139925003052,-0.7829039692878723,-29.205322265625,-2.7618408203125,-22.15576171875
11.7699999,9.255983352661133,-0.7733271718025208,-0.9289502501487732,-18.8446044921875,-3.1280517578125,-16.9830322265625
11.7899999,9.17936897277832,-0.5722141861915588,-1.2114660739898682,1.373291015625,20.0958251953125,-14.70947265625
11.809999900000001,9.107542991638184,-0.5171475410461426,-1.6328455209732056,-4.4097900390625,34.576416015625,-21.5301513671875
11.8299999,9.05247688293457,-0.569819986820221,-2.1284453868865967,-32.623291015625,22.4151611328125,-28.3966064453125
11.8499999,9.045293807983398,-0.6368576288223267,-2.5498247146606445,-51.116943359375,18.8140869140625,-21.575927734375
11.8699999,9.07641887664795,-0.6823474764823914,-2.7748796939849854,-42.633056640625,40.435791015625,-22.4456787109375
11.889999900000001,9.14345645904541,-0.7158663272857666,-2.7964274883270264,-29.7698974609375,69.671630859375,-31.9976806640625
11.9099999,9.296685218811035,-0.7709329724311829,-2.604891538619995,-48.858642578125,73.1048583984375,-36.2396240234375
11.9299999,9.536105155944824,-0.9074024558067322,-2.322375535964966,-80.1239013671875,50.3692626953125,-23.4222412109375
11.9499999,9.746794700622559,-1.0558429956436157,-2.0470423698425293,-92.4072265625,50.567626953125,-25.0091552734375
11.969999900000001,9.885659217834473,-1.1875240802764893,-1.7764976024627686,-107.177734375,63.018798828125,-36.5142822265625
11.9899999,9.904812812805176,-1.2832920551300049,-1.5610195398330688,-126.2664794921875,56.7626953125,-28.228759765625
12.0099999,9.782708168029785,-1.2952631711959839,-1.2856862545013428,-141.0064697265625,53.0853271484375,-13.5650634765625
12.0299999,9.651026725769043,-1.2473790645599365,-0.8571242094039917,-138.3514404296875,65.521240234375,-11.9476318359375
12.049999900000001,9.560047149658203,-1.094150185585022,-0.24181437492370605,-124.0234375,78.9947509765625,-24.658203125
12.069999900000001,9.552865028381348,-0.8355764150619507,0.4572925269603729,-115.41748046875,72.2198486328125,-26.4129638671875
12.0899999,9.57201862335205,-0.4644751250743866,1.1994950771331787,-115.142822265625,65.6585693359375,-14.068603515625
12.1099999,9.710882186889648,-0.08619125932455063,1.9177556037902832,-99.2584228515625,75.1495361328125,-1.46484375
12.129999900000001,9.955090522766113,0.1604115068912506,2.343923568725586,-70.4803466796875,75.592041015625,-7.2021484375
12.149999900000001,10.220847129821777,0.2944868206977844,2.6001031398773193,-83.5113525390625,69.9462890625,-34.7747802734375
12.1699999,10.429142951965332,0.31603461503982544,2.6623523235321045,-112.4420166015625,57.5408935546875,-41.93115234375
12.1899999,10.407594680786133,0.4189853072166443,2.7437551021575928,-107.4981689453125,63.4002685546875,-32.89794921875
12.209999900000001,10.11550235748291,0.6991068720817566,3.0095114707946777,-74.27978515625,68.3746337890625,-28.38134765625
12.229999900000001,9.708487510681152,1.091755986213684,3.4332852363586426,-49.7589111328125,65.00244140625,-11.4593505859375
12.2499999,9.265560150146484,1.4963760375976562,3.7708675861358643,-56.7779541015625,45.257568359375,5.401611328125
12.2699999,8.901641845703125,1.7741034030914307,3.936067581176758,-83.6944580078125,25.1617431640625,22.8424072265625
12.289999900000002,8.71489429473877,1.8171991109848022,3.9647979736328125,-86.944580078125,24.59716796875,34.36279296875
12.309999900000001,8.643068313598633,1.7094600200653076,3.9887399673461914,-72.998046875,34.11865234375,9.6282958984375
12.3299999,8.669404029846191,1.53707754611969,4.122815132141113,-79.28466796875,41.107177734375,-14.22119140625
12.3499999,8.712499618530273,1.3455413579940796,4.314351558685303,-87.2802734375,35.2935791015625,-1.8768310546875
12.3699999,8.734047889709473,1.1492167711257935,4.534617900848389,-89.569091796875,20.751953125,17.9290771484375
12.389999900000001,8.741230010986328,0.9552865028381348,4.970362663269043,-81.6650390625,24.3072509765625,6.439208984375
12.4099999,8.7484130859375,0.7469909191131592,5.497087001800537,-62.2100830078125,40.1763916015625,-23.1781005859375
12.4299999,8.769960403442383,0.524330198764801,6.0836663246154785,-57.6324462890625,28.0914306640625,-8.5601806640625
12.4499999,8.765172004699707,0.33279404044151306,6.421248912811279,-75.9124755859375,2.25830078125,16.9677734375
12.469999900000001,8.671798706054688,0.14844051003456116,6.414066314697266,-96.923828125,-15.2740478515625,23.5137939453125
12.4899999,8.53532886505127,-0.06224924325942993,6.14831018447876,-76.446533203125,-4.7607421875,6.8359375
12.5099999,8.315062522888184,-0.3064578175544739,5.935225963592529,-37.261962890625,24.658203125,-11.962890625
12.5299999,8.157045364379883,-0.5793967843055725,5.875370979309082,-22.125244140625,40.6494140625,-6.622314453125
12.549999900000001,8.061277389526367,-0.9002198576927185,5.92325496673584,-38.3758544921875,19.9432373046875,7.415771484375
12.569999900000001,8.058882713317871,-1.2330138683319092,6.078877925872803,-68.939208984375,-16.90673828125,18.3258056640625
12.5899999,8.054094314575195,-1.5418659448623657,6.074089527130127,-51.7730712890625,-10.2996826171875,6.317138671875
12.6099999,7.999027729034424,-1.766920804977417,6.028599739074707,-23.74267578125,26.5350341796875,-5.2337646484375
12.629999900000001,7.857769966125488,-1.9129672050476074,5.882553577423096,-17.425537109375,42.1142578125,-4.3487548828125
12.649999900000001,7.714118003845215,-2.0254945755004883,5.693411827087402,-22.064208984375,28.3966064453125,8.453369140625
12.6699999,7.575253963470459,-2.1571757793426514,5.52821159362793,-29.0679931640625,20.4315185546875,14.495849609375
12.6899999,7.5201873779296875,-2.387019157409668,5.410895824432373,-26.6265869140625,24.383544921875,11.7645263671875
12.709999900000001,7.465120792388916,-2.6862943172454834,5.3582234382629395,-29.1900634765625,22.9644775390625,8.36181640625
12.729999900000001,7.438784599304199,-3.028665065765381,5.34625244140625,-41.80908203125,11.4288330078125,11.16943359375
12.7499999,7.405265808105469,-3.3446998596191406,5.389348030090332,-53.1768798828125,-0.762939453125,18.7530517578125
12.7699999,7.343016624450684,-3.5960910320281982,5.4659624099731445,-46.32568359375,0.30517578125,19.59228515625
12.789999900000002,7.328651428222656,-3.799597978591919,5.602431774139404,-34.1339111328125,6.4239501953125,14.0533447265625
12.809999900000001,7.338228225708008,-3.9456443786621094,5.738901615142822,-33.50830078125,0.1678466796875,10.5743408203125
12.8299999,7.484274387359619,-4.086902141571045,5.901707172393799,-43.975830078125,-15.228271484375,13.4735107421875
12.8499999,7.690176010131836,-4.225766181945801,6.007051944732666,-51.0101318359375,-33.599853515625,16.6015625
12.8699999,7.972691535949707,-4.335899353027344,6.054935932159424,-45.1202392578125,-41.046142578125,14.3890380859375
12.889999900000001,8.267178535461426,-4.4292731285095215,6.011840343475342,-31.2652587890625,-39.1387939453125,5.5084228515625
12.9099999,8.497021675109863,-4.455609321594238,5.880159378051758,-22.125244140625,-39.459228515625,-4.4097900390625
12.9299999,8.650250434875488,-4.426878929138184,5.657498836517334,-16.4794921875,-44.1436767578125,-8.5906982421875
12.9499999,8.669404029846191,-4.343081951141357,5.384559631347656,-14.1448974609375,-51.8951416015625,-5.8441162109375
12.969999900000001,8.607154846191406,-4.24970817565918,5.035006046295166,-8.7127685546875,-54.8095703125,-4.1961669921875
12.9899999,8.494627952575684,-4.14915132522583,4.6471452713012695,-0.885009765625,-48.583984375,-7.2174072265625
13.0099999,8.406042098999023,-4.034229755401611,4.316745758056641,0.3814697265625,-45.7763671875,-16.571044921875
13.0299999,8.317456245422363,-3.9193081855773926,4.0294413566589355,3.387451171875,-53.0242919921875,-19.744873046875
13.049999900000001,8.269572257995605,-3.773261785507202,3.861847400665283,5.0506591796875,-60.8367919921875,-7.781982421875
13.069999900000001,8.252813339233398,-3.6798880100250244,3.7205893993377686,14.5111083984375,-55.1300048828125,-4.39453125
13.0899999,8.33182144165039,-3.6846764087677,3.5960910320281982,17.4713134765625,-53.5888671875,-5.31005859375
13.1099999,8.398859977722168,-3.687070608139038,3.44765043258667,11.322021484375,-60.0128173828125,-9.6893310546875
13.129999900000001,8.482656478881836,-3.713406801223755,3.318363666534424,11.6119384765625,-60.3179931640625,-8.392333984375
13.149999900000001,8.516175270080566,-3.711012601852417,3.155557870864868,23.37646484375,-52.886962890625,-5.2947998046875
13.1699999,8.516175270080566,-3.6367924213409424,2.999934673309326,28.7017822265625,-50.1251220703125,-2.4566650390625
13.1899999,8.520963668823242,-3.5936968326568604,2.801215887069702,26.2908935546875,-53.436279296875,-0.3509521484375
13.209999900000001,8.592789649963379,-3.627215623855591,2.535459518432617,28.2135009765625,-48.248291015625,0.091552734375
13.229999900000001,8.643068313598633,-3.689464807510376,2.255337953567505,29.754638671875,-43.76220703125,1.28173828125
13.2499999,8.576030731201172,-3.708618402481079,1.9608511924743652,33.4625244140625,-44.158935546875,-3.753662109375
13.2699999,8.44434928894043,-3.6990416049957275,1.723825216293335,37.445068359375,-39.6575927734375,3.5400390625
13.289999900000002,8.324639320373535,-3.7229835987091064,1.4987702369689941,37.9486083984375,-41.2139892578125,16.5252685546875
13.309999900000001,8.29590892791748,-3.7708675861358643,1.290474772453308,31.280517578125,-42.3736572265625,12.02392578125
13.3299999,8.389283180236816,-3.88818359375,1.1109095811843872,26.9927978515625,-35.82763671875,-1.068115234375
13.3499999,8.53293514251709,-3.955221176147461,0.993593692779541,27.1148681640625,-29.84619140625,-4.4097900390625
13.3699999,8.631096839904785,-3.9193081855773926,0.9696516990661621,32.04345703125,-31.585693359375,3.8604736328125
13.389999900000001,8.619126319885254,-3.7828385829925537,1.0534487962722778,35.919189453125,-36.346435546875,8.575439453125
13.4099999,8.513781547546387,-3.620033025741577,1.2018892765045166,37.445068359375,-38.4368896484375,8.392333984375
13.4299999,8.473079681396484,-3.536235809326172,1.292868971824646,42.7398681640625,-31.6162109375,12.26806640625
13.4499999,8.49941635131836,-3.6152446269989014,1.1851298809051514,53.0548095703125,-25.634765625,18.0511474609375
13.469999900000001,8.619126319885254,-3.84269380569458,0.828393816947937,45.135498046875,-29.8919677734375,17.486572265625
13.4899999,8.746018409729004,-4.1395745277404785,0.2322375625371933,27.2216796875,-34.36279296875,8.8958740234375
13.5099999,8.83939266204834,-4.486733913421631,-0.5027823448181152,22.491455078125,-29.510498046875,7.781982421875
13.5299999,8.925583839416504,-4.8602294921875,-1.2713210582733154,22.5677490234375,-23.4375,13.5040283203125
13.549999900000001,9.062053680419922,-5.264849662780762,-2.0398597717285156,16.3116455078125,-16.082763671875,8.270263671875
13.569999900000001,9.279925346374512,-5.702988624572754,-2.7006595134735107,4.0283203125,0.152587890625,-7.4615478515625
13.5899999,9.528923034667969,-6.129156112670898,-3.1890766620635986,-4.852294921875,9.27734375,-12.14599609375
13.6099999,9.725247383117676,-6.481103897094727,-3.3494882583618164,-8.6669921875,11.3983154296875,-10.894775390625
13.629999900000001,9.806650161743164,-6.675034523010254,-3.1076738834381104,-11.7034912109375,17.7459716796875,-20.6451416015625
13.649999900000001,9.806650161743164,-6.742072105407715,-2.585737943649292,-14.6026611328125,14.6026611328125,-28.0914306640625
13.6699999,9.682151794433594,-6.655880928039551,-1.9536685943603516,-18.157958984375,-2.2125244140625,-23.92578125
13.6899999,9.48343276977539,-6.4380083084106445,-1.403002142906189,-24.017333984375,-9.246826171875,-18.768310546875
13.709999900000001,9.239224433898926,-6.112396717071533,-1.048660397529602,-28.3203125,-0.457763671875,-22.6287841796875
13.729999900000001,8.983044624328613,-5.731719017028809,-0.9097966551780701,-29.9835205078125,13.1683349609375,-31.6162109375
13.7499999,8.755595207214355,-5.303156852722168,-0.912190854549408,-35.4156494140625,17.1356201171875,-24.169921875
13.7699999,8.556877136230469,-4.884171485900879,-0.933738648891449,-41.5191650390625,17.76123046875,-14.9688720703125
13.789999900000002,8.406042098999023,-4.505887508392334,-0.9361328482627869,-42.3126220703125,26.4129638671875,-17.15087890625
13.809999900000001,8.310274124145508,-4.213795185089111,-0.7781155705451965,-43.45703125,40.83251953125,-23.162841796875
13.8299999,8.274360656738281,-3.993528366088867,-0.48602294921875,-40.283203125,57.861328125,-24.5819091796875
13.8499999,8.248024940490723,-3.804386615753174,0.014365210197865963,-40.374755859375,69.6258544921875,-21.5301513671875
13.8699999,8.200140953063965,-3.620033025741577,0.6584054827690125,-38.2080078125,73.150634765625,-23.223876953125
13.889999900000001,8.106766700744629,-3.406949043273926,1.460463047027588,-36.5142822265625,76.629638671875,-26.458740234375
13.9099999,7.979874134063721,-3.1723172664642334,2.3582887649536133,-29.022216796875,83.0230712890625,-27.5115966796875
13.9299999,7.843404769897461,-2.942473888397217,3.3710360527038574,-15.6097412109375,88.2568359375,-23.712158203125
13.9499999,7.690176010131836,-2.715024709701538,4.369418144226074,1.068115234375,84.47265625,-27.191162109375
13.969999900000001,7.553706169128418,-2.477998733520508,5.243301868438721,12.4969482421875,69.580078125,-29.23583984375
13.9899999,7.417236804962158,-2.248155355453491,5.894524574279785,11.8255615234375,46.9818115234375,-17.76123046875
14.0099999,7.311892032623291,-2.070984363555908,6.248866558074951,15.7318115234375,31.4788818359375,-12.664794921875
14.0299999,7.343016624450684,-1.9919757843017578,6.354211330413818,19.287109375,21.3470458984375,-9.8876953125
14.049999900000001,7.489062786102295,-2.027888774871826,6.270414352416992,17.7001953125,4.1961669921875,-12.0391845703125
14.069999900000001,7.762001991271973,-2.118868589401245,6.01423454284668,11.3067626953125,-17.181396484375,-9.2926025390625
14.0899999,8.075642585754395,-2.212242364883423,5.6191911697387695,5.584716796875,-31.8145751953125,-1.251220703125
14.1099999,8.360552787780762,-2.2816741466522217,5.07570743560791,12.02392578125,-31.005859375,-5.8441162109375
14.129999900000001,8.60236644744873,-2.2697031497955322,4.534617900848389,11.138916015625,-23.1781005859375,-12.9547119140625
14.149999900000001,8.798690795898438,-2.1499931812286377,4.101267337799072,2.838134765625,-18.829345703125,-8.056640625
14.1699999,8.966285705566406,-1.9177556037902832,3.8714241981506348,-6.195068359375,-28.778076171875,1.1749267578125
14.1899999,9.126696586608887,-1.6136919260025024,3.8331170082092285,-16.5557861328125,-49.37744140625,9.918212890625
14.209999900000001,9.287108421325684,-1.3718775510787964,3.8522706031799316,-15.472412109375,-57.281494140625,10.833740234375
14.229999900000001,9.47146224975586,-1.1971008777618408,3.845088005065918,-7.3089599609375,-42.724609375,0.091552734375
14.2499999,9.615114212036133,-1.0582371950149536,3.751713991165161,-1.1749267578125,-27.740478515625,-7.0953369140625
14.2699999,9.691728591918945,-0.8978256583213806,3.6822822093963623,-3.0670166015625,-27.40478515625,1.861572265625
14.289999900000002,9.691728591918945,-0.6631938815116882,3.624821424484253,-5.2337646484375,-37.017822265625,9.6893310546875
14.309999900000001,9.655815124511719,-0.44771572947502136,3.6343982219696045,-1.220703125,-44.891357421875,16.4337158203125
14.3299999,9.66299819946289,-0.304063618183136,3.6535518169403076,13.5650634765625,-37.506103515625,17.791748046875
14.3499999,9.739612579345703,-0.2777273952960968,3.6511576175689697,29.2816162109375,-19.71435546875,10.3607177734375
14.3699999,9.854534149169922,-0.31842881441116333,3.584120035171509,34.912109375,-14.7247314453125,2.2735595703125
14.389999900000001,9.952696800231934,-0.3734954595565796,3.536235809326172,26.18408203125,-28.5491943359375,4.39453125
14.4099999,9.964667320251465,-0.3878606855869293,3.5194764137268066,28.411865234375,-38.7115478515625,10.711669921875
14.4299999,9.911994934082031,-0.363918662071228,3.5745432376861572,52.6885986328125,-12.298583984375,10.2081298828125
14.4499999,9.852140426635742,-0.40940847992897034,3.507505416870117,91.73583984375,11.474609375,6.8511962890625
14.469999900000001,9.897629737854004,-0.5171475410461426,3.421314239501953,81.5277099609375,-26.2298583984375,18.0816650390625
14.4899999,9.981427192687988,-0.6847416758537292,3.136404275894165,57.8765869140625,-59.8907470703125,15.5029296875
14.5099999,10.096348762512207,-0.8020575642585754,2.786850690841675,60.821533203125,-65.7501220703125,10.467529296875
14.5299999,10.125079154968262,-0.8307880163192749,2.473210334777832,77.5299072265625,-53.253173828125,14.068603515625
14.549999900000001,10.043676376342773,-0.7924807667732239,2.0638017654418945,100.6927490234375,-40.924072265625,21.2249755859375
14.569999900000001,9.979032516479492,-0.8140285611152649,1.6089035272598267,103.3477783203125,-44.036865234375,35.919189453125
14.5899999,9.93354320526123,-0.9241618514060974,1.0342950820922852,93.1549072265625,-50.59814453125,33.660888671875
14.6099999,10.017339706420898,-1.1899182796478271,0.44532153010368347,94.4976806640625,-50.872802734375,23.6968994140625
14.629999900000001,10.170568466186523,-1.4891934394836426,-0.002394201699644327,110.137939453125,-35.15625,11.3983154296875
14.649999900000001,10.338163375854492,-1.7693150043487549,-0.33758243918418884,128.5858154296875,-20.904541015625,-2.6092529296875
14.6699999,10.450690269470215,-1.9536685943603516,-0.507570743560791,121.307373046875,-31.768798828125,3.4027099609375
14.6899999,10.453084945678711,-2.051830768585205,-0.6368576288223267,102.6153564453125,-57.6019287109375,12.8021240234375
14.709999900000001,10.335768699645996,-2.049436569213867,-0.751779317855835,103.271484375,-63.0645751953125,12.5885009765625
14.729999900000001,10.110713958740234,-2.006340980529785,-0.9193734526634216,129.21142578125,-42.388916015625,8.514404296875
14.7499999,9.86889934539795,-1.9512743949890137,-1.0007762908935547,141.2506103515625,-28.656005859375,8.48388671875
14.7699999,9.622296333312988,-1.889025092124939,-0.9959878921508789,133.85009765625,-38.0401611328125,18.37158203125
14.789999900000002,9.406818389892578,-1.9081788063049316,-0.9385270476341248,137.3138427734375,-52.7496337890625,34.942626953125
14.809999900000001,9.320627212524414,-2.013523578643799,-0.9002198576927185,149.078369140625,-41.839599609375,35.46142578125
14.8299999,9.239224433898926,-2.1308395862579346,-0.9624691009521484,141.9830322265625,-19.775390625,10.9100341796875
14.8499999,9.208099365234375,-2.2242133617401123,-1.05105459690094,116.302490234375,-25.5889892578125,9.7808837890625
14.8699999,9.095572471618652,-2.2002713680267334,-1.0582371950149536,117.49267578125,-30.0750732421875,17.669677734375
14.889999900000001,8.93037223815918,-2.054224967956543,-0.8092401623725891,139.312744140625,-18.9056396484375,28.62548828125
14.9099999,8.827422142028809,-1.9752163887023926,-0.38067805767059326,144.500732421875,-20.721435546875,46.051025390625
14.9299999,8.801085472106934,-1.9728221893310547,0.09816227108240128,128.6773681640625,-33.1573486328125,42.572021484375
14.9499999,8.851364135742188,-2.0877439975738525,0.5434837937355042,114.1510009765625,-27.4658203125,25.177001953125
14.969999900000001,8.865729331970215,-2.2457611560821533,0.7972691655158997,120.6817626953125,-14.129638671875,23.3917236328125
14.9899999,8.75080680847168,-2.3798365592956543,0.950498104095459,122.49755859375,-11.6729736328125,33.0810546875
15.0099999,8.51138687133789,-2.497152328491211,0.9385270476341248,111.480712890625,-20.965576171875,45.074462890625
15.0299999,8.245630264282227,-2.6647465229034424,0.8762778043746948,94.7265625,-22.03369140625,48.7823486328125
15.049999900000001,8.08043098449707,-2.9688100814819336,0.8355764150619507,96.3897705078125,-4.3792724609375,39.8406982421875
15.069999900000001,8.044517517089844,-3.3686418533325195,0.7733271718025208,113.677978515625,14.1754150390625,32.4554443359375
15.0899999,8.17380428314209,-3.869029998779297,0.8523358106613159,107.4676513671875,19.04296875,30.181884765625
15.1099999,8.382100105285645,-4.3406877517700195,1.0247182846069336,81.9549560546875,12.75634765625,32.6690673828125
15.129999900000001,8.635885238647461,-4.771644115447998,1.2737152576446533,62.896728515625,1.8157958984375,36.1785888671875
15.149999900000001,8.87051773071289,-5.0685248374938965,1.6112977266311646,57.4493408203125,1.1444091796875,27.679443359375
15.1699999,9.006986618041992,-5.219359874725342,1.7956513166427612,64.39208984375,10.8489990234375,14.0228271484375
15.1899999,9.030928611755371,-5.219359874725342,1.8986018896102905,53.8787841796875,16.05224609375,11.7340087890625
15.209999900000001,8.971074104309082,-5.078101634979248,1.9847931861877441,36.62109375,17.3797607421875,15.7318115234375
15.229999900000001,8.911218643188477,-4.90571928024292,2.070984363555908,39.947509765625,20.6451416015625,14.0838623046875
15.2499999,8.846575736999512,-4.697423934936523,2.205059766769409,37.2161865234375,16.143798828125,6.28662109375
15.2699999,8.789113998413086,-4.49870491027832,2.2146365642547607,21.30126953125,11.962890625,8.148193359375
15.289999900000002,8.688557624816895,-4.378994941711426,2.164358377456665,8.11767578125,16.3116455078125,16.1895751953125
15.309999900000001,8.571242332458496,-4.331110954284668,2.123656988143921,11.2457275390625,25.3753662109375,13.2293701171875
15.3299999,8.494627952575684,-4.4077253341674805,2.1499931812286377,21.820068359375,25.9246826171875,6.3018798828125
15.3499999,8.451532363891602,-4.546588897705078,2.248155355453491,15.3961181640625,21.8658447265625,7.080078125
15.3699999,8.372523307800293,-4.6734819412231445,2.2361843585968018,-6.988525390625,14.739990234375,16.2811279296875
15.389999900000001,8.169015884399414,-4.752490520477295,2.0039467811584473,-20.93505859375,13.1072998046875,20.44677734375
15.4099999,7.790732383728027,-4.809951305389404,1.6160861253738403,-24.5513916015625,24.5361328125,12.298583984375
15.4299999,7.307103633880615,-4.98472785949707,1.2186486721038818,-24.7650146484375,38.604736328125,3.84521484375
15.4499999,6.833051681518555,-5.377377033233643,1.137245774269104,-21.2554931640625,40.7562255859375,-2.99072265625
15.469999900000001,6.315904140472412,-6.102819919586182,1.699883222579956,8.4991455078125,50.6134033203125,-28.289794921875
15.4899999,6.203376770019531,-7.24485445022583,3.6128504276275635,44.2657470703125,105.133056640625,-50.0335693359375
15.5099999,7.072471618652344,-8.813055992126465,8.001421928405762,44.586181640625,166.1376953125,-67.779541015625
15.5299999,9.035717010498047,-10.424354553222656,14.568717002868652,87.7685546875,138.7481689453125,-120.5902099609375
15.549999900000001,12.148179054260254,-11.923124313354492,22.019472122192383,159.210205078125,2.471923828125,-135.1470947265625
15.569999900000001,15.73469352722168,-12.993332862854004,27.490224838256836,185.5010986328125,-181.9305419921875,-103.6376953125
15.5899999,18.782512664794922,-13.651738166809082,29.1182804107666,75.1190185546875,-343.56689453125,-84.1217041015625
15.6099999,19.967641830444336,-13.761871337890625,26.295516967773438,-65.3228759765625,-419.4183349609375,-167.572021484375
15.629999900000001,18.200721740722656,-13.141773223876953,20.266918182373047,-117.1417236328125,-448.54736328125,-266.845703125
15.649999900000001,12.959814071655273,-11.45146656036377,13.06515884399414,-140.4876708984375,-460.0677490234375,-287.139892578125
15.6699999,4.4077253341674805,-8.334216117858887,5.8442463874816895,-188.9801025390625,-433.3038330078125,-286.224365234375
15.6899999,-6.217741966247559,-3.426102638244629,-0.9217676520347595,-220.245361328125,-329.010009765625,-292.78564453125
15.709999900000001,-18.1097412109375,3.5051112174987793,-6.775590896606445,-288.0706787109375,-210.44921875,-297.1038818359375
15.729999900000001,-29.575572967529297,11.48259162902832,-10.438719749450684,-365.6768798828125,-71.014404296875,-226.3031005859375
15.7499999,-38.254554748535156,18.626888275146484,-11.128249168395996,-234.6038818359375,140.6402587890625,87.1124267578125
15.7699999,-41.69981002807617,21.3227596282959,-8.197746276855469,125.732421875,407.0587158203125,499.9847412109375
15.789999900000002,-36.837188720703125,17.832014083862305,-2.5977089405059814,311.0198974609375,499.9847412109375,499.9847412109375
15.809999900000001,-23.795970916748047,8.712499618530273,5.056553840637207,147.613525390625,499.9847412109375,387.908935546875
15.8299999,-3.914519786834717,-4.000710964202881,14.324508666992188,-117.1722412109375,416.259765625,236.9384765625
15.8499999,17.669208526611328,-15.80173110961914,22.407333374023438,7.01904296875,153.717041015625,183.3648681640625
15.869999900000002,35.939361572265625,-24.155101776123047,28.522125244140625,62.80517578125,-178.4210205078125,57.4188232421875
15.889999900000001,46.17457580566406,-27.612327575683594,29.905973434448242,-50.72021484375,-395.3399658203125,-40.71044921875
15.9099999,46.80903625488281,-26.218902587890625,26.420015335083008,-132.415771484375,-391.3116455078125,-129.57763671875
15.9299999,38.94408416748047,-21.2054443359375,19.591753005981445,-158.447265625,-333.31298828125,-158.294677734375
15.9499999,26.18777847290039,-14.369998931884766,12.030863761901855,-171.6156005859375,-296.875,-206.146240234375
15.969999900000001,12.267889976501465,-7.314286231994629,5.525817394256592,-220.0927734375,-275.9857177734375,-252.105712890625
15.9899999,-0.26815059781074524,-1.1085153818130493,0.6224924325942993,-209.8541259765625,-251.6021728515625,-248.53515625
16.0099999,-10.426748275756836,4.197035789489746,-2.889801502227783,-133.3465576171875,-145.81298828125,-216.30859375
16.0299999,-18.325220108032227,8.757989883422852,-5.114014625549316,-108.7493896484375,-15.0604248046875,-226.5777587890625
16.0499999,-23.898921966552734,12.6150484085083,-6.007051944732666,-137.969970703125,85.0372314453125,-141.3726806640625
16.0699999,-26.62112808227539,15.188815116882324,-5.307945251464844,-92.8192138671875,170.135498046875,103.0120849609375
16.089999900000002,-25.795129776000977,15.43062973022461,-2.765302896499634,30.548095703125,260.7421875,342.34619140625
16.109999900000002,-20.944477081298828,12.746729850769043,0.9552865028381348,125.6256103515625,370.3765869140625,398.6968994140625
16.1299999,-11.956643104553223,7.249642848968506,5.566518783569336,101.0284423828125,446.9757080078125,328.9031982421875
16.1499999,0.047884032130241394,0.15801730751991272,10.826580047607422,21.087646484375,415.3594970703125,252.4261474609375
16.1699999,13.06515884399414,-6.952761650085449,15.792154312133789,63.6444091796875,268.4783935546875,233.5357666015625
16.1899999,24.98349380493164,-13.084312438964844,19.62527084350586,128.84521484375,-1.3427734375,197.7081298828125
16.2099999,33.69599533081055,-17.341203689575195,20.341136932373047,88.6993408203125,-241.9891357421875,108.5968017578125
16.2299999,36.98802185058594,-19.170373916625977,17.97087860107422,-77.545166015625,-312.1337890625,-40.1611328125
16.249999900000002,35.211524963378906,-18.679561614990234,12.952630996704102,-183.59375,-258.9263916015625,-109.6343994140625
16.269999900000002,29.111099243164062,-16.10340118408203,7.295132637023926,-176.422119140625,-201.6448974609375,-111.5264892578125
16.2899999,20.60210609436035,-12.251130104064941,2.3965959548950195,-193.5272216796875,-228.3477783203125,-117.85888671875
16.3099999,11.549629211425781,-8.1139497756958,-1.4700398445129395,-245.2239990234375,-234.588623046875,-97.5189208984375
16.3299999,3.5410242080688477,-4.390965938568115,-4.395754337310791,-317.2607421875,-188.4918212890625,-54.3212890625
16.3499999,-2.741360902786255,-1.113303780555725,-6.66785192489624,-359.6649169921875,-101.9134521484375,-24.2919921875
16.3699999,-6.952761650085449,1.7310078144073486,-8.147468566894531,-372.2991943359375,-3.7994384765625,0.0457763671875
16.3899999,-8.69334602355957,4.290409564971924,-8.585607528686523,-397.4609375,45.0592041015625,65.5517578125
16.4099999,-7.884106159210205,6.445190906524658,-7.905653953552246,-403.62548828125,47.2259521484375,184.5703125
16.429999900000002,-4.90571928024292,7.864952564239502,-6.502651691436768,-360.931396484375,9.7808837890625,295.013427734375
16.4499999,-0.16519992053508759,8.01339340209961,-4.177882194519043,-339.813232421875,-12.6800537109375,353.3782958984375
16.4699999,5.374982833862305,6.780379295349121,-1.161187767982483,-327.2705078125,18.951416015625,334.7625732421875
16.4899999,10.3549222946167,4.2975921630859375,1.9560627937316895,-279.96826171875,-10.0860595703125,308.746337890625
16.5099999,14.39872932434082,0.22026655077934265,5.791574001312256,-310.394287109375,-70.037841796875,349.090576171875
16.5299999,17.295713424682617,-5.3582234382629395,9.198522567749023,-363.800048828125,-177.459716796875,393.3563232421875
16.5499999,18.91179847717285,-11.453861236572266,11.839327812194824,-263.092041015625,-258.7738037109375,245.819091796875
16.5699999,19.156007766723633,-17.355567932128906,13.546393394470215,-93.231201171875,-238.189697265625,-29.3426513671875
16.589999900000002,17.85595703125,-21.466411590576172,13.615824699401855,33.8592529296875,-234.68017578125,-171.783447265625
16.609999900000002,14.712369918823242,-23.063344955444336,12.030863761901855,66.2078857421875,-266.1590576171875,-169.189453125
16.6299999,10.15141487121582,-22.77604103088379,9.41400146484375,34.5306396484375,-325.103759765625,-171.417236328125
16.6499999,4.879383087158203,-21.181503295898438,6.028599739074707,49.3621826171875,-368.9422607421875,-234.0087890625
16.6699999,-0.586579442024231,-19.24698829650879,2.2840683460235596,107.4676513671875,-350.8148193359375,-275.543212890625
16.6899999,-5.918466567993164,-17.520767211914062,-2.0685901641845703,168.7774658203125,-332.1075439453125,-254.425048828125
16.7099999,-9.93354320526123,-16.393098831176758,-6.782773494720459,184.0057373046875,-312.6678466796875,-195.3277587890625
16.7299999,-12.543222427368164,-15.952566146850586,-11.616666793823242,172.882080078125,-291.7327880859375,-248.0316162109375
16.749999900000002,-13.797784805297852,-15.756241798400879,-16.40985870361328,156.55517578125,-249.08447265625,-360.16845703125
16.769999900000002,-13.283031463623047,-15.46175479888916,-19.85990333557129,41.778564453125,-69.5343017578125,-317.3065185546875
16.7899999,-12.035652160644531,-14.475343704223633,-21.899763107299805,-138.2598876953125,1.495361328125,-216.2322998046875
16.8099999,-9.639056205749512,-12.715604782104492,-22.2205867767334,-194.3359375,-19.0887451171875,-164.398193359375
16.8299999,-6.718130111694336,-10.235212326049805,-20.85589027404785,-156.79931640625,24.993896484375,-236.8621826171875
16.8499999,-3.8714241981506348,-7.0341644287109375,-18.60773468017578,-157.379150390625,106.4453125,-322.601318359375
16.8699999,-2.03507137298584,-3.292027235031128,-15.58625316619873,-360.8551025390625,74.0814208984375,-268.0206298828125
16.8899999,-1.2497732639312744,0.8379706144332886,-11.647790908813477,-500,-31.646728515625,-166.9921875
16.9099999,-1.460463047027588,5.214571475982666,-6.754043102264404,-500,-44.3115234375,-166.9769287109375
16.929999900000002,-2.0159177780151367,9.32302188873291,-0.8738836050033569,-408.966064453125,21.5606689453125,-180.267333984375
16.9499999,-2.5953147411346436,12.978967666625977,5.398924827575684,-297.607421875,30.7159423828125,-129.4097900390625
16.9699999,-3.071760892868042,15.713146209716797,10.845733642578125,-185.9893798828125,-52.55126953125,-44.12841796875
16.9899999,-3.24414324760437,17.061080932617188,14.61660099029541,-68.6798095703125,-189.056396484375,51.6510009765625
17.0099999,-3.0310592651367188,16.65406608581543,16.144102096557617,44.219970703125,-269.8822021484375,127.8228759765625
17.0299999,-2.3989901542663574,14.279019355773926,15.258247375488281,187.6983642578125,-247.98583984375,116.5008544921875
17.0499999,-1.5466543436050415,9.945513725280762,11.997344970703125,302.8411865234375,-192.718505859375,45.41015625
17.0699999,-0.5171475410461426,3.864241600036621,7.0557122230529785,347.22900390625,-196.1517333984375,25.360107421875
17.089999900000002,0.6584054827690125,-3.287238836288452,1.2449848651885986,369.140625,-250.244140625,-8.2550048828125
17.109999900000002,1.2617442607879639,-10.204087257385254,-4.9799394607543945,396.17919921875,-250.4730224609375,-169.2962646484375
17.1299999,1.2330138683319092,-15.863980293273926,-10.493785858154297,352.752685546875,-214.4622802734375,-291.259765625
17.1499999,-0.16759411990642548,-19.055450439453125,-15.131354331970215,287.445068359375,-237.579345703125,-283.0963134765625
17.1699999,-2.8203697204589844,-19.467254638671875,-18.930952072143555,219.8028564453125,-243.438720703125,-246.246337890625
17.1899999,-6.222530364990234,-17.515979766845703,-21.98834800720215,134.9945068359375,-114.5477294921875,-230.5755615234375
17.2099999,-9.715670585632324,-13.97256088256836,-23.93004608154297,-17.0440673828125,82.5653076171875,-182.4951171875
17.2299999,-12.425907135009766,-9.710882186889648,-24.571691513061523,-106.6741943359375,214.0655517578125,-120.42236328125
17.249999900000002,-13.960590362548828,-5.547365188598633,-23.594858169555664,-97.7783203125,265.2130126953125,-76.0345458984375
17.269999900000002,-13.998897552490234,-1.9967641830444336,-21.21741485595703,-104.3243408203125,283.8134765625,-20.01953125
17.2899999,-12.552799224853516,0.730231523513794,-18.21987533569336,-136.41357421875,279.35791015625,51.8646240234375
17.3099999,-10.019734382629395,2.6168625354766846,-15.236700057983398,-152.5115966796875,274.7344970703125,92.5750732421875
17.3299999,-6.828263282775879,3.866635799407959,-12.691662788391113,-152.5726318359375,263.427734375,93.68896484375
17.3499999,-3.557783842086792,4.757278919219971,-10.536881446838379,-184.5245361328125,287.2161865234375,89.080810546875
17.3699999,-0.6919242739677429,5.427655220031738,-8.53293514251709,-211.334228515625,356.292724609375,63.4613037109375
17.3899999,1.5203180313110352,6.074089527130127,-6.138733386993408,-179.8553466796875,454.7271728515625,32.318115234375
17.409999900000003,3.2130186557769775,6.821080684661865,-2.8371291160583496,-115.6463623046875,470.4437255859375,-22.6287841796875
17.429999900000002,4.41969633102417,7.565677165985107,1.6089035272598267,-75.0732421875,400.1312255859375,-64.5751953125
17.4499999,5.858611583709717,7.781155586242676,7.407660007476807,-90.1031494140625,230.2703857421875,-5.462646484375
17.4699999,7.65186882019043,7.168240070343018,13.51766300201416,-39.36767578125,-44.647216796875,90.33203125
17.4899999,9.205705642700195,5.212177276611328,18.126501083374023,154.72412109375,-237.945556640625,66.253662109375
17.5099999,10.101137161254883,2.0374655723571777,19.895816802978516,274.6734619140625,-303.7109375,-6.4239501953125
17.5299999,9.6989107131958,-2.0590133666992188,17.693151473999023,282.135009765625,-344.7418212890625,-24.932861328125
17.5499999,8.001421928405762,-6.344634532928467,12.337321281433105,261.1846923828125,-363.28125,-35.0799560546875
17.5699999,5.494692802429199,-10.163386344909668,5.494692802429199,257.2479248046875,-345.184326171875,-93.3837890625
17.589999900000002,2.7892448902130127,-12.842497825622559,-1.192312479019165,254.486083984375,-316.131591796875,-128.7689208984375
17.609999900000002,0.17956513166427612,-14.298172950744629,-6.9240312576293945,235.8245849609375,-298.797607421875,-91.3543701171875
17.6299999,-2.2864625453948975,-14.800954818725586,-11.990161895751953,229.217529296875,-255.9051513671875,-74.7222900390625
17.6499999,-4.699818134307861,-14.647726058959961,-16.797719955444336,166.3818359375,-145.81298828125,-94.2840576171875
17.6699999,-7.050923824310303,-14.221558570861816,-21.155166625976562,16.54052734375,36.6973876953125,-83.5418701171875
17.6899999,-9.294290542602539,-13.376404762268066,-24.590845108032227,-119.8577880859375,176.8341064453125,-33.63037109375
17.7099999,-10.991780281066895,-11.927912712097168,-26.269180297851562,-171.295166015625,254.6844482421875,8.331298828125
17.7299999,-11.319786071777344,-9.928754806518555,-25.51740264892578,-238.1591796875,290.5426025390625,72.1588134765625
17.749999900000002,-9.837775230407715,-7.546523571014404,-22.8526554107666,-277.801513671875,273.7274169921875,122.2076416015625
17.769999900000002,-6.619967937469482,-4.946420669555664,-18.878280639648438,-280.70068359375,230.04150390625,105.1177978515625
17.7899999,-2.2361843585968018,-2.3295583724975586,-14.43224811553955,-246.7193603515625,241.0736083984375,50.59814453125
17.8099999,2.209848165512085,0.363918662071228,-10.110713958740234,-214.935302734375,322.723388671875,-10.223388671875
17.8299999,5.815515995025635,2.873042106628418,-5.863399982452393,-274.9176025390625,411.7584228515625,-31.3568115234375
17.8499999,8.039729118347168,5.058948040008545,-0.7924807667732239,-424.0264892578125,469.085693359375,27.008056640625
17.8699999,9.904812812805176,6.854599475860596,6.368576526641846,-470.52001953125,375.9918212890625,67.4285888671875
17.8899999,11.176133155822754,7.829039573669434,14.844050407409668,-146.9268798828125,132.232666015625,-3.2196044921875
17.909999900000003,11.987768173217773,7.857769966125488,22.402545928955078,245.025634765625,-31.1279296875,-102.569580078125
17.929999900000002,11.997344970703125,6.936002254486084,26.61155128479004,318.389892578125,-153.3355712890625,-56.3812255859375
17.9499999,10.390835762023926,4.627991676330566,25.52219009399414,299.530029296875,-254.7149658203125,-9.1094970703125
17.9699999,7.99184513092041,1.2066776752471924,19.888633728027344,323.0133056640625,-246.368408203125,-15.533447265625
17.9899999,5.717353820800781,-2.9281086921691895,11.994950294494629,312.4847412109375,-202.728271484375,-38.6810302734375
18.0099999,4.256890773773193,-7.129932880401611,3.883395195007324,263.214111328125,-180.328369140625,-73.91357421875
18.0299999,3.8091750144958496,-10.802638053894043,-3.1914708614349365,244.8577880859375,-171.69189453125,-79.803466796875
18.0499999,4.0294413566589355,-13.433865547180176,-8.987833023071289,257.6141357421875,-103.485107421875,-79.16259765625
18.0699999,4.285621166229248,-14.808137893676758,-13.663708686828613,222.16796875,-20.477294921875,-106.5216064453125
18.089999900000002,4.460397720336914,-15.059528350830078,-17.470489501953125,107.97119140625,19.439697265625,-104.034423828125
18.109999900000002,4.278438568115234,-14.231135368347168,-20.520702362060547,1.7852783203125,49.25537109375,-56.1981201171875
18.1299999,3.758896589279175,-12.483367919921875,-22.54859161376953,-59.234619140625,84.136962890625,-32.3028564453125
18.1499999,3.2632968425750732,-10.007762908935547,-23.278823852539062,-138.7176513671875,109.771728515625,-18.8140869140625
18.1699999,3.1435868740081787,-6.916848659515381,-22.65872573852539,-232.3455810546875,101.165771484375,15.8538818359375
18.1899999,3.6535518169403076,-3.380612850189209,-20.752941131591797,-285.400390625,122.0245361328125,14.6942138671875
18.2099999,4.800374507904053,0.3519476354122162,-17.750612258911133,-311.34033203125,179.534912109375,-7.38525390625
18.2299999,6.18182897567749,3.8307228088378906,-13.88158130645752,-349.0142822265625,232.513427734375,-12.7105712890625
18.249999900000002,7.4316020011901855,6.754043102264404,-8.96389102935791,-441.83349609375,250.0457763671875,32.928466796875
18.269999900000002,8.734047889709473,8.889671325683594,-2.5091233253479004,-498.96240234375,152.1148681640625,106.7657470703125
18.2899999,9.967061996459961,10.132261276245117,5.317522048950195,-386.2152099609375,-40.71044921875,99.884033203125
18.3099999,10.900800704956055,10.350133895874023,13.46020221710205,-102.386474609375,-112.36572265625,10.6658935546875
18.3299999,11.559206008911133,9.603142738342285,20.70505714416504,-17.669677734375,-169.98291015625,-9.58251953125
18.3499999,11.039664268493652,7.824251174926758,25.000253677368164,0.457763671875,-318.0084228515625,5.5389404296875
18.3699999,9.337387084960938,5.0685248374938965,25.562891006469727,103.7445068359375,-444.793701171875,-17.8375244140625
18.3899999,6.6391215324401855,1.6208745241165161,22.71858024597168,155.792236328125,-492.9046630859375,-44.769287109375
18.409999900000003,3.19865345954895,-2.1595699787139893,17.293319702148438,132.6141357421875,-500,-73.3642578125
18.429999900000002,-0.507570743560791,-5.623979568481445,10.881647109985352,98.20556640625,-500,-111.51123046875
18.4499999,-4.094084739685059,-8.14028549194336,4.833893299102783,47.1038818359375,-500,-126.7242431640625
18.4699999,-7.299921035766602,-9.251194953918457,-0.035913024097681046,33.3404541015625,-500,-119.0338134765625
18.4899999,-10.3549222946167,-8.971074104309082,-3.706224203109741,91.30859375,-500,-131.6375732421875
18.5099999,-13.579912185668945,-7.627926826477051,-6.818686485290527,163.8336181640625,-403.839111328125,-166.8243408203125
18.5299999,-17.120935440063477,-5.686229228973389,-9.670180320739746,144.989013671875,-177.18505859375,-130.4931640625
18.5499999,-21.07855224609375,-3.4811692237854004,-12.445060729980469,95.21484375,16.9677734375,-43.0145263671875
18.5699999,-24.72492027282715,-1.216254472732544,-14.999673843383789,102.6153564453125,124.6337890625,49.4384765625
18.589999900000002,-26.726472854614258,0.6200982332229614,-16.962919235229492,127.0294189453125,138.336181640625,203.7811279296875
18.609999900000002,-26.139894485473633,2.0183119773864746,-18.200721740722656,121.09375,111.99951171875,304.4891357421875
18.6299999,-22.570138931274414,2.8131868839263916,-18.509572982788086,60.028076171875,86.0137939453125,321.35009765625
18.6499999,-16.747440338134766,3.292027235031128,-17.911022186279297,27.1148681640625,71.47216796875,289.886474609375
18.6699999,-9.86650562286377,3.4763808250427246,-16.58463478088379,47.7294921875,111.9232177734375,252.6702880859375
18.6899999,-3.1268274784088135,3.600879430770874,-15.205574989318848,81.11572265625,197.3419189453125,226.5777587890625
18.7099999,2.492363929748535,3.552995204925537,-14.156914710998535,69.2901611328125,321.075439453125,158.38623046875
18.7299999,7.079654216766357,3.3638534545898438,-13.182474136352539,30.94482421875,440.7501220703125,108.8714599609375
18.749999900000002,10.903194427490234,2.051830768585205,-11.530475616455078,38.4979248046875,499.9847412109375,180.755615234375
18.769999900000002,14.223952293395996,-0.3519476354122162,-8.719682693481445,52.4444580078125,436.95068359375,212.249755859375
18.7899999,17.56625747680664,-3.9600095748901367,-4.733336925506592,46.5240478515625,314.9261474609375,55.23681640625
18.8099999,19.546262741088867,-7.661445617675781,0.028730420395731926,53.7872314453125,253.173828125,-229.8736572265625
18.8299999,19.7377986907959,-10.065223693847656,4.213795185089111,195.98388671875,310.8978271484375,-403.99169921875
18.8499999,17.221492767333984,-10.697293281555176,7.347805023193359,345.1080322265625,293.8690185546875,-445.4345703125
18.8699999,12.753912925720215,-9.84256362915039,8.655038833618164,381.683349609375,258.453369140625,-365.936279296875
18.8899999,7.754819393157959,-8.573636054992676,8.216899871826172,346.86279296875,150.360107421875,-257.965087890625
18.909999900000003,3.5482068061828613,-7.673416614532471,6.212953567504883,351.318359375,39.947509765625,-197.7996826171875
18.929999900000002,0.9528923034667969,-7.587224960327148,3.2082302570343018,391.9219970703125,61.737060546875,-170.7000732421875
18.9499999,0.07422025501728058,-7.975085735321045,-0.31124621629714966,355.255126953125,152.6031494140625,-142.181396484375
18.9699999,0.5937620401382446,-8.815450668334961,-3.8091750144958496,236.602783203125,120.4376220703125,-92.803955078125
18.9899999,2.3750481605529785,-9.713275909423828,-6.97430944442749,181.15234375,136.4898681640625,-41.595458984375
19.0099999,4.831499099731445,-10.66137981414795,-9.727641105651855,185.333251953125,174.4384765625,-47.9736328125
19.0299999,7.613561630249023,-11.511322021484375,-12.124237060546875,128.6773681640625,112.8082275390625,-54.2755126953125
19.0499999,9.962273597717285,-11.915942192077637,-14.245500564575195,-2.166748046875,8.85009765625,-32.1502685546875
19.0699999,11.513715744018555,-11.674127578735352,-15.830461502075195,-121.002197265625,-34.1796875,-33.8134765625
19.089999900000002,12.021286964416504,-10.433931350708008,-16.558298110961914,-180.1605224609375,41.7022705078125,-23.712158203125
19.109999900000002,11.681309700012207,-8.245630264282227,-16.017210006713867,-228.057861328125,106.1553955078125,-1.6632080078125
19.1299999,10.891223907470703,-5.439626216888428,-14.286201477050781,-280.0140380859375,126.800537109375,24.9176025390625
19.1499999,10.113107681274414,-2.4181437492370605,-11.446678161621094,-355.3466796875,128.9825439453125,89.8284912109375
19.1699999,9.794678688049316,0.24420857429504395,-7.771578788757324,-444.3206787109375,91.5985107421875,181.0455322265625
19.1899999,10.448296546936035,2.1715409755706787,-3.490746021270752,-465.362548828125,28.076171875,241.485595703125
19.2099999,12.00452709197998,3.2082302570343018,0.8858546018600464,-371.551513671875,21.514892578125,189.02587890625
19.2299999,13.991714477539062,3.466804027557373,5.114014625549316,-307.6324462890625,13.458251953125,75.1953125
19.249999900000002,16.03636360168457,3.1962592601776123,9.059659004211426,-327.484130859375,-55.4046630859375,24.2919921875
19.269999900000002,17.50640296936035,2.652775526046753,12.60547161102295,-297.5921630859375,-134.2620849609375,22.4609375
19.2899999,18.126501083374023,1.900996208190918,15.581464767456055,-151.824951171875,-153.2745361328125,-31.9366455078125
19.3099999,17.776947021484375,1.1659762859344482,17.549497604370117,-8.4381103515625,-139.2364501953125,-105.52978515625
19.3299999,16.15367889404297,0.507570743560791,18.05467414855957,49.98779296875,-150.2685546875,-141.90673828125
19.3499999,13.354857444763184,-0.20111294090747833,16.974889755249023,78.3233642578125,-179.9774169921875,-139.0533447265625
19.3699999,9.72285270690918,-1.070208191871643,14.563928604125977,146.54541015625,-194.2901611328125,-114.7918701171875
19.3899999,5.880159378051758,-2.497152328491211,11.274295806884766,233.1085205078125,-187.0269775390625,-92.3614501953125
19.409999900000003,2.4205379486083984,-4.654327869415283,7.2783732414245605,333.8623046875,-126.4495849609375,-95.0164794921875
19.429999900000002,-0.06464344263076782,-7.3454108238220215,2.8179752826690674,393.9361572265625,4.180908203125,-93.44482421875
19.4499999,-1.316810965538025,-10.26394271850586,-1.9105730056762695,337.432861328125,65.4754638671875,-59.38720703125
19.4699999,-1.259350061416626,-12.81855583190918,-6.478709697723389,265.31982421875,74.0966796875,-40.8935546875
19.4899999,-0.009576806798577309,-14.769830703735352,-10.558429718017578,276.2603759765625,155.3955078125,-64.8040771484375
19.5099999,1.98958158493042,-16.045940399169922,-14.183250427246094,297.4395751953125,209.991455078125,-94.0399169921875
19.5299999,4.256890773773193,-16.51280975341797,-17.08262825012207,160.2630615234375,158.416748046875,-93.536376953125
19.5499999,6.13633918762207,-16.09382438659668,-19.108123779296875,-19.866943359375,137.176513671875,-103.2562255859375
19.5699999,7.3454108238220215,-14.513650894165039,-19.92454719543457,-81.9091796875,182.6171875,-121.88720703125
19.589999900000002,7.752425193786621,-11.597513198852539,-19.349937438964844,-106.50634765625,205.902099609375,-118.83544921875
19.609999900000002,7.587224960327148,-7.860164165496826,-17.38429832458496,-192.9168701171875,173.88916015625,-75.225830078125
19.6299999,7.333439826965332,-3.907337188720703,-14.381969451904297,-280.4718017578125,152.984619140625,-9.1094970703125
19.6499999,7.594407558441162,-0.5123591423034668,-10.572794914245605,-313.41552734375,167.1142578125,44.2657470703125
19.6699999,8.33182144165039,1.9369091987609863,-6.258443355560303,-310.3790283203125,185.150146484375,78.9947509765625
19.6899999,9.48343276977539,3.2178070545196533,-1.5514427423477173,-314.2547607421875,159.60693359375,95.611572265625
19.7099999,10.869675636291504,3.512293815612793,3.4165258407592773,-349.517822265625,109.2681884765625,108.4442138671875
19.7299999,12.00452709197998,3.1675288677215576,8.322244644165039,-364.0594482421875,46.4019775390625,89.7369384765625
19.749999900000002,12.507309913635254,2.33913516998291,13.08910083770752,-352.813720703125,-39.8101806640625,25.9857177734375
19.769999900000002,12.813767433166504,1.359906554222107,17.575834274291992,-359.1156005859375,-117.7825927734375,35.125732421875
19.7899999,12.701239585876465,0.36152446269989014,21.296424865722656,-273.101806640625,-184.2803955078125,59.478759765625
19.8099999,12.349292755126953,-0.7015010714530945,23.649925231933594,-69.82421875,-206.756591796875,-4.852294921875
19.8299999,11.619060516357422,-1.6615760326385498,23.99708366394043,76.4923095703125,-177.215576171875,-73.5321044921875
19.8499999,10.223240852355957,-2.6144683361053467,21.978771209716797,100.2349853515625,-218.3837890625,-82.7484130859375
19.8699999,8.08282470703125,-3.56017804145813,17.769765853881836,108.4136962890625,-257.232666015625,-47.8973388671875
19.8899999,5.57370138168335,-4.716577529907227,12.351686477661133,136.71875,-263.580322265625,-10.2386474609375
19.909999900000003,3.179499864578247,-6.358999729156494,6.112396717071533,190.582275390625,-231.6131591796875,-5.462646484375
19.929999900000002,1.37906014919281,-8.2312650680542,-0.45250412821769714,174.5147705078125,-167.3583984375,-8.8043212890625
19.9499999,0.38307225704193115,-9.792284965515137,-6.610390663146973,37.5518798828125,-142.486572265625,5.218505859375
19.9699999,0.08858546614646912,-10.563218116760254,-11.528080940246582,-34.7900390625,-126.3427734375,9.979248046875
