# Time (seconds),Accel_X,Accel_Y,Accel_Z,Gyro_X,Gyro_Y,Gyro_Z
0.0099999,-0.7110779285430908,-9.497797966003418,-0.49320554733276367,18.463134765625,1.52587890625,7.5225830078125
0.029999900000000003,-0.7134721279144287,-9.346963882446289,-0.5410895943641663,15.380859375,3.0975341796875,8.270263671875
0.0499999,-0.7398083209991455,-9.193734169006348,-0.5841852426528931,16.4794921875,6.378173828125,15.4571533203125
0.0699999,-0.7948749661445618,-9.208099365234375,-0.524330198764801,24.139404296875,7.6904296875,28.533935546875
0.08999990000000001,-0.8834604024887085,-9.370905876159668,-0.3519476354122162,19.1497802734375,4.7607421875,25.3448486328125
0.10999990000000001,-1.015141487121582,-9.725247383117676,-0.08858546614646912,8.85009765625,0.5340576171875,13.153076171875
0.1299999,-1.158793568611145,-10.1753568649292,0.24899697303771973,11.8865966796875,1.2969970703125,10.7269287109375
0.14999990000000002,-1.2473790645599365,-10.486603736877441,0.6033388376235962,12.2833251953125,-1.1138916015625,9.490966796875
0.1699999,-1.235408067703247,-10.618284225463867,1.0462661981582642,5.4473876953125,-4.7607421875,5.096435546875
0.1899999,-1.070208191871643,-10.654197692871094,1.9632453918457031,-10.2996826171875,-26.1383056640625,3.5400390625
0.20999990000000002,-1.01753568649292,-10.776301383972168,2.185906171798706,-22.8118896484375,-34.0118408203125,0.6866455078125
0.2299999,-1.0247182846069336,-10.975020408630371,2.276885747909546,-19.134521484375,-30.548095703125,-3.4942626953125
0.2499999,-1.1228805780410767,-11.276689529418945,2.006340980529785,-20.08056640625,-40.4510498046875,-11.016845703125
0.2699999,-1.2832920551300049,-11.729193687438965,1.3335703611373901,-29.5257568359375,-54.107666015625,-14.678955078125
0.28999990000000003,-1.4460978507995605,-12.164938926696777,0.5003881454467773,-22.39990234375,-38.818359375,-28.228759765625
0.3099999,-1.601720929145813,-12.540828704833984,-0.5123591423034668,-7.14111328125,-24.1851806640625,-44.2352294921875
0.3299999,-1.6687586307525635,-12.722787857055664,-1.3766659498214722,-2.74658203125,-27.77099609375,-51.5899658203125
0.34999990000000003,-1.647210717201233,-12.717999458312988,-1.8267759084701538,2.5787353515625,-24.200439453125,-52.398681640625
0.3699999,-1.5849615335464478,-12.57913589477539,-2.011129379272461,0.8392333984375,-22.8424072265625,-58.8226318359375
0.3899999,-1.5083470344543457,-12.378023147583008,-2.0231003761291504,-10.3302001953125,-24.2919921875,-72.1435546875
0.40999990000000003,-1.3910311460494995,-12.148179054260254,-1.9823989868164062,-11.077880859375,-21.7742919921875,-77.4383544921875
0.4299999,-1.2330138683319092,-11.839327812194824,-1.9991583824157715,-9.7808837890625,-17.0135498046875,-78.826904296875
0.4499999,-1.0319008827209473,-11.461043357849121,-2.056619167327881,-8.8348388671875,-13.24462890625,-83.0230712890625
0.4699999,-0.8020575642585754,-11.044452667236328,-2.1475989818573,-7.7362060546875,-11.444091796875,-88.9434814453125
0.4899999,-0.5554547905921936,-10.596736907958984,-2.233790159225464,-5.5084228515625,-10.4522705078125,-92.5750732421875
0.5099999,-0.30885201692581177,-10.139444351196289,-2.4133553504943848,-4.08935546875,-8.4381103515625,-94.4061279296875
0.5299999,-0.021547814831137657,-9.555258750915527,-2.6360161304473877,-5.1727294921875,1.52587890625,-96.8780517578125
0.5499999,0.31603461503982544,-8.813055992126465,-2.8443117141723633,-3.2958984375,16.448974609375,-95.4132080078125
0.5699999,0.6751648783683777,-8.061277389526367,-3.045424461364746,4.2724609375,20.1416015625,-78.9947509765625
0.5899998999999999,1.0103530883789062,-7.340622425079346,-3.1890766620635986,8.270263671875,24.9176025390625,-67.138671875
0.6099998999999999,1.2856862545013428,-6.854599475860596,-3.3279404640197754,5.1727294921875,36.68212890625,-64.6820068359375
0.6299999,1.482010841369629,-6.581660270690918,-3.354276657104492,10.6658935546875,53.8482666015625,-62.957763671875
0.6499999,1.6496049165725708,-6.411672115325928,-3.3016040325164795,20.965576171875,56.488037109375,-56.549072265625
0.6699999,1.8291701078414917,-6.320692539215088,-3.095702886581421,24.3988037109375,57.342529296875,-45.989990234375
0.6899999,2.03507137298584,-6.210559368133545,-2.8347349166870117,25.93994140625,62.8204345703125,-39.2913818359375
0.7099999,2.2697031497955322,-6.124367713928223,-2.5929205417633057,25.115966796875,73.1658935546875,-35.675048828125
0.7299998999999999,2.52109432220459,-5.961562156677246,-2.3582887649536133,22.5372314453125,79.742431640625,-26.702880859375
0.7499998999999999,2.7676970958709717,-5.6455278396606445,-2.0877439975738525,28.7933349609375,84.89990234375,-14.129638671875
0.7699999,2.978386878967285,-5.188235282897949,-1.6735470294952393,28.4881591796875,92.28515625,2.86865234375
0.7899999,3.1244332790374756,-4.6734819412231445,-1.0606313943862915,17.39501953125,99.6246337890625,24.1851806640625
0.8099999,3.181894063949585,-4.311957359313965,-0.35434186458587646,8.72802734375,94.6044921875,42.4652099609375
0.8299999,3.160346269607544,-4.050989151000977,0.48602294921875,12.3138427734375,87.158203125,54.1229248046875
0.8499998999999999,3.023876667022705,-4.0964789390563965,1.3192051649093628,27.984619140625,84.2132568359375,71.5484619140625
0.8699998999999999,2.7940332889556885,-4.333505153656006,2.1164743900299072,29.7088623046875,81.2225341796875,89.630126953125
0.8899999,2.47560453414917,-4.654327869415283,2.956839084625244,16.632080078125,77.6824951171875,95.703125
0.9099999,2.0614075660705566,-5.140350818634033,3.866635799407959,9.674072265625,68.9849853515625,109.6954345703125
0.9299999,1.5298948287963867,-5.872976779937744,4.771644115447998,17.88330078125,47.4395751953125,129.2266845703125
0.9499999,0.8643068075180054,-7.003039836883545,5.688623428344727,23.681640625,31.92138671875,134.6893310546875
0.9699998999999999,0.12928688526153564,-8.65743350982666,6.256049156188965,5.523681640625,15.106201171875,121.795654296875
0.9899998999999999,-0.5530605912208557,-10.426748275756836,6.619967937469482,-27.099609375,9.002685546875,95.9014892578125
1.0099999,-1.0821791887283325,-12.155362129211426,6.473921298980713,-15.68603515625,-7.843017578125,82.7484130859375
1.0299999,-1.335964560508728,-13.263877868652344,6.100425720214844,-9.3841552734375,-17.9443359375,71.624755859375
1.0499999,-1.3503297567367554,-13.742717742919922,5.47075080871582,-14.6331787109375,-21.8505859375,58.4564208984375
1.0699999,-1.1563993692398071,-13.481749534606934,4.898536682128906,-13.8397216796875,-26.30615234375,49.530029296875
1.0899999,-0.9361328482627869,-13.084312438964844,4.335899353027344,-0.732421875,-34.2254638671875,59.3414306640625
1.1099999,-0.7757213711738586,-12.844892501831055,3.861847400665283,12.51220703125,-47.149658203125,71.8536376953125
1.1299999,-0.7398083209991455,-12.880805015563965,3.7660791873931885,1.1138916015625,-34.11865234375,49.2706298828125
1.1499999,-0.8451532125473022,-12.971784591674805,3.6846764087677,-23.1475830078125,-44.952392578125,21.820068359375
1.1699998999999999,-1.0007762908935547,-12.660538673400879,3.869029998779297,-34.7747802734375,-58.9141845703125,18.585205078125
1.1899998999999999,-1.139639973640442,-11.72201156616211,3.7684733867645264,-37.200927734375,-67.535400390625,24.0020751953125
1.2099999,-1.2306196689605713,-10.321403503417969,3.339911460876465,-39.1082763671875,-68.939208984375,22.216796875
1.2299999,-1.2689268589019775,-9.038111686706543,2.7533318996429443,-14.6942138671875,-56.0150146484375,30.1055908203125
1.2499999,-1.3072341680526733,-8.324639320373535,2.2649147510528564,4.547119140625,-56.5032958984375,40.3289794921875
1.2699999,-1.3958195447921753,-8.432378768920898,2.0590133666992188,-12.3748779296875,-67.3980712890625,38.5284423828125
1.2899999,-1.5873557329177856,-9.346963882446289,1.968033790588379,-35.4156494140625,-75.6988525390625,23.86474609375
1.3099999,-1.8195933103561401,-10.733205795288086,1.7956513166427612,-30.0750732421875,-70.9381103515625,11.474609375
1.3299999,-1.98958158493042,-11.882423400878906,1.5131354331970215,-19.0887451171875,-56.94580078125,-5.9051513671875
1.3499999,-2.097320795059204,-12.696451187133789,0.9241618514060974,-22.5372314453125,-61.9659423828125,-9.613037109375
1.3699999,-2.0925323963165283,-12.887988090515137,0.43095630407333374,-21.4691162109375,-56.243896484375,-13.2904052734375
1.3899999,-2.051830768585205,-12.773066520690918,0.019153613597154617,-2.3345947265625,-40.8477783203125,-22.4151611328125
1.4099999,-2.051830768585205,-12.612654685974121,-0.3064578175544739,6.622314453125,-42.7093505859375,-26.2451171875
1.4299998999999999,-2.0661959648132324,-12.461819648742676,-0.3902548849582672,-5.584716796875,-43.0145263671875,-34.1796875
1.4499999,-2.1164743900299072,-12.480973243713379,-0.4165911078453064,-14.5721435546875,-37.811279296875,-42.999267578125
1.4699999,-2.1547815799713135,-12.567164421081543,-0.5147533416748047,-12.4053955078125,-35.5377197265625,-52.734375
1.4899999,-2.1308395862579346,-12.624625205993652,-0.6775590777397156,-5.950927734375,-29.2816162109375,-63.8885498046875
1.5099999,-2.0398597717285156,-12.60307788848877,-0.9313444495201111,-5.79833984375,-25.360107421875,-69.4122314453125
1.5299999,-1.86508309841156,-12.480973243713379,-1.1875240802764893,-9.765625,-20.4620361328125,-73.8525390625
1.5499999,-1.6184803247451782,-12.15057373046875,-1.359906554222107,-13.85498046875,-11.5814208984375,-85.63232421875
1.5699999,-1.3455413579940796,-11.762712478637695,-1.4484920501708984,-10.3302001953125,-7.14111328125,-89.019775390625
1.5899999,-1.0462661981582642,-11.288661003112793,-1.4317326545715332,1.678466796875,-6.439208984375,-87.2344970703125
1.6099999,-0.7541735172271729,-10.812214851379395,-1.3192051649093628,-1.068115234375,-0.274658203125,-91.2933349609375
1.6299999,-0.47165772318840027,-10.319009780883789,-1.2234370708465576,-14.373779296875,5.859375,-97.7630615234375
1.6499999,-0.181959331035614,-9.84256362915039,-1.1540051698684692,-18.00537109375,13.5040283203125,-97.442626953125
1.6699999,0.13407529890537262,-9.284713745117188,-1.1563993692398071,-9.2010498046875,20.3857421875,-94.146728515625
1.6899998999999999,0.47405192255973816,-8.678980827331543,-1.2018892765045166,-3.936767578125,25.390625,-91.3543701171875
1.7099999,0.811634361743927,-8.125920295715332,-1.316810965538025,-3.8909912109375,32.4249267578125,-85.3424072265625
1.7299999,1.4101848602294922,-7.15387487411499,-1.5466543436050415,-4.94384765625,48.126220703125,-76.66015625
1.7499999,1.6879122257232666,-6.715735912322998,-1.556231141090393,-5.6304931640625,57.4493408203125,-70.3887939453125
1.7699999,1.968033790588379,-6.342240333557129,-1.5059528350830078,-2.6702880859375,61.065673828125,-58.990478515625
1.7899999,2.276885747909546,-5.96874475479126,-1.3239935636520386,2.777099609375,64.5751953125,-47.8515625
1.8099999,2.607285737991333,-5.631162166595459,-1.0606313943862915,3.692626953125,70.3277587890625,-38.3148193359375
1.8299999,2.937685489654541,-5.30076265335083,-0.7805097699165344,0.1983642578125,73.6083984375,-25.5279541015625
1.8499999,3.2345664501190186,-4.946420669555664,-0.4405331015586853,-0.244140625,78.0792236328125,-11.53564453125
1.8699999,3.442862033843994,-4.661510944366455,-0.15801730751991272,3.448486328125,78.61328125,7.1258544921875
1.8899999,3.5051112174987793,-4.4939165115356445,0.2106897532939911,4.302978515625,83.4808349609375,20.5230712890625
1.9099999,3.4117374420166016,-4.558559894561768,0.5626373887062073,6.5155029296875,83.1298828125,30.6549072265625
1.9299998999999999,3.1914708614349365,-4.759673118591309,1.1061211824417114,8.2550048828125,85.3424072265625,36.3922119140625
1.9499999,2.889801502227783,-5.109226226806641,1.6639702320098877,5.401611328125,81.207275390625,49.1943359375
1.9699999,2.5737667083740234,-5.403713226318359,2.3367409706115723,5.55419921875,76.6448974609375,58.4564208984375
1.9899999,2.2673089504241943,-5.7341132164001465,3.0119056701660156,18.61572265625,74.066162109375,70.4498291015625
2.0099999,1.9823989868164062,-6.035782337188721,3.6535518169403076,22.125244140625,67.0318603515625,77.6824951171875
2.0299999,1.7118542194366455,-6.347028732299805,4.271255970001221,12.176513671875,59.7991943359375,81.0699462890625
2.0499999,1.4700398445129395,-6.696582317352295,4.920084476470947,-3.35693359375,54.8248291015625,91.644287109375
2.0699999,1.1755530834197998,-7.129932880401611,5.365406036376953,-9.5367431640625,38.0401611328125,97.6409912109375
2.0899999,0.8547300100326538,-7.790732383728027,5.652710437774658,4.486083984375,25.3753662109375,103.3172607421875
2.1099999,0.5027823448181152,-8.554482460021973,5.738901615142822,-0.7781982421875,27.923583984375,98.3123779296875
2.1299999,0.17477671802043915,-9.502586364746094,5.616796970367432,-20.477294921875,18.2952880859375,99.42626953125
2.1499999,-0.10055647045373917,-10.098742485046387,5.382165431976318,-11.505126953125,0.1220703125,87.2802734375
2.1699999,-0.3495534360408783,-10.639832496643066,5.260061264038086,18.2952880859375,-2.44140625,92.376708984375
2.1899999,-0.6224924325942993,-11.018115997314453,5.082890033721924,22.3236083984375,-9.8724365234375,100.9368896484375
2.2099999,-0.8954314589500427,-11.348516464233398,5.035006046295166,5.6915283203125,-17.7001953125,83.9080810546875
2.2299999,-1.1204863786697388,-11.738770484924316,5.166687488555908,1.800537109375,-17.3797607421875,71.83837890625
2.2499999,-1.316810965538025,-12.375628471374512,5.2265424728393555,13.7176513671875,-33.660888671875,86.48681640625
2.2699999,-1.4891934394836426,-13.311761856079102,5.1810526847839355,20.3704833984375,-47.7142333984375,96.221923828125
2.2899999,-1.7046716213226318,-14.4226713180542,5.061342239379883,11.077880859375,-34.9273681640625,62.5152587890625
2.3099999,-1.8698714971542358,-14.85362720489502,4.793191909790039,-26.580810546875,-32.440185546875,-2.1820068359375
2.3299999,-1.9512743949890137,-14.27662467956543,4.474762916564941,-43.1060791015625,-46.69189453125,-17.608642578125
2.3499999,-1.8626888990402222,-12.586318016052246,4.129997730255127,-34.0728759765625,-54.534912109375,13.214111328125
2.3699999,-1.6376339197158813,-10.323798179626465,3.866635799407959,-30.670166015625,-47.4700927734375,20.5535888671875
2.3899999,-1.4173674583435059,-8.671798706054688,3.620033025741577,-47.91259765625,-49.6826171875,20.3857421875
2.4099999,-1.3335703611373901,-7.903259754180908,3.4189200401306152,-66.9708251953125,-63.995361328125,20.20263671875
2.4299999,-1.4413094520568848,-8.20492935180664,3.251325845718384,-56.4422607421875,-68.05419921875,20.263671875
2.4499999,-1.7525556087493896,-9.301473617553711,2.853888511657715,-41.8701171875,-64.3310546875,15.716552734375
2.4699999,-2.1284453868865967,-10.6709566116333,2.298433542251587,-44.7540283203125,-59.844970703125,-4.4708251953125
2.4899999,-2.4229321479797363,-11.839327812194824,1.7357962131500244,-35.5072021484375,-50.537109375,-20.32470703125
2.5099999,-2.5737667083740234,-12.526463508605957,1.3311761617660522,-22.064208984375,-47.760009765625,-19.3328857421875
2.5299999,-2.6144683361053467,-12.753912925720215,1.048660397529602,-18.798828125,-53.3294677734375,-17.88330078125
2.5499999,-2.607285737991333,-12.749124526977539,0.8786720037460327,-22.94921875,-55.328369140625,-27.7252197265625
2.5699999,-2.5977089405059814,-12.684480667114258,0.7637503147125244,-15.869140625,-45.8831787109375,-44.7998046875
2.5899999,-2.5761611461639404,-12.600683212280273,0.6033388376235962,-10.9405517578125,-45.684814453125,-54.1839599609375
2.6099999,-2.499546527862549,-12.500126838684082,0.4213795065879822,-7.6751708984375,-48.9654541015625,-56.4117431640625
2.6299999,-2.360682964324951,-12.351686477661133,0.23942017555236816,-12.939453125,-43.1060791015625,-62.1795654296875
2.6499999,-2.1978771686553955,-12.24394702911377,-0.05746084079146385,-25.2685546875,-36.7584228515625,-73.5321044921875
2.6699999,-2.008735179901123,-12.164938926696777,-0.38546648621559143,-23.651123046875,-32.28759765625,-81.2225341796875
2.6899999,-1.7980455160140991,-11.980585098266602,-0.6799532771110535,-18.829345703125,-23.6358642578125,-91.827392578125
2.7099999,-1.5610195398330688,-11.724405288696289,-0.8954314589500427,-18.0206298828125,-18.4478759765625,-95.9320068359375
2.7299999,-1.2761094570159912,-11.379640579223633,-1.0534487962722778,-23.1781005859375,-14.7857666015625,-98.9227294921875
2.7499999,-0.950498104095459,-10.989385604858398,-1.2234370708465576,-35.858154296875,-8.148193359375,-109.0087890625
2.7699999,-0.5650315880775452,-10.436325073242188,-1.5275006294250488,-53.131103515625,4.21142578125,-122.7264404296875
2.7899999,-0.1149216815829277,-9.636661529541016,-1.9776105880737305,-53.8330078125,17.4560546875,-125.885009765625
2.8099999,0.37828385829925537,-8.59997272491455,-2.5258827209472656,-28.228759765625,29.9072265625,-109.405517578125
2.8299999,0.8786720037460327,-7.448361396789551,-3.023876667022705,-5.2337646484375,41.900634765625,-91.5374755859375
2.8499999,1.3287819623947144,-6.411672115325928,-3.318363666534424,1.312255859375,56.0455322265625,-83.43505859375
2.8699999,1.702277421951294,-5.595249176025391,-3.3303346633911133,-2.2125244140625,65.61279296875,-77.1026611328125
2.8899999,2.0231003761291504,-5.058948040008545,-3.0334534645080566,3.692626953125,72.81494140625,-62.591552734375
2.9099999,2.3056161403656006,-4.692635536193848,-2.4899697303771973,15.8843994140625,78.3538818359375,-46.9207763671875
2.9299999,2.5665841102600098,-4.537012100219727,-1.821987509727478,19.8974609375,82.000732421875,-34.027099609375
2.9499999,2.8107926845550537,-4.491522312164307,-1.0797849893569946,17.63916015625,86.5631103515625,-21.91162109375
2.9699999,3.0119056701660156,-4.51067590713501,-0.35434186458587646,17.425537109375,87.860107421875,-6.683349609375
2.9899999,3.1292216777801514,-4.592078685760498,0.3232172429561615,14.4500732421875,86.9903564453125,12.1612548828125
3.0099999,3.141192674636841,-4.776432514190674,0.9744400978088379,15.106201171875,89.0350341796875,27.374267578125
3.0299999,3.07415509223938,-4.967968463897705,1.5682021379470825,12.63427734375,89.7369384765625,31.3720703125
3.0499999,2.964021682739258,-5.207388877868652,2.1164743900299072,5.889892578125,87.2802734375,40.2679443359375
3.0699999,2.8850131034851074,-5.3127336502075195,2.6431987285614014,4.0740966796875,85.357666015625,54.62646484375
3.0899999,2.8443117141723633,-5.2672438621521,3.069366693496704,-2.38037109375,78.8421630859375,65.85693359375
3.1099999,2.7892448902130127,-4.965574264526367,3.5170822143554688,-10.4217529296875,74.2645263671875,75.225830078125
3.1299999,2.6168625354766846,-4.845864295959473,3.9025487899780273,-6.65283203125,66.925048828125,103.851318359375
3.1499999,2.2577321529388428,-4.944026470184326,4.393360137939453,-7.5225830078125,60.9588623046875,126.7242431640625
3.1699999,1.7334020137786865,-5.580883979797363,4.7836151123046875,-17.6239013671875,48.370361328125,130.2642822265625
3.1899999,1.0319008827209473,-6.402095317840576,5.085284233093262,-26.4739990234375,35.3240966796875,119.20166015625
3.2099999,0.23702596127986908,-7.69735860824585,5.3582234382629395,-17.333984375,34.393310546875,142.1966552734375
3.2299999,-0.6440402865409851,-9.215282440185547,5.537788391113281,-0.762939453125,19.805908203125,162.7655029296875
3.2499999,-2.1595699787139893,-12.686874389648438,6.086060523986816,22.76611328125,-5.462646484375,80.6121826171875
3.2699999,-2.518700122833252,-13.713987350463867,6.4595561027526855,12.9852294921875,-21.4385986328125,61.34033203125
3.2899999,-2.542642116546631,-13.795390129089355,6.842628479003906,-4.2877197265625,-46.783447265625,73.028564453125
3.3099999,-2.3798365592956543,-13.26866626739502,6.813898086547852,-26.7791748046875,-62.2406005859375,78.4759521484375
3.3299999000000002,-2.185906171798706,-12.571952819824219,6.399701118469238,-25.3753662109375,-61.126708984375,65.85693359375
3.3499999,-2.0805611610412598,-12.157755851745605,5.659893035888672,-9.46044921875,-55.23681640625,55.0994873046875
3.3699999,-2.140416383743286,-12.22000503540039,4.656722068786621,-29.6478271484375,-68.8323974609375,54.8095703125
3.3899999,-2.255337953567505,-12.485761642456055,3.7253777980804443,-40.2374267578125,-73.1201171875,36.92626953125
3.4099999,-2.367865562438965,-12.576741218566895,3.0334534645080566,-29.4952392578125,-54.2449951171875,3.3416748046875
3.4299999,-2.4133553504943848,-12.322956085205078,2.477998733520508,-29.4647216796875,-58.3343505859375,2.197265625
3.4499999,-2.3535003662109375,-11.57596492767334,2.22660756111145,-39.5050048828125,-68.2373046875,14.862060546875
3.4699999,-2.27209734916687,-10.644620895385742,2.0614075660705566,-44.647216796875,-68.54248046875,13.73291015625
3.4899999,-2.248155355453491,-10.02452278137207,1.6400281190872192,-36.4532470703125,-68.42041015625,7.6904296875
3.5099999,-2.2361843585968018,-9.612719535827637,1.2449848651885986,-16.6015625,-54.8248291015625,-3.1280517578125
3.5299999,-2.2625205516815186,-9.514557838439941,0.9313444495201111,-1.800537109375,-47.882080078125,-0.18310546875
3.5499999,-2.3487119674682617,-9.72285270690918,0.8188169598579407,-12.298583984375,-58.441162109375,10.1776123046875
3.5699999,-2.5258827209472656,-10.170568466186523,0.8954314589500427,-24.9786376953125,-61.5997314453125,0.0152587890625
3.5899999,-2.806004285812378,-10.953473091125488,0.9265560507774353,-10.2691650390625,-57.8460693359375,-16.143798828125
3.6099999,-3.0861260890960693,-11.839327812194824,0.9672574996948242,9.9334716796875,-49.163818359375,-24.688720703125
3.6299999,-3.294421434402466,-12.634202003479004,0.9002198576927185,1.129150390625,-52.3834228515625,-33.3251953125
3.6499999,-3.3662476539611816,-13.235146522521973,0.8619126081466675,-19.866943359375,-53.4515380859375,-43.975830078125
3.6699999,-3.3231520652770996,-13.560758590698242,0.7374141216278076,-18.5394287109375,-47.515869140625,-59.1278076171875
3.6899999,-3.224989652633667,-13.706804275512695,0.5027823448181152,-6.8817138671875,-45.166015625,-67.6727294921875
3.7099999,-3.0597896575927734,-13.639766693115234,0.31842881441116333,3.3416748046875,-40.7562255859375,-75.4241943359375
3.7299999,-2.8586769104003906,-13.409923553466797,0.22266076505184174,-0.091552734375,-40.0848388671875,-88.0889892578125
3.7499999,-2.607285737991333,-13.105859756469727,0.22505496442317963,-7.6141357421875,-41.900634765625,-97.3052978515625
3.7699999,-2.3032219409942627,-12.63899040222168,0.24660277366638184,-18.5546875,-40.130615234375,-107.513427734375
3.7899999,-1.9584569931030273,-12.179304122924805,0.15562310814857483,-25.08544921875,-34.9578857421875,-110.626220703125
3.8099999,-1.5705963373184204,-11.611878395080566,-0.06464344263076782,-20.355224609375,-30.0445556640625,-115.692138671875
3.8299999000000002,-1.161187767982483,-11.061211585998535,-0.31124621629714966,-14.6484375,-21.881103515625,-121.002197265625
3.8499999,-0.7589619159698486,-10.572794914245605,-0.5817909836769104,-8.148193359375,-16.326904296875,-116.88232421875
3.8699999,-0.363918662071228,-10.0580415725708,-0.7996633648872375,-10.7269287109375,-11.871337890625,-120.1324462890625
3.8899999,0.019153613597154617,-9.545681953430176,-0.9720458984375,-18.5699462890625,-1.52587890625,-124.542236328125
3.9099999,0.3758896589279175,-9.011775016784668,-1.2641384601593018,-20.9197998046875,3.0670166015625,-122.1466064453125
3.9299999,0.7398083209991455,-8.434772491455078,-1.5466543436050415,-15.2740478515625,15.8843994140625,-117.1112060546875
3.9499999,1.1348515748977661,-7.738059997558594,-1.824381709098816,-13.1683349609375,30.4107666015625,-117.24853515625
3.9699999,1.5610195398330688,-7.022193431854248,-2.0661959648132324,-11.627197265625,34.637451171875,-110.9771728515625
3.9899999,2.0590133666992188,-6.196194171905518,-2.1571757793426514,-3.5247802734375,43.0145263671875,-99.06005859375
4.0099999,2.6001031398773193,-5.262455463409424,-2.164358377456665,-0.5950927734375,53.4515380859375,-88.6993408203125
4.029999900000001,3.134010076522827,-4.4292731285095215,-2.1284453868865967,1.9989013671875,62.6068115234375,-68.29833984375
4.0499999,3.6343982219696045,-3.622427225112915,-1.9752163887023926,9.063720703125,73.5931396484375,-50.35400390625
4.069999900000001,4.043806552886963,-3.0382418632507324,-1.7764976024627686,10.1318359375,82.733154296875,-34.3475341796875
4.0899999000000005,4.343081951141357,-2.6647465229034424,-1.4652514457702637,8.0718994140625,91.2017822265625,-16.082763671875
4.1099999,4.5394062995910645,-2.4229321479797363,-1.0678139925003052,5.6610107421875,100.128173828125,-4.39453125
4.1299999000000005,4.58968448638916,-2.346317768096924,-0.5386953949928284,0.4425048828125,105.5145263671875,11.9171142578125
4.1499999,4.4939165115356445,-2.5522189140319824,0.07182604819536209,5.035400390625,107.147216796875,35.430908203125
4.1699999000000005,4.261679172515869,-2.935291290283203,0.790086567401886,14.5416259765625,108.0322265625,45.5780029296875
4.1899999,3.8953661918640137,-3.5218706130981445,1.5083470344543457,14.312744140625,108.3526611328125,47.5006103515625
4.209999900000001,3.4955344200134277,-4.266467571258545,2.2194249629974365,7.171630859375,109.2376708984375,62.2711181640625
4.2299999,3.117250680923462,-4.7620673179626465,2.9879636764526367,-4.5928955078125,114.227294921875,67.3370361328125
4.249999900000001,2.7246015071868896,-5.2672438621521,3.7277719974517822,-4.5928955078125,105.5450439453125,83.1451416015625
4.2699999,2.3319525718688965,-5.700594425201416,4.479551315307617,12.39013671875,93.32275390625,99.578857421875
4.289999900000001,1.900996208190918,-6.081272125244141,5.243301868438721,19.927978515625,88.56201171875,99.9755859375
4.3099999,1.4939818382263184,-6.641515731811523,5.992686748504639,9.5672607421875,83.526611328125,108.001708984375
4.329999900000001,1.1444283723831177,-7.029376029968262,6.71334171295166,-9.857177734375,69.82421875,108.184814453125
4.3499999,0.8595184087753296,-7.510610580444336,7.19936466217041,-12.8326416015625,46.69189453125,115.478515625
4.369999900000001,0.5626373887062073,-7.9176249504089355,7.405265808105469,-6.7596435546875,39.093017578125,125.8392333984375
4.3899999,0.2298433631658554,-8.652645111083984,7.352593421936035,-20.4925537109375,41.3055419921875,134.918212890625
4.409999900000001,-0.14844051003456116,-9.423578262329102,7.067683219909668,-19.8822021484375,27.4658203125,115.6768798828125
4.4299999,-0.5554547905921936,-10.285490036010742,6.876147270202637,-17.852783203125,12.420654296875,96.466064453125
4.449999900000001,-0.9050082564353943,-11.058817863464355,6.825869083404541,-4.08935546875,4.5166015625,100.830078125
4.4699999,-1.1971008777618408,-11.374852180480957,6.864176273345947,-3.9215087890625,-9.94873046875,89.599609375
4.489999900000001,-1.4245500564575195,-11.54005241394043,6.912060260772705,-7.87353515625,-23.3306884765625,83.4197998046875
4.5099999,-1.5921441316604614,-11.525687217712402,6.828263282775879,-20.9503173828125,-30.9600830078125,82.3211669921875
4.529999900000001,-1.7405846118927002,-11.70046329498291,6.232107162475586,-34.2559814453125,-42.1905517578125,81.23779296875
4.5499999,-1.8411411046981812,-11.889605522155762,5.492298603057861,-21.7437744140625,-34.2559814453125,64.9566650390625
4.569999900000001,-1.9153614044189453,-12.054805755615234,4.797980308532715,-12.1307373046875,-19.500732421875,50.8270263671875
4.5899999000000005,-1.9776105880737305,-11.884817123413086,4.414907932281494,-20.1873779296875,-32.4554443359375,54.412841796875
4.609999900000001,-2.118868589401245,-11.532869338989258,4.491522312164307,-39.7186279296875,-45.0897216796875,58.074951171875
4.6299999000000005,-2.360682964324951,-11.159374237060547,4.489128112792969,-52.24609375,-57.9376220703125,50.750732421875
4.6499999,-2.6192567348480225,-10.747570991516113,4.390965938568115,-52.1240234375,-52.215576171875,23.3001708984375
4.6699999000000005,-2.7940332889556885,-10.448296546936035,4.189853191375732,-30.0750732421875,-41.68701171875,18.5699462890625
4.6899999,-2.827552318572998,-10.070012092590332,4.0294413566589355,-27.4658203125,-51.5289306640625,26.0772705078125
4.709999900000001,-2.741360902786255,-9.658209800720215,4.132391929626465,-47.1649169921875,-61.5997314453125,24.261474609375
4.7299999,-2.715024709701538,-9.591172218322754,4.182670593261719,-53.2379150390625,-68.7408447265625,23.1781005859375
4.749999900000001,-2.782062292098999,-9.84256362915039,4.0749311447143555,-42.41943359375,-70.9228515625,19.012451171875
4.7699999,-2.9065608978271484,-10.271124839782715,3.890577793121338,-29.9835205078125,-64.5294189453125,5.55419921875
4.789999900000001,-3.2537200450897217,-11.57357120513916,3.3925838470458984,-41.168212890625,-79.6356201171875,3.082275390625
4.8099999,-3.4524388313293457,-12.270283699035645,3.1004912853240967,-50.6591796875,-78.948974609375,-12.2528076171875
4.829999900000001,-3.6511576175689697,-13.029245376586914,2.7030537128448486,-44.0216064453125,-74.188232421875,-26.947021484375
4.8499999,-3.8067808151245117,-13.572729110717773,2.3295583724975586,-36.8194580078125,-69.2901611328125,-42.0074462890625
4.869999900000001,-3.8977603912353516,-13.862427711486816,2.008735179901123,-50.6591796875,-73.91357421875,-52.0172119140625
4.8899999,-3.9193081855773926,-13.958195686340332,1.6950948238372803,-65.399169921875,-79.7271728515625,-57.373046875
4.909999900000001,-3.9001545906066895,-13.876792907714844,1.3551181554794312,-68.267822265625,-73.1201171875,-74.1424560546875
4.9299999,-3.845088005065918,-13.802573204040527,0.9720458984375,-49.407958984375,-63.812255859375,-89.6453857421875
4.949999900000001,-3.7181951999664307,-13.632584571838379,0.5722141861915588,-37.0941162109375,-67.0166015625,-100.8148193359375
4.9699999,-3.4979286193847656,-13.333309173583984,0.19871874153614044,-46.7529296875,-70.80078125,-111.6943359375
4.989999900000001,-3.2082302570343018,-12.938265800476074,-0.17717093229293823,-48.9501953125,-65.8721923828125,-119.5831298828125
5.0099999,-2.87064790725708,-12.476184844970703,-0.7038952708244324,-35.7513427734375,-62.6983642578125,-128.265380859375
5.029999900000001,-2.5067291259765625,-11.918335914611816,-1.2066776752471924,-27.0538330078125,-54.5501708984375,-138.9923095703125
5.0499999,-2.126051187515259,-11.353304862976074,-1.6376339197158813,-24.9176025390625,-43.8232421875,-140.7623291015625
5.069999900000001,-1.7166426181793213,-10.680533409118652,-1.9752163887023926,-31.341552734375,-38.421630859375,-138.9312744140625
5.0899999000000005,-1.2880805730819702,-10.022128105163574,-2.2242133617401123,-42.877197265625,-26.0467529296875,-137.5274658203125
5.109999900000001,-0.8379706144332886,-9.399636268615723,-2.494758129119873,-43.8079833984375,-13.885498046875,-135.040283203125
5.1299999000000005,-0.363918662071228,-8.798690795898438,-2.7988216876983643,-37.6129150390625,-2.7313232421875,-137.9241943359375
5.1499999,0.12210428714752197,-8.226476669311523,-3.0310592651367188,-31.402587890625,10.5743408203125,-138.0767822265625
5.1699999000000005,0.608127236366272,-7.661445617675781,-3.222595453262329,-29.0374755859375,16.2200927734375,-132.5225830078125
5.1899999,1.091755986213684,-6.995857238769531,-3.2297780513763428,-31.1431884765625,26.092529296875,-131.6070556640625
5.209999900000001,1.5682021379470825,-6.294356346130371,-3.220201253890991,-28.1829833984375,31.9976806640625,-125.3814697265625
5.2299999,2.0590133666992188,-5.492298603057861,-3.155557870864868,-18.310546875,39.8712158203125,-112.274169921875
5.249999900000001,2.557007312774658,-4.661510944366455,-3.0885202884674072,-16.021728515625,52.703857421875,-98.6480712890625
5.2699999,3.043030261993408,-3.7876269817352295,-3.1268274784088135,-21.8963623046875,60.05859375,-88.5467529296875
5.289999900000001,3.5218706130981445,-2.9041666984558105,-3.181894063949585,-28.533935546875,74.066162109375,-76.690673828125
5.3099999,3.9863457679748535,-2.0231003761291504,-3.179499864578247,-20.8892822265625,91.888427734375,-55.4656982421875
5.329999900000001,4.405331134796143,-1.1827356815338135,-3.0334534645080566,-5.3863525390625,99.761962890625,-31.8450927734375
5.3499999,4.747702121734619,-0.6320692300796509,-2.7054479122161865,5.1116943359375,100.2044677734375,-8.2244873046875
5.369999900000001,5.006275653839111,-0.24660277366638184,-2.183511972427368,-0.091552734375,106.87255859375,3.60107421875
5.3899999,5.135562419891357,-0.21308395266532898,-1.482010841369629,-7.6904296875,117.584228515625,20.721435546875
5.409999900000001,5.109226226806641,-0.35673606395721436,-0.8307880163192749,-3.60107421875,112.8387451171875,42.5262451171875
5.4299999,4.929661273956299,-0.8978256583213806,-0.1149216815829277,9.7198486328125,112.5946044921875,64.6820068359375
5.449999900000001,4.644751071929932,-1.6711528301239014,0.5937620401382446,20.9503173828125,120.30029296875,70.98388671875
5.4699999,4.288015365600586,-2.585737943649292,1.3048399686813354,15.2130126953125,119.4610595703125,67.3675537109375
5.489999900000001,3.93367338180542,-3.531447410583496,2.0829553604125977,-0.6103515625,115.6768798828125,79.1778564453125
5.5099999,3.6080620288848877,-4.345476150512695,2.8850131034851074,-5.157470703125,108.2916259765625,92.6971435546875
5.529999900000001,3.2752678394317627,-5.013458251953125,3.6727054119110107,5.9967041015625,101.8829345703125,95.489501953125
5.5499999,2.9281086921691895,-5.738901615142822,4.3406877517700195,16.4031982421875,91.9342041015625,101.2725830078125
5.569999900000001,2.5977089405059814,-6.588842868804932,4.953603267669678,10.3759765625,88.897705078125,112.4725341796875
5.5899999000000005,2.3080103397369385,-7.481880187988281,5.339069843292236,-6.1798095703125,79.2083740234375,109.8480224609375
5.609999900000001,2.0901381969451904,-8.339004516601562,5.5329999923706055,-8.9111328125,70.2667236328125,102.081298828125
5.6299999000000005,1.9297266006469727,-8.956708908081055,5.628767967224121,15.0146484375,67.4591064453125,104.98046875
5.6499999,1.778891921043396,-9.251194953918457,5.75326681137085,49.9725341796875,59.99755859375,116.5008544921875
5.6699999000000005,1.556231141090393,-9.502586364746094,5.995080947875977,46.8292236328125,51.1474609375,135.2386474609375
5.6899999,1.1994950771331787,-9.99100399017334,6.495469093322754,-3.1890869140625,43.5943603515625,140.6097412109375
5.709999900000001,0.7996633648872375,-10.66137981414795,6.777985095977783,-6.500244140625,18.9666748046875,110.443115234375
5.7299999,0.4141969084739685,-11.149797439575195,7.206547260284424,12.51220703125,19.6075439453125,81.5277099609375
5.749999900000001,0.06224924325942993,-11.544840812683105,7.395689010620117,29.3426513671875,6.6986083984375,97.71728515625
5.7699999,-0.21308395266532898,-11.585541725158691,7.5848307609558105,32.2418212890625,-12.664794921875,101.8829345703125
5.789999900000001,-0.4596867263317108,-11.444284439086914,7.824251174926758,16.3421630859375,-19.012451171875,77.08740234375
5.8099999,-0.6727706789970398,-11.267112731933594,7.843404769897461,12.969970703125,-33.50830078125,66.9708251953125
5.829999900000001,-0.8547300100326538,-11.010933876037598,7.675810813903809,4.4403076171875,-44.3878173828125,76.8585205078125
5.8499999,-0.9983820915222168,-10.831368446350098,7.132327079772949,-14.7247314453125,-49.041748046875,81.634521484375
5.869999900000001,-1.091755986213684,-10.599130630493164,6.485892295837402,-15.411376953125,-44.6014404296875,59.7686767578125
5.8899999,-1.1971008777618408,-10.565611839294434,5.659893035888672,-2.532958984375,-51.4373779296875,51.4373779296875
5.909999900000001,-1.3048399686813354,-10.6925048828125,4.881777286529541,-0.7171630859375,-60.546875,62.5762939453125
5.9299999,-1.4245500564575195,-10.869675636291504,4.129997730255127,-1.52587890625,-56.854248046875,49.285888671875
5.949999900000001,-1.5514427423477173,-11.219228744506836,3.4620156288146973,26.2451171875,-52.0782470703125,30.242919921875
5.9699999,-1.644816517829895,-11.508927345275879,3.114856481552124,60.8978271484375,-43.64013671875,23.284912109375
5.989999900000001,-1.7118542194366455,-11.793837547302246,3.1699230670928955,44.830322265625,-42.78564453125,27.4658203125
6.0099999,-1.7405846118927002,-11.839327812194824,3.5003228187561035,2.3956298828125,-48.309326171875,16.05224609375
6.029999900000001,-1.7717092037200928,-11.662156105041504,3.689464807510376,2.62451171875,-57.4951171875,-4.4708251953125
6.0499999,-1.742978811264038,-11.176133155822754,3.885789394378662,32.53173828125,-37.2314453125,-3.997802734375
6.069999900000001,-1.699883222579956,-10.438719749450684,3.7876269817352295,36.2091064453125,-30.3497314453125,7.354736328125
6.0899999000000005,-1.6280571222305298,-9.560047149658203,3.620033025741577,3.326416015625,-39.306640625,7.8582763671875
6.109999900000001,-1.5849615335464478,-8.827422142028809,3.421314239501953,-18.4478759765625,-30.21240234375,2.2735595703125
6.1299999000000005,-1.5873557329177856,-8.348581314086914,3.069366693496704,-10.25390625,-18.98193359375,6.2255859375
6.149999900000001,-1.6160861253738403,-8.125920295715332,2.6862943172454834,1.9683837890625,-13.4124755859375,10.43701171875
6.1699999000000005,-1.6519991159439087,-8.101978302001953,2.497152328491211,2.01416015625,-8.1787109375,9.3231201171875
6.1899999,-1.7118542194366455,-8.346187591552734,2.5306711196899414,-10.9405517578125,-6.744384765625,8.36181640625
6.209999900000001,-1.7741034030914307,-8.65743350982666,2.741360902786255,-25.7720947265625,-6.7138671875,6.28662109375
6.2299999,-1.8267759084701538,-8.999804496765137,3.0550012588500977,-22.6898193359375,-4.425048828125,5.8746337890625
6.249999900000001,-1.8531121015548706,-9.370905876159668,3.3303346633911133,-7.4005126953125,-3.35693359375,11.3525390625
6.2699999,-1.843535304069519,-9.725247383117676,3.5410242080688477,-7.720947265625,-4.7760009765625,9.1400146484375
6.289999900000001,-1.7884687185287476,-10.072406768798828,3.5721490383148193,-16.7388916015625,-6.2103271484375,-1.77001953125
6.3099999,-1.4724340438842773,-9.945513725280762,3.44765043258667,5.06591796875,7.8887939453125,-13.5650634765625
6.329999900000001,-1.2401964664459229,-9.457097053527832,3.4572272300720215,9.521484375,6.500244140625,-5.126953125
6.3499999,-1.01753568649292,-8.882488250732422,3.6990416049957275,4.608154296875,6.6375732421875,-3.3416748046875
6.369999900000001,-0.8690952062606812,-8.580819129943848,4.065354347229004,5.340576171875,3.7384033203125,0.244140625
6.3899999,-0.8020575642585754,-8.528146743774414,4.4508209228515625,6.53076171875,-1.52587890625,-1.617431640625
6.409999900000001,-0.811634361743927,-8.710105895996094,4.675876140594482,2.3193359375,-4.7149658203125,-7.2174072265625
6.4299999,-0.849941611289978,-8.846575736999512,4.73573112487793,1.434326171875,-1.7547607421875,-9.4146728515625
6.449999900000001,-0.8954314589500427,-8.904036521911621,4.599261283874512,4.7454833984375,-0.2593994140625,-4.39453125
6.4699999,-0.9217676520347595,-8.860940933227539,4.41969633102417,6.1187744140625,0,0.7476806640625
6.489999900000001,-0.9289502501487732,-8.801085472106934,4.271255970001221,2.9754638671875,0.2593994140625,-1.8157958984375
6.5099999,-0.9265560507774353,-8.825027465820312,4.189853191375732,-0.6103515625,-0.3814697265625,-2.532958984375
6.529999900000001,-0.9169792532920837,-8.822632789611816,4.168305397033691,-2.227783203125,-0.1678466796875,-3.2958984375
6.5499999,-0.9145850539207458,-8.825027465820312,4.194641590118408,-0.18310546875,-0.6103515625,-0.0152587890625
6.569999900000001,-0.9289502501487732,-8.834604263305664,4.201824188232422,1.5411376953125,-1.220703125,2.0751953125
6.5899999000000005,-0.9457096457481384,-8.882488250732422,4.201824188232422,-1.983642578125,0.0457763671875,-1.1749267578125
6.609999900000001,-0.9576807022094727,-8.942343711853027,4.199429988861084,-6.5460205078125,3.7689208984375,-5.096435546875
6.6299999000000005,-0.9481038451194763,-8.96389102935791,4.194641590118408,-9.857177734375,3.1280517578125,-4.1656494140625
6.649999900000001,-0.9169792532920837,-8.911218643188477,4.213795185089111,-4.974365234375,1.0528564453125,-1.6021728515625
6.6699999000000005,-0.8834604024887085,-8.825027465820312,4.252102375030518,1.0986328125,0.3204345703125,-0.5340576171875
6.6899999,-0.8690952062606812,-8.80587387084961,4.256890773773193,0.640869140625,-0.7781982421875,0.06103515625
6.709999900000001,-0.8619126081466675,-8.832210540771484,4.218583583831787,-2.0294189453125,-0.5340576171875,-2.105712890625
6.7299999,-0.8523358106613159,-8.846575736999512,4.19224739074707,-1.3427734375,3.0670166015625,-3.875732421875
6.749999900000001,-0.8427590131759644,-8.846575736999512,4.120420932769775,1.2359619140625,1.6632080078125,-0.91552734375
6.7699999,-0.8331822156906128,-8.829815864562988,4.141968727111816,0.9002685546875,2.655029296875,2.3040771484375
6.789999900000001,-0.8403648138046265,-8.841787338256836,4.168305397033691,-1.3580322265625,1.2664794921875,1.03759765625
6.8099999,-0.8595184087753296,-8.887276649475098,4.1874589920043945,-1.9683837890625,-1.220703125,-2.532958984375
6.829999900000001,-0.8690952062606812,-8.925583839416504,4.220977783203125,-0.7476806640625,1.3275146484375,-2.8839111328125
6.8499999,-0.8643068075180054,-8.899248123168945,4.194641590118408,-0.1068115234375,1.556396484375,-0.9918212890625
6.869999900000001,-0.8475474119186401,-8.858546257019043,4.220977783203125,-0.2288818359375,2.25830078125,2.3651123046875
6.8899999,-0.8379706144332886,-8.83939266204834,4.228160381317139,-0.335693359375,-0.518798828125,2.227783203125
6.909999900000001,-0.8475474119186401,-8.87051773071289,4.264073371887207,-1.2664794921875,-1.0833740234375,-0.6256103515625
6.9299999,-0.8643068075180054,-8.913613319396973,4.235342979431152,-0.9002685546875,-1.3275146484375,-1.861572265625
6.949999900000001,-0.8738836050033569,-8.942343711853027,4.197035789489746,-0.762939453125,0.8392333984375,-1.4190673828125
6.9699999,-0.8667010068893433,-8.932766914367676,4.146757125854492,-0.946044921875,1.800537109375,-0.0457763671875
6.989999900000001,-0.849941611289978,-8.918401718139648,4.113238334655762,-1.3427734375,1.129150390625,-0.6103515625
7.0099999,-0.8403648138046265,-8.911218643188477,4.127603530883789,-0.3662109375,0.91552734375,-0.8087158203125
7.029999900000001,-0.8379706144332886,-8.920795440673828,4.14915132522583,-0.48828125,0.30517578125,-1.4190673828125
7.0499999,-0.8427590131759644,-8.918401718139648,4.163516521453857,-1.3580322265625,0.1373291015625,-1.9989013671875
7.069999900000001,-0.8379706144332886,-8.882488250732422,4.168305397033691,-1.6326904296875,0.3662109375,-1.373291015625
7.0899999000000005,-0.8236053586006165,-8.844181060791016,4.153939723968506,0.1983642578125,1.0833740234375,1.03759765625
7.109999900000001,-0.811634361743927,-8.822632789611816,4.1180267333984375,1.2969970703125,0.54931640625,1.983642578125
7.1299999000000005,-0.811634361743927,-8.83699893951416,4.122815132141113,0.6866455078125,2.044677734375,0.732421875
7.149999900000001,-0.8307880163192749,-8.892065048217773,4.120420932769775,-0.1220703125,1.190185546875,-0.7781982421875
7.1699999000000005,-0.8475474119186401,-8.932766914367676,4.146757125854492,-0.6561279296875,0.3814697265625,-1.4190673828125
7.1899999,-0.849941611289978,-8.939949035644531,4.1611223220825195,-0.030517578125,1.2054443359375,-0.8697509765625
7.209999900000001,-0.8403648138046265,-8.9064302444458,4.163516521453857,1.03759765625,1.495361328125,0.2899169921875
7.2299999,-0.8307880163192749,-8.892065048217773,4.175487995147705,0.457763671875,1.8157958984375,1.373291015625
7.249999900000001,-0.828393816947937,-8.899248123168945,4.197035789489746,-0.6561279296875,0.885009765625,0.3814697265625
7.2699999,-0.8403648138046265,-8.916007041931152,4.206612586975098,-1.8768310546875,-0.30517578125,-1.9683837890625
7.289999900000001,-0.8451532125473022,-8.916007041931152,4.185064792633057,-1.8157958984375,0.274658203125,-1.617431640625
7.3099999,-0.8403648138046265,-8.89685344696045,4.14915132522583,0.30517578125,1.800537109375,0.823974609375
7.329999900000001,-0.8355764150619507,-8.882488250732422,4.1180267333984375,1.7547607421875,2.1209716796875,1.4801025390625
7.3499999,-0.8331822156906128,-8.89685344696045,4.129997730255127,0.48828125,1.129150390625,-0.7171630859375
7.369999900000001,-0.8355764150619507,-8.918401718139648,4.177882194519043,-2.166748046875,0.42724609375,-2.532958984375
7.3899999,-0.8331822156906128,-8.908824920654297,4.20421838760376,-1.6937255859375,-0.7781982421875,-1.40380859375
7.409999900000001,-0.8188169598579407,-8.884882926940918,4.2090067863464355,-0.6866455078125,0.2288818359375,1.4190673828125
7.4299999,-0.8068459630012512,-8.851364135742188,4.180276393890381,-0.3814697265625,2.01416015625,1.5716552734375
7.449999900000001,-0.8068459630012512,-8.868123054504395,4.144362926483154,-0.6866455078125,1.6021728515625,0.30517578125
7.4699999,-0.8164227604866028,-8.899248123168945,4.132391929626465,-1.0833740234375,1.2664794921875,-0.823974609375
7.489999900000001,-0.8307880163192749,-8.923190116882324,4.134786128997803,-1.5716552734375,1.1749267578125,-1.1138916015625
7.5099999,-0.8331822156906128,-8.918401718139648,4.151545524597168,-2.01416015625,1.0833740234375,-0.1373291015625
7.529999900000001,-0.828393816947937,-8.892065048217773,4.153939723968506,-0.2288818359375,-0.1220703125,0.7781982421875
7.5499999,-0.828393816947937,-8.899248123168945,4.134786128997803,0.4425048828125,0.18310546875,1.3427734375
7.569999900000001,-0.828393816947937,-8.920795440673828,4.1395745277404785,-0.335693359375,2.8228759765625,-0.244140625
7.5899999000000005,-0.828393816947937,-8.93037223815918,4.127603530883789,-0.8392333984375,1.6632080078125,-2.7008056640625
7.609999900000001,-0.828393816947937,-8.935160636901855,4.151545524597168,0.1373291015625,-0.1983642578125,-0.6561279296875
7.6299999000000005,-0.8164227604866028,-8.913613319396973,4.175487995147705,1.007080078125,-0.1373291015625,1.3427734375
7.649999900000001,-0.8140285611152649,-8.882488250732422,4.156333923339844,0.4425048828125,-0.762939453125,0
7.6699999000000005,-0.8140285611152649,-8.887276649475098,4.151545524597168,0.6561279296875,1.5106201171875,-0.1068115234375
7.6899999,-0.8188169598579407,-8.901641845703125,4.125209331512451,0.8087158203125,2.044677734375,0.1983642578125
7.709999900000001,-0.8259995579719543,-8.916007041931152,4.129997730255127,-0.5950927734375,1.0223388671875,-0.762939453125
7.7299999,-0.828393816947937,-8.93037223815918,4.151545524597168,-0.42724609375,0.8697509765625,-0.6866455078125
7.749999900000001,-0.8259995579719543,-8.918401718139648,4.1611223220825195,0.0152587890625,-0.0152587890625,-1.1138916015625
7.7699999,-0.8188169598579407,-8.908824920654297,4.163516521453857,0.6866455078125,0.48828125,0.1220703125
7.789999900000001,-0.811634361743927,-8.892065048217773,4.156333923339844,-0.1373291015625,1.251220703125,0.457763671875
7.8099999,-0.811634361743927,-8.901641845703125,4.158728122711182,-1.1138916015625,1.6021728515625,-0.030517578125
7.829999900000001,-0.8212111592292786,-8.916007041931152,4.175487995147705,0.4119873046875,-0.762939453125,-0.762939453125
7.8499999,-0.8164227604866028,-8.901641845703125,4.168305397033691,0.762939453125,-0.0762939453125,0.0152587890625
7.869999900000001,-0.8140285611152649,-8.908824920654297,4.146757125854492,-0.67138671875,1.4190673828125,0.274658203125
7.8899999,-0.8044517636299133,-8.901641845703125,4.14915132522583,-0.885009765625,2.0599365234375,-0.7171630859375
7.909999900000001,-0.8020575642585754,-8.908824920654297,4.153939723968506,-0.8392333984375,0.1373291015625,-1.0528564453125
7.9299999,-0.7996633648872375,-8.916007041931152,4.189853191375732,-1.1138916015625,-0.6256103515625,0.3204345703125
7.949999900000001,-0.8020575642585754,-8.908824920654297,4.194641590118408,-0.8544921875,-0.3204345703125,-0.4119873046875
7.9699999,-0.8020575642585754,-8.899248123168945,4.156333923339844,-0.9002685546875,-0.4119873046875,-0.885009765625
7.989999900000001,-0.8020575642585754,-8.904036521911621,4.132391929626465,-2.13623046875,2.4261474609375,0.1068115234375
8.0099999,-0.7996633648872375,-8.913613319396973,4.091690540313721,-0.54931640625,1.9989013671875,0.0152587890625
8.0299999,-0.7948749661445618,-8.9064302444458,4.094084739685059,-0.2899169921875,0.9765625,-2.1514892578125
8.049999900000001,-0.790086567401886,-8.911218643188477,4.122815132141113,-0.9918212890625,1.15966796875,-0.5950927734375
8.069999900000001,-0.790086567401886,-8.9064302444458,4.132391929626465,-1.5411376953125,0.4425048828125,0.8544921875
8.0899999,-0.7924807667732239,-8.89445972442627,4.151545524597168,-3.2958984375,1.373291015625,0.2899169921875
8.1099999,-0.7948749661445618,-8.916007041931152,4.153939723968506,-2.899169921875,2.197265625,-0.2288818359375
8.129999900000001,-0.8020575642585754,-8.937555313110352,4.144362926483154,-2.5177001953125,0.9002685546875,-0.732421875
8.149999900000001,-0.7996633648872375,-8.925583839416504,4.153939723968506,-2.1820068359375,0.701904296875,-0.9613037109375
8.1699999,-0.7972691655158997,-8.884882926940918,4.14915132522583,-0.274658203125,0.06103515625,0.885009765625
8.1899999,-0.7996633648872375,-8.87291145324707,4.1395745277404785,1.190185546875,-0.457763671875,3.8299560546875
8.2099999,-0.8044517636299133,-8.913613319396973,4.134786128997803,0.48828125,1.3275146484375,2.716064453125
8.229999900000001,-0.8164227604866028,-8.971074104309082,4.1156325340271,-2.532958984375,0.4730224609375,-2.9754638671875
8.2499999,-0.8188169598579407,-9.028534889221191,4.098873138427734,-4.3182373046875,0.4425048828125,-4.08935546875
8.2699999,-0.8044517636299133,-9.002198219299316,4.065354347229004,-2.532958984375,0.9307861328125,-1.0986328125
8.2899999,-0.7805097699165344,-8.942343711853027,4.034229755401611,-1.40380859375,1.678466796875,1.373291015625
8.309999900000001,-0.7637503147125244,-8.89445972442627,4.019864559173584,0.3204345703125,2.227783203125,1.739501953125
8.3299999,-0.7661445140838623,-8.911218643188477,4.027047157287598,0.518798828125,1.0528564453125,-0.030517578125
8.3499999,-0.7781155705451965,-8.942343711853027,4.05817174911499,-0.8392333984375,0.6866455078125,-2.0599365234375
8.3699999,-0.7876923680305481,-8.96149730682373,4.091690540313721,-1.8463134765625,0.7171630859375,-1.922607421875
8.389999900000001,-0.7852981686592102,-8.947132110595703,4.106055736541748,-0.213623046875,0.457763671875,0.213623046875
8.4099999,-0.7805097699165344,-8.939949035644531,4.101267337799072,0.2288818359375,0.0457763671875,1.0986328125
8.4299999,-0.7757213711738586,-8.935160636901855,4.0964789390563965,-0.3814697265625,1.2969970703125,-0.42724609375
8.4499999,-0.7805097699165344,-8.947132110595703,4.091690540313721,-0.9002685546875,0.7171630859375,-1.3580322265625
8.469999900000001,-0.790086567401886,-8.968679428100586,4.110844135284424,0.9918212890625,-0.4119873046875,-0.18310546875
8.4899999,-0.7924807667732239,-8.959102630615234,4.120420932769775,2.4261474609375,-2.2430419921875,-0.6561279296875
8.5099999,-0.790086567401886,-8.939949035644531,4.110844135284424,4.364013671875,-2.899169921875,-0.701904296875
8.5299999,-0.7852981686592102,-8.925583839416504,4.055777549743652,6.195068359375,-1.2054443359375,0.518798828125
8.549999900000001,-0.7757213711738586,-8.908824920654297,4.01268196105957,2.7923583984375,3.3416748046875,0.5340576171875
8.569999900000001,-0.7709329724311829,-8.899248123168945,3.9839515686035156,-1.5869140625,4.791259765625,-0.1373291015625
8.5899999,-0.768538773059845,-8.908824920654297,4.031835556030273,-4.08935546875,3.265380859375,0.518798828125
8.6099999,-0.768538773059845,-8.927978515625,4.094084739685059,-3.0517578125,1.0528564453125,0.5645751953125
8.629999900000001,-0.7733271718025208,-8.949525833129883,4.1611223220825195,-1.0528564453125,-0.3204345703125,-0.5950927734375
8.649999900000001,-0.7829039692878723,-8.973467826843262,4.170699596405029,2.74658203125,-0.9765625,-1.1138916015625
8.6699999,-0.7852981686592102,-8.983044624328613,4.137180328369141,2.0904541015625,0.0762939453125,-1.556396484375
8.6899999,-0.7805097699165344,-8.954314231872559,4.106055736541748,0.0152587890625,2.3345947265625,-0.9002685546875
8.709999900000001,-0.7709329724311829,-8.925583839416504,4.0533833503723145,-1.03759765625,1.0986328125,0.18310546875
8.729999900000001,-0.7589619159698486,-8.89445972442627,4.086902141571045,-1.89208984375,2.74658203125,0.6866455078125
8.7499999,-0.7589619159698486,-8.904036521911621,4.0964789390563965,-0.732421875,0.3814697265625,0.2593994140625
8.7699999,-0.7613561153411865,-8.937555313110352,4.125209331512451,-0.1220703125,-0.6561279296875,-1.3885498046875
8.7899999,-0.7637503147125244,-8.949525833129883,4.1395745277404785,-0.79345703125,1.2054443359375,-2.4261474609375
8.809999900000001,-0.7637503147125244,-8.947132110595703,4.113238334655762,-1.1749267578125,0.823974609375,-0.7781982421875
8.8299999,-0.7541735172271729,-8.916007041931152,4.108449935913086,-0.2899169921875,1.1444091796875,0.9765625
8.8499999,-0.7541735172271729,-8.916007041931152,4.091690540313721,-0.0762939453125,0.67138671875,0.9002685546875
8.8699999,-0.7541735172271729,-8.918401718139648,4.10366153717041,-0.762939453125,0.4730224609375,-1.1749267578125
8.889999900000001,-0.7589619159698486,-8.944737434387207,4.094084739685059,-0.732421875,0.030517578125,-1.3885498046875
8.9099999,-0.7565677165985107,-8.937555313110352,4.101267337799072,-0.0457763671875,0.6256103515625,-0.3662109375
8.9299999,-0.751779317855835,-8.935160636901855,4.072536945343018,1.2969970703125,0.5035400390625,0.8392333984375
8.9499999,-0.7445967197418213,-8.913613319396973,4.0749311447143555,-0.5340576171875,1.28173828125,-0.091552734375
8.969999900000001,-0.7422025203704834,-8.93037223815918,4.082113742828369,-0.946044921875,2.0904541015625,-0.030517578125
8.9899999,-0.7493851184844971,-8.942343711853027,4.089296340942383,-0.732421875,-0.274658203125,-0.3662109375
9.0099999,-0.7565677165985107,-8.954314231872559,4.108449935913086,0.06103515625,0.335693359375,-0.8087158203125
9.0299999,-0.7589619159698486,-8.947132110595703,4.094084739685059,0.42724609375,0.6103515625,-1.007080078125
9.049999900000001,-0.7589619159698486,-8.942343711853027,4.086902141571045,1.5411376953125,1.190185546875,0.2899169921875
9.069999900000001,-0.751779317855835,-8.920795440673828,4.077325344085693,1.5716552734375,1.007080078125,0.274658203125
9.0899999,-0.7422025203704834,-8.904036521911621,4.094084739685059,-0.18310546875,1.1749267578125,-0.244140625
9.1099999,-0.7422025203704834,-8.911218643188477,4.10366153717041,-0.3662109375,0.5645751953125,0.7781982421875
9.129999900000001,-0.7469909191131592,-8.939949035644531,4.122815132141113,-0.3814697265625,1.03759765625,0.4119873046875
9.149999900000001,-0.7541735172271729,-8.944737434387207,4.113238334655762,-1.220703125,1.28173828125,-1.9378662109375
9.1699999,-0.7589619159698486,-8.949525833129883,4.113238334655762,-1.52587890625,1.40380859375,-0.8544921875
9.1899999,-0.7565677165985107,-8.932766914367676,4.113238334655762,-0.213623046875,1.64794921875,0.9765625
9.209999900000001,-0.751779317855835,-8.916007041931152,4.10366153717041,1.220703125,0.0152587890625,0.9002685546875
9.229999900000001,-0.7541735172271729,-8.932766914367676,4.1180267333984375,0.3509521484375,0.946044921875,-0.213623046875
9.2499999,-0.7565677165985107,-8.959102630615234,4.125209331512451,-0.152587890625,0.946044921875,-1.3885498046875
9.2699999,-0.7541735172271729,-8.954314231872559,4.127603530883789,-0.701904296875,0.1983642578125,-2.044677734375
9.2899999,-0.7445967197418213,-8.937555313110352,4.132391929626465,0.1068115234375,0.5035400390625,0.274658203125
9.309999900000001,-0.7374141216278076,-8.911218643188477,4.122815132141113,0.48828125,0.9765625,1.434326171875
9.3299999,-0.7374141216278076,-8.920795440673828,4.113238334655762,0.4119873046875,0.54931640625,0.5950927734375
9.3499999,-0.7493851184844971,-8.959102630615234,4.113238334655762,-0.213623046875,0.579833984375,-1.3580322265625
9.3699999,-0.7469909191131592,-8.947132110595703,4.098873138427734,-0.213623046875,0.0457763671875,-0.335693359375
9.389999900000001,-0.7398083209991455,-8.937555313110352,4.0964789390563965,-0.4119873046875,1.068115234375,0.1068115234375
9.4099999,-0.730231523513794,-8.908824920654297,4.094084739685059,-0.1373291015625,1.556396484375,-0.79345703125
9.4299999,-0.7230489253997803,-8.918401718139648,4.10366153717041,-0.3204345703125,0.8392333984375,-0.2593994140625
9.4499999,-0.7206547260284424,-8.918401718139648,4.113238334655762,-0.2593994140625,0.152587890625,0.1373291015625
9.469999900000001,-0.7206547260284424,-8.927978515625,4.1156325340271,-1.4190673828125,1.0528564453125,-0.3814697265625
9.4899999,-0.7230489253997803,-8.927978515625,4.106055736541748,-1.1138916015625,1.6632080078125,-0.4730224609375
9.5099999,-0.727837324142456,-8.932766914367676,4.098873138427734,-0.5035400390625,1.3275146484375,0.2288818359375
9.5299999,-0.727837324142456,-8.920795440673828,4.1156325340271,-0.213623046875,0.9307861328125,0.213623046875
9.549999900000001,-0.7230489253997803,-8.901641845703125,4.1156325340271,-0.67138671875,-0.1983642578125,0.1373291015625
9.569999900000001,-0.7254431247711182,-8.904036521911621,4.1156325340271,-0.579833984375,0.5035400390625,1.2969970703125
9.5899999,-0.727837324142456,-8.916007041931152,4.0964789390563965,1.068115234375,1.6937255859375,1.6326904296875
9.6099999,-0.730231523513794,-8.918401718139648,4.089296340942383,0.2899169921875,1.6632080078125,-0.5950927734375
9.629999900000001,-0.7326257228851318,-8.927978515625,4.101267337799072,0.9002685546875,0.9002685546875,0.579833984375
9.649999900000001,-0.7326257228851318,-8.911218643188477,4.120420932769775,1.2969970703125,-0.701904296875,2.0751953125
9.6699999,-0.7445967197418213,-8.923190116882324,4.125209331512451,1.129150390625,-0.5950927734375,2.5177001953125
9.6899999,-0.7589619159698486,-8.959102630615234,4.1180267333984375,1.220703125,1.068115234375,0.640869140625
9.709999900000001,-0.7733271718025208,-8.98543930053711,4.10366153717041,0.030517578125,1.5411376953125,-2.166748046875
9.729999900000001,-0.768538773059845,-8.99740982055664,4.113238334655762,-0.79345703125,1.2664794921875,-1.5411376953125
9.7499999,-0.7493851184844971,-8.96149730682373,4.132391929626465,-1.007080078125,0.579833984375,0.2593994140625
9.7699999,-0.7254431247711182,-8.913613319396973,4.141968727111816,-1.46484375,-0.0762939453125,0.7781982421875
9.7899999,-0.7110779285430908,-8.889671325683594,4.153939723968506,-1.4495849609375,1.64794921875,0.6866455078125
9.809999900000001,-0.7134721279144287,-8.899248123168945,4.134786128997803,-1.068115234375,0.7476806640625,0.3509521484375
9.8299999,-0.7326257228851318,-8.927978515625,4.1180267333984375,0.3204345703125,0.4119873046875,0.1983642578125
9.8499999,-0.7493851184844971,-8.956708908081055,4.098873138427734,0.091552734375,0.701904296875,-0.48828125
9.8699999,-0.7589619159698486,-8.966285705566406,4.094084739685059,-0.5950927734375,1.77001953125,-0.79345703125
9.889999900000001,-0.7589619159698486,-8.954314231872559,4.086902141571045,-1.40380859375,0.823974609375,-0.5340576171875
9.9099999,-0.7493851184844971,-8.923190116882324,4.10366153717041,-0.7781982421875,0.823974609375,0.3814697265625
9.9299999,-0.7398083209991455,-8.901641845703125,4.10366153717041,0.42724609375,0.1220703125,1.0833740234375
9.9499999,-0.7398083209991455,-8.901641845703125,4.106055736541748,0.9002685546875,0.762939453125,0.7476806640625
9.969999900000001,-0.7422025203704834,-8.913613319396973,4.1180267333984375,1.5716552734375,1.3580322265625,0.030517578125
9.9899999,-0.7493851184844971,-8.923190116882324,4.127603530883789,0.335693359375,0.2899169921875,-0.3814697265625
10.0099999,-0.751779317855835,-8.923190116882324,4.14915132522583,-0.9613037109375,0.0152587890625,0.8392333984375
10.0299999,-0.7469909191131592,-8.913613319396973,4.156333923339844,-2.3193359375,0.579833984375,1.03759765625
10.049999900000001,-0.7374141216278076,-8.913613319396973,4.1395745277404785,-1.983642578125,0.3814697265625,0.823974609375
10.069999900000001,-0.730231523513794,-8.916007041931152,4.113238334655762,-1.1444091796875,0.4425048828125,0.1220703125
10.0899999,-0.7374141216278076,-8.944737434387207,4.077325344085693,-0.1068115234375,1.03759765625,0.6866455078125
10.1099999,-0.751779317855835,-8.96389102935791,4.060565948486328,-0.030517578125,0.9307861328125,0.2899169921875
10.129999900000001,-0.768538773059845,-8.983044624328613,4.055777549743652,-0.3509521484375,0.79345703125,-0.7781982421875
10.149999900000001,-0.7733271718025208,-8.983044624328613,4.060565948486328,-0.1983642578125,0.244140625,-0.823974609375
10.1699999,-0.7613561153411865,-8.973467826843262,4.079719543457031,0.48828125,1.1444091796875,-0.1983642578125
10.1899999,-0.751779317855835,-8.954314231872559,4.077325344085693,-0.732421875,0.9613037109375,-0.18310546875
10.209999900000001,-0.7422025203704834,-8.944737434387207,4.101267337799072,-1.8463134765625,2.349853515625,-0.6561279296875
10.229999900000001,-0.7493851184844971,-8.949525833129883,4.091690540313721,-1.129150390625,1.129150390625,-0.701904296875
10.2499999,-0.751779317855835,-8.932766914367676,4.101267337799072,1.0223388671875,0.457763671875,-0.9613037109375
10.2699999,-0.7493851184844971,-8.93037223815918,4.106055736541748,2.0904541015625,1.129150390625,-0.030517578125
10.2899999,-0.7422025203704834,-8.923190116882324,4.094084739685059,-0.2593994140625,0.8697509765625,0.5340576171875
10.309999900000001,-0.7326257228851318,-8.927978515625,4.1156325340271,-3.082275390625,2.2735595703125,-0.4425048828125
10.3299999,-0.730231523513794,-8.923190116882324,4.108449935913086,-1.495361328125,1.007080078125,-1.129150390625
10.3499999,-0.727837324142456,-8.932766914367676,4.120420932769775,0.91552734375,0.3204345703125,0.457763671875
10.3699999,-0.7374141216278076,-8.939949035644531,4.110844135284424,1.861572265625,0.1373291015625,0.9613037109375
10.389999900000001,-0.7445967197418213,-8.942343711853027,4.10366153717041,0.3814697265625,0.5035400390625,-0.823974609375
10.4099999,-0.7469909191131592,-8.947132110595703,4.120420932769775,-0.732421875,1.953125,-0.5645751953125
10.4299999,-0.751779317855835,-8.949525833129883,4.1156325340271,0.2899169921875,-0.4119873046875,0.8544921875
10.4499999,-0.7469909191131592,-8.951920509338379,4.1395745277404785,1.4190673828125,-0.6103515625,0.518798828125
10.469999900000001,-0.7422025203704834,-8.947132110595703,4.120420932769775,1.5869140625,-0.701904296875,-1.3275146484375
10.4899999,-0.7374141216278076,-8.942343711853027,4.089296340942383,-0.2288818359375,0.518798828125,-0.91552734375
10.5099999,-0.730231523513794,-8.927978515625,4.091690540313721,-1.8157958984375,3.4027099609375,1.03759765625
10.5299999,-0.7254431247711182,-8.916007041931152,4.077325344085693,-1.8157958984375,1.312255859375,0.7171630859375
10.549999900000001,-0.7254431247711182,-8.913613319396973,4.10366153717041,-1.007080078125,0.48828125,-0.1678466796875
10.569999900000001,-0.730231523513794,-8.923190116882324,4.113238334655762,-0.2593994140625,0.48828125,-0.3204345703125
10.5899999,-0.7398083209991455,-8.93037223815918,4.101267337799072,-0.030517578125,0.42724609375,0.4425048828125
10.6099999,-0.7422025203704834,-8.937555313110352,4.10366153717041,0.7476806640625,1.6632080078125,0.48828125
10.629999900000001,-0.7422025203704834,-8.935160636901855,4.091690540313721,0.579833984375,1.1138916015625,-0.3509521484375
10.649999900000001,-0.7398083209991455,-8.939949035644531,4.108449935913086,-0.18310546875,0.9613037109375,-0.1678466796875
10.6699999,-0.7374141216278076,-8.939949035644531,4.110844135284424,-1.1444091796875,1.1444091796875,0.2899169921875
10.6899999,-0.7326257228851318,-8.927978515625,4.122815132141113,-1.708984375,1.4801025390625,-0.1068115234375
10.709999900000001,-0.7326257228851318,-8.925583839416504,4.1180267333984375,-0.6256103515625,0.9765625,0.1068115234375
10.729999900000001,-0.7326257228851318,-8.920795440673828,4.127603530883789,0.3509521484375,0.518798828125,0.518798828125
10.7499999,-0.7374141216278076,-8.935160636901855,4.1156325340271,1.129150390625,-0.152587890625,0.48828125
10.7699999,-0.7422025203704834,-8.942343711853027,4.1180267333984375,0.0457763671875,0.9613037109375,-0.701904296875
10.7899999,-0.7493851184844971,-8.947132110595703,4.106055736541748,-0.091552734375,1.2969970703125,-0.640869140625
10.809999900000001,-0.751779317855835,-8.947132110595703,4.110844135284424,-0.2593994140625,0.9613037109375,0.3814697265625
10.8299999,-0.7493851184844971,-8.932766914367676,4.113238334655762,-0.6256103515625,0.9307861328125,0.1373291015625
10.8499999,-0.7493851184844971,-8.918401718139648,4.1180267333984375,-0.0457763671875,0.1373291015625,0.18310546875
10.8699999,-0.7469909191131592,-8.927978515625,4.106055736541748,0.9002685546875,0.3509521484375,0.579833984375
10.889999900000001,-0.7350199222564697,-8.949525833129883,4.10366153717041,-0.3814697265625,1.5869140625,-0.7476806640625
10.9099999,-0.727837324142456,-8.939949035644531,4.1156325340271,0.0152587890625,0.2899169921875,-0.5035400390625
10.9299999,-0.727837324142456,-8.937555313110352,4.129997730255127,-0.06103515625,0.0152587890625,0.7476806640625
10.9499999,-0.727837324142456,-8.908824920654297,4.1395745277404785,-1.1749267578125,0.48828125,0.4730224609375
10.969999900000001,-0.7350199222564697,-8.911218643188477,4.129997730255127,-0.42724609375,0.5950927734375,0.4730224609375
10.9899999,-0.7422025203704834,-8.918401718139648,4.110844135284424,0.732421875,0.2899169921875,0.3509521484375
11.0099999,-0.7469909191131592,-8.935160636901855,4.0964789390563965,0.48828125,0.7171630859375,-0.30517578125
11.0299999,-0.7469909191131592,-8.944737434387207,4.086902141571045,-0.1678466796875,1.3427734375,-0.6866455078125
11.049999900000001,-0.7469909191131592,-8.947132110595703,4.086902141571045,-1.708984375,1.556396484375,-0.518798828125
11.069999900000001,-0.7422025203704834,-8.93037223815918,4.110844135284424,-2.3651123046875,2.1209716796875,-0.2593994140625
11.0899999,-0.7374141216278076,-8.9064302444458,4.125209331512451,-0.91552734375,0.6866455078125,0.396728515625
11.1099999,-0.7326257228851318,-8.901641845703125,4.144362926483154,0.0457763671875,0.18310546875,1.0528564453125
11.129999900000001,-0.7326257228851318,-8.908824920654297,4.146757125854492,0.3204345703125,0.274658203125,0.579833984375
11.149999900000001,-0.7374141216278076,-8.939949035644531,4.120420932769775,0.457763671875,0.152587890625,-0.2899169921875
11.1699999,-0.7398083209991455,-8.959102630615234,4.1156325340271,-0.67138671875,1.7547607421875,-0.823974609375
11.1899999,-0.7398083209991455,-8.971074104309082,4.089296340942383,-0.946044921875,0.9765625,-0.0457763671875
11.209999900000001,-0.7398083209991455,-8.96389102935791,4.084507942199707,-1.1444091796875,0.640869140625,-0.06103515625
11.229999900000001,-0.7422025203704834,-8.96389102935791,4.084507942199707,-0.640869140625,1.434326171875,-0.030517578125
11.2499999,-0.7398083209991455,-8.944737434387207,4.0964789390563965,-0.8697509765625,1.2054443359375,-0.9918212890625
11.2699999,-0.7374141216278076,-8.949525833129883,4.094084739685059,-0.2593994140625,0,0.274658203125
11.2899999,-0.7350199222564697,-8.937555313110352,4.0964789390563965,-0.518798828125,0.67138671875,0.213623046875
11.309999900000001,-0.730231523513794,-8.944737434387207,4.0964789390563965,0,1.52587890625,-0.4425048828125
11.3299999,-0.7326257228851318,-8.927978515625,4.091690540313721,0.091552734375,0.732421875,-1.2359619140625
11.3499999,-0.7350199222564697,-8.937555313110352,4.108449935913086,0.7781982421875,0.3204345703125,0.7476806640625
11.3699999,-0.7350199222564697,-8.93037223815918,4.108449935913086,0.6561279296875,0.18310546875,0.6561279296875
11.389999900000001,-0.7326257228851318,-8.93037223815918,4.110844135284424,-1.190185546875,0.54931640625,-0.5950927734375
11.4099999,-0.7254431247711182,-8.932766914367676,4.106055736541748,-1.2054443359375,1.89208984375,-0.4730224609375
11.4299999,-0.7230489253997803,-8.932766914367676,4.091690540313721,-0.06103515625,0.5950927734375,0.8697509765625
11.4499999,-0.7206547260284424,-8.932766914367676,4.1180267333984375,1.3580322265625,1.0833740234375,1.0833740234375
11.469999900000001,-0.7254431247711182,-8.937555313110352,4.120420932769775,1.190185546875,-0.4119873046875,-0.030517578125
11.4899999,-0.7398083209991455,-8.96389102935791,4.132391929626465,-0.0762939453125,-0.5340576171875,-0.30517578125
11.5099999,-0.7469909191131592,-8.973467826843262,4.122815132141113,-0.8392333984375,0.885009765625,-0.579833984375
11.5299999,-0.7493851184844971,-8.96149730682373,4.091690540313721,-0.18310546875,0.9918212890625,-1.0986328125
11.549999900000001,-0.7422025203704834,-8.944737434387207,4.082113742828369,0.4425048828125,1.2359619140625,0.0152587890625
11.569999900000001,-0.7326257228851318,-8.918401718139648,4.084507942199707,0.54931640625,0.79345703125,0.5645751953125
11.5899999,-0.730231523513794,-8.916007041931152,4.106055736541748,0.9307861328125,-0.274658203125,0.48828125
11.6099999,-0.730231523513794,-8.944737434387207,4.113238334655762,0.42724609375,0.0762939453125,-0.42724609375
11.629999900000001,-0.730231523513794,-8.956708908081055,4.129997730255127,-1.495361328125,1.800537109375,-2.25830078125
11.649999900000001,-0.727837324142456,-8.978256225585938,4.1180267333984375,-1.007080078125,1.1138916015625,-1.007080078125
11.6699999,-0.7182605266571045,-8.942343711853027,4.1180267333984375,0.7781982421875,0.1983642578125,-0.396728515625
11.6899999,-0.7086837291717529,-8.916007041931152,4.113238334655762,2.3345947265625,-0.1373291015625,0.4730224609375
11.709999900000001,-0.7038952708244324,-8.904036521911621,4.10366153717041,2.4261474609375,0.030517578125,0.4119873046875
11.729999900000001,-0.7038952708244324,-8.908824920654297,4.110844135284424,-0.579833984375,1.0986328125,-0.6561279296875
11.7499999,-0.706289529800415,-8.925583839416504,4.122815132141113,-2.6702880859375,1.6326904296875,-1.190185546875
11.7699999,-0.706289529800415,-8.923190116882324,4.144362926483154,-1.5411376953125,0.9918212890625,-0.732421875
11.7899999,-0.7038952708244324,-8.916007041931152,4.14915132522583,-0.1220703125,-0.091552734375,0.3814697265625
11.809999900000001,-0.706289529800415,-8.911218643188477,4.1395745277404785,0.640869140625,0.396728515625,0.7781982421875
11.8299999,-0.7086837291717529,-8.916007041931152,4.122815132141113,1.129150390625,1.2969970703125,-0.091552734375
11.8499999,-0.7182605266571045,-8.93037223815918,4.101267337799072,0.30517578125,0.8544921875,-0.4730224609375
11.8699999,-0.7254431247711182,-8.944737434387207,4.106055736541748,-1.1444091796875,1.1138916015625,-0.1983642578125
11.889999900000001,-0.7230489253997803,-8.937555313110352,4.1180267333984375,-1.5411376953125,0.885009765625,-0.457763671875
11.9099999,-0.7182605266571045,-8.949525833129883,4.122815132141113,-0.701904296875,0.4119873046875,-0.0762939453125
11.9299999,-0.7134721279144287,-8.944737434387207,4.125209331512451,-0.091552734375,0.732421875,-0.54931640625
11.9499999,-0.7110779285430908,-8.959102630615234,4.122815132141113,-0.4119873046875,1.1138916015625,-0.9613037109375
11.969999900000001,-0.7134721279144287,-8.968679428100586,4.125209331512451,0.1220703125,0.7781982421875,-1.1138916015625
11.9899999,-0.7110779285430908,-8.966285705566406,4.1180267333984375,0.54931640625,-0.396728515625,-1.4801025390625
12.0099999,-0.7015010714530945,-8.951920509338379,4.120420932769775,-0.2899169921875,0.9765625,-1.3427734375
12.0299999,-0.6919242739677429,-8.927978515625,4.10366153717041,-0.640869140625,1.3580322265625,-0.54931640625
12.049999900000001,-0.6799532771110535,-8.89685344696045,4.089296340942383,0.54931640625,1.1749267578125,-0.152587890625
12.069999900000001,-0.6799532771110535,-8.889671325683594,4.091690540313721,0.6866455078125,1.5869140625,0.54931640625
12.0899999,-0.6847416758537292,-8.9064302444458,4.106055736541748,1.190185546875,0.8697509765625,0.67138671875
12.1099999,-0.689530074596405,-8.925583839416504,4.1395745277404785,1.0528564453125,0.42724609375,-1.0528564453125
12.129999900000001,-0.6943184733390808,-8.951920509338379,4.158728122711182,0.1220703125,-0.091552734375,-1.068115234375
12.149999900000001,-0.6943184733390808,-8.939949035644531,4.168305397033691,-0.5035400390625,0.4425048828125,-0.823974609375
12.1699999,-0.6919242739677429,-8.932766914367676,4.158728122711182,-0.152587890625,1.251220703125,0.396728515625
12.1899999,-0.689530074596405,-8.901641845703125,4.1395745277404785,0.6103515625,0.9613037109375,0.335693359375
12.209999900000001,-0.6919242739677429,-8.899248123168945,4.122815132141113,0.0457763671875,0.4730224609375,0.1068115234375
12.229999900000001,-0.689530074596405,-8.911218643188477,4.120420932769775,-0.1373291015625,1.2664794921875,0.3509521484375
12.2499999,-0.689530074596405,-8.916007041931152,4.125209331512451,-0.701904296875,1.3275146484375,-0.4730224609375
12.2699999,-0.6871358752250671,-8.932766914367676,4.141968727111816,-0.2899169921875,0.8697509765625,-0.3509521484375
12.289999900000002,-0.6847416758537292,-8.942343711853027,4.158728122711182,0.244140625,-0.0152587890625,0.1068115234375
12.309999900000001,-0.6847416758537292,-8.949525833129883,4.1611223220825195,0.18310546875,-0.0457763671875,-0.4425048828125
12.3299999,-0.6871358752250671,-8.956708908081055,4.144362926483154,-1.1749267578125,0.54931640625,-0.91552734375
12.3499999,-0.6871358752250671,-8.947132110595703,4.125209331512451,-1.3885498046875,1.89208984375,-0.9918212890625
12.3699999,-0.6823474764823914,-8.93037223815918,4.0964789390563965,-0.2593994140625,1.0223388671875,-0.2593994140625
12.389999900000001,-0.6775590777397156,-8.911218643188477,4.086902141571045,0.8087158203125,0.732421875,0.2899169921875
12.4099999,-0.6751648783683777,-8.9064302444458,4.094084739685059,0.42724609375,1.6021728515625,0.0762939453125
12.4299999,-0.6775590777397156,-8.923190116882324,4.151545524597168,-0.6561279296875,0.5035400390625,-0.4730224609375
12.4499999,-0.6775590777397156,-8.939949035644531,4.173093795776367,-0.3662109375,0.42724609375,-0.1373291015625
12.469999900000001,-0.6751648783683777,-8.923190116882324,4.158728122711182,-0.3662109375,0.4425048828125,-1.068115234375
12.4899999,-0.6703764796257019,-8.916007041931152,4.129997730255127,-0.640869140625,1.6632080078125,-0.091552734375
12.5099999,-0.6727706789970398,-8.908824920654297,4.110844135284424,-0.2593994140625,2.288818359375,1.2969970703125
12.5299999,-0.6751648783683777,-8.911218643188477,4.113238334655762,-0.213623046875,1.2664794921875,-0.1983642578125
12.549999900000001,-0.6799532771110535,-8.93037223815918,4.137180328369141,-0.3204345703125,0.518798828125,-0.9918212890625
12.569999900000001,-0.6823474764823914,-8.947132110595703,4.156333923339844,-1.5106201171875,0.213623046875,-0.67138671875
12.5899999,-0.6775590777397156,-8.942343711853027,4.153939723968506,-1.6632080078125,1.129150390625,-0.335693359375
12.6099999,-0.6703764796257019,-8.925583839416504,4.127603530883789,-0.91552734375,0.9613037109375,-0.0762939453125
12.629999900000001,-0.6631938815116882,-8.923190116882324,4.106055736541748,0.1678466796875,1.617431640625,0.5035400390625
12.649999900000001,-0.6655880808830261,-8.913613319396973,4.094084739685059,0.0457763671875,1.2359619140625,0.0152587890625
12.6699999,-0.6703764796257019,-8.932766914367676,4.108449935913086,0.1068115234375,0.7171630859375,0.091552734375
12.6899999,-0.6823474764823914,-8.947132110595703,4.122815132141113,0.244140625,0.1068115234375,-0.579833984375
12.709999900000001,-0.6871358752250671,-8.966285705566406,4.125209331512451,-0.4119873046875,0.152587890625,-1.129150390625
12.729999900000001,-0.6847416758537292,-8.96149730682373,4.129997730255127,-1.9378662109375,1.7547607421875,-1.3427734375
12.7499999,-0.6751648783683777,-8.937555313110352,4.108449935913086,0.0457763671875,0.8392333984375,-0.54931640625
12.7699999,-0.6631938815116882,-8.89685344696045,4.110844135284424,1.03759765625,0.5950927734375,0.8544921875
12.789999900000002,-0.6631938815116882,-8.89685344696045,4.110844135284424,0.8087158203125,0.885009765625,1.8463134765625
12.809999900000001,-0.6703764796257019,-8.916007041931152,4.122815132141113,0.6103515625,0.762939453125,0.030517578125
12.8299999,-0.6823474764823914,-8.947132110595703,4.1395745277404785,-0.9307861328125,1.28173828125,-2.2125244140625
12.8499999,-0.6871358752250671,-8.956708908081055,4.146757125854492,-0.4425048828125,0.4730224609375,-1.220703125
12.8699999,-0.6823474764823914,-8.939949035644531,4.137180328369141,0.732421875,0.18310546875,0.8697509765625
12.889999900000001,-0.6727706789970398,-8.925583839416504,4.125209331512451,0.6256103515625,1.0833740234375,1.0833740234375
12.9099999,-0.6655880808830261,-8.923190116882324,4.1180267333984375,-0.091552734375,1.8463134765625,-0.5950927734375
12.9299999,-0.6631938815116882,-8.93037223815918,4.129997730255127,-0.3662109375,1.0223388671875,-1.007080078125
12.9499999,-0.6631938815116882,-8.935160636901855,4.141968727111816,0.18310546875,-0.1068115234375,0.2899169921875
12.969999900000001,-0.6631938815116882,-8.939949035644531,4.1611223220825195,0.5950927734375,0.396728515625,0.5035400390625
12.9899999,-0.6631938815116882,-8.93037223815918,4.137180328369141,-0.0152587890625,0.3662109375,-0.9307861328125
13.0099999,-0.6584054827690125,-8.927978515625,4.122815132141113,-0.5950927734375,1.708984375,-0.5645751953125
13.0299999,-0.6584054827690125,-8.918401718139648,4.10366153717041,0,1.64794921875,0.701904296875
13.049999900000001,-0.6631938815116882,-8.925583839416504,4.110844135284424,1.0223388671875,0.9002685546875,0.8087158203125
13.069999900000001,-0.667982280254364,-8.939949035644531,4.122815132141113,0.9307861328125,0.79345703125,-0.9002685546875
13.0899999,-0.6727706789970398,-8.937555313110352,4.137180328369141,-0.732421875,0.7476806640625,-1.7242431640625
13.1099999,-0.667982280254364,-8.925583839416504,4.153939723968506,-0.5645751953125,1.5869140625,0.518798828125
13.129999900000001,-0.6607996821403503,-8.9064302444458,4.153939723968506,0.7171630859375,0.6256103515625,1.7852783203125
13.149999900000001,-0.6584054827690125,-8.918401718139648,4.165910720825195,1.2969970703125,0.3204345703125,0.54931640625
13.1699999,-0.6584054827690125,-8.925583839416504,4.1611223220825195,-0.1068115234375,0.8087158203125,-2.2125244140625
13.1899999,-0.6631938815116882,-8.947132110595703,4.153939723968506,-1.068115234375,1.40380859375,-0.9307861328125
13.209999900000001,-0.6655880808830261,-8.935160636901855,4.1395745277404785,-0.7171630859375,1.6326904296875,0.67138671875
13.229999900000001,-0.6607996821403503,-8.918401718139648,4.132391929626465,-0.274658203125,1.0986328125,0.1983642578125
13.2499999,-0.6560112833976746,-8.911218643188477,4.134786128997803,-0.0762939453125,1.3885498046875,-0.4425048828125
13.2699999,-0.6536170840263367,-8.911218643188477,4.137180328369141,0.18310546875,0.5035400390625,0.0457763671875
13.289999900000002,-0.6512228846549988,-8.908824920654297,4.151545524597168,0.579833984375,0.701904296875,0.518798828125
13.309999900000001,-0.6512228846549988,-8.918401718139648,4.151545524597168,0.54931640625,0.6103515625,0.7781982421875
13.3299999,-0.6536170840263367,-8.932766914367676,4.158728122711182,-0.4730224609375,0.9613037109375,-0.274658203125
13.3499999,-0.6607996821403503,-8.944737434387207,4.146757125854492,-0.6561279296875,0.701904296875,-1.007080078125
13.3699999,-0.6631938815116882,-8.935160636901855,4.146757125854492,0.091552734375,1.1749267578125,-0.457763671875
13.389999900000001,-0.667982280254364,-8.925583839416504,4.137180328369141,0.244140625,1.46484375,0.5340576171875
13.4099999,-0.667982280254364,-8.904036521911621,4.141968727111816,-0.1220703125,1.03759765625,0.4730224609375
13.4299999,-0.6631938815116882,-8.9064302444458,4.153939723968506,-0.4119873046875,0.91552734375,0.1220703125
13.4499999,-0.6631938815116882,-8.911218643188477,4.153939723968506,-0.0152587890625,0.1983642578125,-0.1373291015625
13.469999900000001,-0.6631938815116882,-8.927978515625,4.1611223220825195,-1.2664794921875,1.373291015625,-0.1220703125
13.4899999,-0.6631938815116882,-8.920795440673828,4.144362926483154,-1.129150390625,1.6326904296875,-0.5645751953125
13.5099999,-0.6655880808830261,-8.927978515625,4.1395745277404785,-0.4730224609375,1.129150390625,0.213623046875
13.5299999,-0.6655880808830261,-8.927978515625,4.153939723968506,0.1220703125,1.678466796875,0.54931640625
13.549999900000001,-0.6631938815116882,-8.923190116882324,4.151545524597168,-0.823974609375,0.1983642578125,-0.4119873046875
13.569999900000001,-0.6631938815116882,-8.925583839416504,4.1611223220825195,-1.3580322265625,1.1444091796875,-0.274658203125
13.5899999,-0.6631938815116882,-8.911218643188477,4.146757125854492,-0.9307861328125,1.0833740234375,0.2593994140625
13.6099999,-0.667982280254364,-8.920795440673828,4.141968727111816,-0.3204345703125,1.6021728515625,0.946044921875
13.629999900000001,-0.667982280254364,-8.925583839416504,4.1395745277404785,-0.640869140625,1.2054443359375,-0.06103515625
13.649999900000001,-0.6655880808830261,-8.923190116882324,4.132391929626465,-1.3275146484375,0.1068115234375,-1.3427734375
13.6699999,-0.6560112833976746,-8.918401718139648,4.144362926483154,-0.5950927734375,0.9765625,0.701904296875
13.6899999,-0.6512228846549988,-8.899248123168945,4.122815132141113,-0.152587890625,0.67138671875,1.5106201171875
13.709999900000001,-0.6488286852836609,-8.916007041931152,4.137180328369141,0.732421875,1.46484375,1.3885498046875
13.729999900000001,-0.6560112833976746,-8.932766914367676,4.127603530883789,-0.6256103515625,0.67138671875,-0.67138671875
13.7499999,-0.6655880808830261,-8.954314231872559,4.137180328369141,-1.5716552734375,0.396728515625,-0.8544921875
13.7699999,-0.6703764796257019,-8.96149730682373,4.122815132141113,-0.0152587890625,0.6866455078125,0.6256103515625
13.789999900000002,-0.6703764796257019,-8.951920509338379,4.122815132141113,0.9918212890625,1.2054443359375,0.8087158203125
13.809999900000001,-0.6703764796257019,-8.937555313110352,4.108449935913086,-0.274658203125,1.03759765625,-0.3662109375
13.8299999,-0.6727706789970398,-8.942343711853027,4.113238334655762,-2.044677734375,0.8392333984375,-0.030517578125
13.8499999,-0.6751648783683777,-8.935160636901855,4.122815132141113,-1.617431640625,1.89208984375,0.1373291015625
13.8699999,-0.6751648783683777,-8.935160636901855,4.125209331512451,-0.9613037109375,1.220703125,-0.0152587890625
13.889999900000001,-0.6727706789970398,-8.925583839416504,4.14915132522583,-0.6866455078125,1.2054443359375,-0.0762939453125
13.9099999,-0.6703764796257019,-8.923190116882324,4.14915132522583,0.18310546875,-0.2593994140625,0.4425048828125
13.9299999,-0.667982280254364,-8.923190116882324,4.144362926483154,-0.1678466796875,0.0762939453125,0.5035400390625
13.9499999,-0.667982280254364,-8.923190116882324,4.098873138427734,-1.190185546875,1.6326904296875,-0.0457763671875
13.969999900000001,-0.6655880808830261,-8.918401718139648,4.108449935913086,-0.9002685546875,1.495361328125,0.7171630859375
13.9899999,-0.6631938815116882,-8.918401718139648,4.1156325340271,-1.373291015625,0.18310546875,1.190185546875
14.0099999,-0.6655880808830261,-8.93037223815918,4.122815132141113,-1.800537109375,0.2593994140625,1.03759765625
14.0299999,-0.6703764796257019,-8.944737434387207,4.120420932769775,-0.9918212890625,1.5106201171875,-0.213623046875
14.049999900000001,-0.6847416758537292,-8.968679428100586,4.089296340942383,0.1220703125,0.5645751953125,-0.06103515625
14.069999900000001,-0.6943184733390808,-8.98543930053711,4.084507942199707,0.0762939453125,1.3427734375,0.335693359375
14.0899999,-0.7015010714530945,-8.992621421813965,4.0749311447143555,-1.3885498046875,1.4495849609375,-0.701904296875
14.1099999,-0.706289529800415,-9.006986618041992,4.0749311447143555,-2.99072265625,1.5869140625,-1.3885498046875
14.129999900000001,-0.7038952708244324,-9.016563415527344,4.077325344085693,-2.7618408203125,2.01416015625,-1.6326904296875
14.149999900000001,-0.6919242739677429,-8.995016098022461,4.079719543457031,-3.3416748046875,2.227783203125,-2.349853515625
14.1699999,-0.6799532771110535,-8.954314231872559,4.067748546600342,-3.72314453125,1.739501953125,-1.1749267578125
14.1899999,-0.6655880808830261,-8.923190116882324,4.067748546600342,-3.96728515625,2.3345947265625,1.2359619140625
14.209999900000001,-0.6584054827690125,-8.89685344696045,4.05817174911499,-4.0130615234375,2.38037109375,1.0833740234375
14.229999900000001,-0.6560112833976746,-8.904036521911621,4.048594951629639,-2.99072265625,1.556396484375,0.1678466796875
14.2499999,-0.6584054827690125,-8.920795440673828,4.046200752258301,-3.6773681640625,1.5869140625,0.152587890625
14.2699999,-0.6631938815116882,-8.944737434387207,4.043806552886963,-3.5552978515625,2.1514892578125,1.46484375
14.289999900000002,-0.6751648783683777,-8.947132110595703,4.02465295791626,-3.4637451171875,1.2054443359375,1.0986328125
14.309999900000001,-0.6871358752250671,-8.951920509338379,4.003105163574219,-5.9356689453125,1.983642578125,1.2054443359375
14.3299999,-0.6967126727104187,-8.978256225585938,3.9839515686035156,-8.60595703125,3.96728515625,2.777099609375
14.3499999,-0.7015010714530945,-8.973467826843262,3.9432501792907715,-8.9263916015625,2.471923828125,1.6632080078125
14.3699999,-0.706289529800415,-8.99740982055664,3.931279182434082,-6.3934326171875,2.7313232421875,2.227783203125
14.389999900000001,-0.7134721279144287,-9.002198219299316,3.907337188720703,-4.0283203125,2.4261474609375,3.1890869140625
14.4099999,-0.730231523513794,-9.038111686706543,3.9001545906066895,-4.94384765625,2.99072265625,3.47900390625
14.4299999,-0.7445967197418213,-9.057265281677246,3.88818359375,-5.7525634765625,2.6092529296875,1.3885498046875
14.4499999,-0.751779317855835,-9.078812599182129,3.8738183975219727,-4.4708251953125,1.4495849609375,0.1220703125
14.469999900000001,-0.7493851184844971,-9.0859956741333,3.8570590019226074,-3.326416015625,1.9378662109375,1.46484375
14.4899999,-0.7493851184844971,-9.074024200439453,3.8331170082092285,-2.6397705078125,2.0599365234375,1.40380859375
14.5099999,-0.7589619159698486,-9.07641887664795,3.823540210723877,-3.204345703125,2.9296875,1.2054443359375
14.5299999,-0.7709329724311829,-9.069235801696777,3.823540210723877,-4.69970703125,2.8533935546875,0.4730224609375
14.549999900000001,-0.7829039692878723,-9.078812599182129,3.8331170082092285,-4.7760009765625,1.6937255859375,1.068115234375
14.569999900000001,-0.7829039692878723,-9.069235801696777,3.8307228088378906,-3.7841796875,1.15966796875,0.885009765625
14.5899999,-0.7781155705451965,-9.059659004211426,3.799597978591919,-2.86865234375,1.0528564453125,1.007080078125
14.6099999,-0.7781155705451965,-9.05487060546875,3.77565598487854,-3.1280517578125,2.7313232421875,1.6326904296875
14.629999900000001,-0.7852981686592102,-9.071630477905273,3.758896589279175,-3.35693359375,2.7313232421875,2.1820068359375
14.649999900000001,-0.7972691655158997,-9.081207275390625,3.7493197917938232,-3.692626953125,1.1749267578125,0.518798828125
14.6699999,-0.8068459630012512,-9.100360870361328,3.7493197917938232,-4.058837890625,1.2664794921875,0.335693359375
14.6899999,-0.8044517636299133,-9.093177795410156,3.734954595565796,-3.8909912109375,1.922607421875,1.2359619140625
14.709999900000001,-0.7948749661445618,-9.069235801696777,3.7038300037384033,-3.7384033203125,1.8463134765625,2.410888671875
14.729999900000001,-0.7972691655158997,-9.074024200439453,3.691859006881714,-4.2266845703125,2.62451171875,3.326416015625
14.7499999,-0.8068459630012512,-9.107542991638184,3.687070608139038,-3.8299560546875,2.1514892578125,2.3651123046875
14.7699999,-0.8236053586006165,-9.131484985351562,3.691859006881714,-3.814697265625,1.3885498046875,-1.0833740234375
14.789999900000002,-0.8331822156906128,-9.141061782836914,3.689464807510376,-3.2196044921875,1.220703125,-0.3814697265625
14.809999900000001,-0.8355764150619507,-9.133879661560059,3.6583402156829834,-1.89208984375,1.251220703125,2.99072265625
14.8299999,-0.8331822156906128,-9.119514465332031,3.648763418197632,-1.77001953125,2.2430419921875,2.3040771484375
14.8499999,-0.8355764150619507,-9.126696586608887,3.6391866207122803,-0.4119873046875,1.64794921875,-0.244140625
14.8699999,-0.8379706144332886,-9.136273384094238,3.6511576175689697,0.0457763671875,0.244140625,-0.8697509765625
14.889999900000001,-0.8403648138046265,-9.131484985351562,3.663128614425659,-0.6561279296875,0.091552734375,0.9918212890625
14.9099999,-0.8451532125473022,-9.124302864074707,3.6535518169403076,-0.762939453125,0.9002685546875,1.9989013671875
14.9299999,-0.8547300100326538,-9.133879661560059,3.641580820083618,0.18310546875,1.434326171875,0.9613037109375
14.9499999,-0.8690952062606812,-9.148244857788086,3.6296098232269287,-0.2288818359375,1.190185546875,-0.8392333984375
14.969999900000001,-0.8762778043746948,-9.153033256530762,3.6391866207122803,-0.7171630859375,1.129150390625,-0.7171630859375
14.9899999,-0.8762778043746948,-9.129091262817383,3.627215623855591,-0.48828125,0.18310546875,0.762939453125
15.0099999,-0.8619126081466675,-9.074024200439453,3.627215623855591,-1.2054443359375,1.5106201171875,1.617431640625
15.0299999,-0.8475474119186401,-9.028534889221191,3.6104562282562256,-1.1749267578125,2.4566650390625,3.0059814453125
15.049999900000001,-0.8451532125473022,-9.030928611755371,3.6176388263702393,-1.2664794921875,1.9989013671875,4.4403076171875
15.069999900000001,-0.8475474119186401,-9.045293807983398,3.643975019454956,-2.4566650390625,1.8157958984375,3.0517578125
15.0899999,-0.8619126081466675,-9.059659004211426,3.6607344150543213,-4.791259765625,0.9918212890625,1.1749267578125
15.1099999,-0.8762778043746948,-9.062053680419922,3.663128614425659,-5.2337646484375,1.7852783203125,4.2877197265625
15.129999900000001,-0.8978256583213806,-9.064447402954102,3.5889084339141846,-6.866455078125,2.0294189453125,6.988525390625
15.149999900000001,-0.9169792532920837,-9.050082206726074,3.5266590118408203,-5.767822265625,4.2877197265625,6.4849853515625
15.1699999,-0.9624691009521484,-9.097966194152832,3.4572272300720215,-12.451171875,7.904052734375,6.805419921875
15.1899999,-0.9911994934082031,-9.186552047729492,3.450044631958008,-25.3753662109375,9.46044921875,11.688232421875
15.209999900000001,-1.0223240852355957,-9.287108421325684,3.4739866256713867,-36.92626953125,9.6588134765625,9.490966796875
15.229999900000001,-1.0797849893569946,-9.457097053527832,3.5697548389434814,-37.7655029296875,11.1541748046875,8.3465576171875
15.2499999,-1.1659762859344482,-9.871294021606445,3.706224203109741,-24.5361328125,12.4969482421875,14.556884765625
15.2699999,-1.3527239561080933,-10.539276123046875,3.8714241981506348,-30.0750732421875,12.20703125,8.7738037109375
15.289999900000002,-1.5634137392044067,-11.547234535217285,4.228160381317139,-41.259765625,16.2506103515625,-5.67626953125
15.309999900000001,-1.8171991109848022,-12.847286224365234,4.738125324249268,-57.8155517578125,15.0146484375,-18.798828125
15.3299999,-2.0661959648132324,-14.439430236816406,5.183446884155273,-63.4307861328125,-6.0577392578125,-26.702880859375
15.3499999,-2.2888567447662354,-16.10579490661621,5.51624059677124,-70.6787109375,-11.962890625,-52.6123046875
15.3699999,-2.4875755310058594,-17.48724937438965,5.377377033233643,-88.68408203125,-11.0321044921875,-98.2513427734375
15.389999900000001,-2.6360161304473877,-18.188751220703125,4.824316501617432,-84.747314453125,-13.3056640625,-131.5765380859375
15.4099999,-2.736572504043579,-18.035520553588867,4.1180267333984375,-63.4765625,-7.26318359375,-140.350341796875
15.4299999,-2.7461493015289307,-17.034744262695312,3.4308910369873047,-59.4482421875,-10.3912353515625,-150.390625
15.4499999,-2.6384103298187256,-15.222334861755371,2.851494312286377,-68.8629150390625,-21.087646484375,-184.14306640625
15.469999900000001,-2.3343467712402344,-12.90714168548584,2.3080103397369385,-66.58935546875,-28.13720703125,-192.8253173828125
15.4899999,-1.0462661981582642,-7.108384609222412,0.9433154463768005,-35.2935791015625,-28.9459228515625,-160.21728515625
15.5099999,-0.17238251864910126,-4.309563159942627,0.1173158809542656,-31.9366455078125,-24.6734619140625,-145.7061767578125
15.5299999,0.751779317855835,-1.8770540952682495,-0.6368576288223267,-32.928466796875,-8.8348388671875,-130.1116943359375
15.549999900000001,1.6663644313812256,0.27054479718208313,-1.2449848651885986,-30.6243896484375,-5.8441162109375,-108.489990234375
15.569999900000001,2.5306711196899414,2.2146365642547607,-1.6136919260025024,-28.167724609375,-7.3699951171875,-74.76806640625
15.5899999,3.3231520652770996,3.974374771118164,-1.8363527059555054,-19.34814453125,-2.7313232421875,-28.7628173828125
15.6099999,3.950432777404785,5.518634796142578,-2.056619167327881,-8.8043212890625,2.3193359375,19.622802734375
15.629999900000001,4.331110954284668,6.660669326782227,-2.300827741622925,5.0811767578125,10.43701171875,73.2574462890625
15.649999900000001,4.3861775398254395,7.158663272857666,-2.4133553504943848,22.03369140625,25.0396728515625,132.537841796875
15.6699999,4.10366153717041,7.1706342697143555,-2.2625205516815186,16.143798828125,35.858154296875,176.26953125
15.6899999,3.442862033843994,6.947973251342773,-1.6639702320098877,-3.448486328125,35.0799560546875,220.3521728515625
15.709999900000001,1.6424223184585571,5.60722017288208,-0.5195417404174805,27.9541015625,15.472412109375,319.610595703125
15.729999900000001,-0.9624691009521484,1.9081788063049316,0.3423708379268646,188.9801025390625,-21.942138671875,440.8416748046875
15.7499999,-4.525041103363037,-4.1156325340271,1.580173134803772,212.0513916015625,27.5726318359375,374.1607666015625
15.7699999,-7.8098859786987305,-12.538434028625488,2.8778305053710938,62.7899169921875,94.7113037109375,251.373291015625
15.789999900000002,-9.84256362915039,-20.130447387695312,4.189853191375732,-23.101806640625,50.4913330078125,113.0218505859375
15.809999900000001,-10.168174743652344,-24.961946487426758,5.583278179168701,-21.9268798828125,-2.4871826171875,45.501708984375
15.8299999,-9.265560150146484,-26.999412536621094,6.473921298980713,30.914306640625,-13.916015625,90.1641845703125
15.8499999,-7.888894557952881,-26.817453384399414,6.3949127197265625,37.567138671875,-19.95849609375,71.502685546875
15.869999900000002,-6.813898086547852,-26.034549713134766,5.928043365478516,-9.5672607421875,-3.5552978515625,-27.9541015625
15.889999900000001,-6.160281181335449,-24.959552764892578,5.233725070953369,-47.9736328125,6.4849853515625,-105.4534912109375
15.9099999,-5.882553577423096,-23.494300842285156,4.72376012802124,-36.041259765625,-9.490966796875,-123.8250732421875
15.9299999,-5.892130374908447,-21.672313690185547,4.4532151222229,-11.6119384765625,-27.34375,-133.026123046875
15.9499999,-6.133944988250732,-19.835960388183594,4.278438568115234,-13.12255859375,-37.4298095703125,-172.882080078125
15.969999900000001,-6.40927791595459,-18.114530563354492,4.005499362945557,-35.2783203125,-36.9415283203125,-226.470947265625
15.9899999,-6.4834980964660645,-16.074670791625977,3.6846764087677,-60.1654052734375,-28.0303955078125,-265.045166015625
16.0099999,-6.119579315185547,-13.618219375610352,3.069366693496704,-55.450439453125,-38.6505126953125,-259.033203125
16.0299999,-5.197812080383301,-10.711658477783203,2.298433542251587,-31.280517578125,-43.4112548828125,-240.5548095703125
16.0499999,-3.869029998779297,-7.592013359069824,1.41257905960083,-32.6385498046875,-31.524658203125,-248.321533203125
16.0699999,-2.2457611560821533,-4.558559894561768,0.3998316824436188,-45.7611083984375,-26.9317626953125,-246.185302734375
16.089999900000002,-0.4644751250743866,-1.5466543436050415,-0.4836287498474121,-53.558349609375,-20.355224609375,-218.5821533203125
16.109999900000002,1.3623007535934448,1.4317326545715332,-1.2449848651885986,-41.473388671875,-12.6800537109375,-177.4139404296875
16.1299999,3.098097085952759,4.321534156799316,-1.8195933103561401,-34.3170166015625,-5.7373046875,-135.1776123046875
16.1499999,4.594472885131836,7.003039836883545,-2.169146776199341,-36.6973876953125,0.244140625,-79.986572265625
16.1699999,5.717353820800781,9.361329078674316,-2.31758713722229,-18.890380859375,0.1068115234375,0.4425048828125
16.1899999,6.222530364990234,11.042057991027832,-2.3127987384796143,4.6844482421875,-0.8392333984375,92.1478271484375
16.2099999,6.064512729644775,11.48259162902832,-2.3511061668395996,29.7088623046875,1.03759765625,173.4771728515625
16.2299999,5.303156852722168,11.08994197845459,-2.2361843585968018,19.1802978515625,20.4010009765625,203.369140625
16.249999900000002,4.0294413566589355,9.952696800231934,-1.922544002532959,5.584716796875,32.1197509765625,245.8953857421875
16.269999900000002,1.8531121015548706,8.214506149291992,-1.113303780555725,50.47607421875,15.8538818359375,336.9903564453125
16.2899999,-1.0630255937576294,4.501099109649658,-0.19393034279346466,223.907470703125,-4.45556640625,462.7685546875
16.3099999,-4.704606533050537,-1.1252747774124146,1.1252747774124146,202.4688720703125,46.7529296875,438.4613037109375
16.3299999,-8.734047889709473,-9.342175483703613,2.873042106628418,-9.33837890625,117.950439453125,331.4056396484375
16.3499999,-11.949460983276367,-18.4688720703125,4.666299343109131,-0.1373291015625,73.1964111328125,238.7542724609375
16.3699999,-13.941436767578125,-26.400861740112305,6.490680694580078,53.8330078125,-1.983642578125,122.7264404296875
16.3899999,-14.346056938171387,-32.103851318359375,7.814674377441406,-3.35693359375,-0.274658203125,30.94482421875
16.4099999,-13.235146522521973,-34.416648864746094,8.26478385925293,-37.2772216796875,11.383056640625,-58.5174560546875
16.429999900000002,-11.293449401855469,-33.803733825683594,7.817068576812744,-34.515380859375,-12.1917724609375,-118.4539794921875
16.4499999,-9.224859237670898,-31.088708877563477,7.177816867828369,-33.111572265625,-12.786865234375,-130.2642822265625
16.4699999,-7.601590633392334,-27.28671646118164,6.081272125244141,-44.5098876953125,-23.37646484375,-164.9932861328125
16.4899999,-6.651092529296875,-23.228544235229492,5.200206279754639,-61.126708984375,-25.0244140625,-219.573974609375
16.5099999,-6.22731876373291,-19.402610778808594,4.256890773773193,-67.6422119140625,-30.0750732421875,-248.2147216796875
16.5299999,-5.985504150390625,-15.658079147338867,3.4117374420166016,-58.2122802734375,-39.9017333984375,-254.4708251953125
16.5499999,-5.635950565338135,-12.133813858032227,2.5450363159179688,-48.9654541015625,-39.8712158203125,-255.828857421875
16.5699999,-4.977545261383057,-8.827422142028809,1.6615760326385498,-54.5806884765625,-36.68212890625,-261.2457275390625
16.589999900000002,-3.9480385780334473,-5.719748020172119,0.7996633648872375,-61.6607666015625,-32.470703125,-263.4429931640625
16.609999900000002,-2.52109432220459,-2.7485435009002686,-0.05267243832349777,-49.8046875,-29.6783447265625,-243.1793212890625
16.6299999,-0.7852981686592102,0.17956513166427612,-0.8307880163192749,-39.61181640625,-22.308349609375,-211.7767333984375
16.6499999,1.115697979927063,2.980781078338623,-1.4987702369689941,-36.834716796875,-8.1634521484375,-177.8717041015625
16.6699999,3.002328872680664,5.6455278396606445,-2.0039467811584473,-39.4744873046875,-1.9683837890625,-138.8397216796875
16.6899999,4.716577529907227,8.188169479370117,-2.279279947280884,-38.8641357421875,-1.922607421875,-83.2061767578125
16.7099999,6.030993938446045,10.512939453125,-2.3942017555236816,-27.3284912109375,-2.197265625,-0.6561279296875
16.7299999,6.722918510437012,12.05959415435791,-2.5067291259765625,3.0517578125,-3.2806396484375,103.363037109375
16.749999900000002,6.7061591148376465,12.631808280944824,-2.58813214302063,31.2652587890625,5.6304931640625,177.9022216796875
16.769999900000002,5.983109951019287,12.205639839172363,-2.607285737991333,24.8565673828125,18.6004638671875,217.8955078125
16.7899999,4.529829502105713,10.893617630004883,-2.456450939178467,6.34765625,23.162841796875,279.8614501953125
16.8099999,2.2697031497955322,8.322244644165039,-2.145204782485962,28.99169921875,18.1121826171875,361.572265625
16.8299999,-0.33758243918418884,4.67827033996582,-1.335964560508728,131.9580078125,24.71923828125,396.820068359375
16.8499999,-3.5170822143554688,0.1388636976480484,-0.1843535304069519,146.4080810546875,32.470703125,355.9417724609375
16.8699999,-7.273584842681885,-6.2847795486450195,1.0582371950149536,86.669921875,23.7274169921875,401.9012451171875
16.8899999,-10.802638053894043,-14.104242324829102,2.7533318996429443,71.0601806640625,78.460693359375,435.760498046875
16.9099999,-13.82172679901123,-21.787235260009766,4.3191399574279785,27.6031494140625,74.6307373046875,222.5189208984375
16.929999900000002,-15.691597938537598,-28.352136611938477,5.073313236236572,-43.7469482421875,-5.5999755859375,15.289306640625
16.9499999,-15.89271068572998,-32.88196563720703,5.8873419761657715,8.1634521484375,6.805419921875,31.707763671875
16.9699999,-14.774619102478027,-33.557132720947266,5.932831764221191,16.6473388671875,21.54541015625,-34.027099609375
16.9899999,-12.990938186645508,-32.091880798339844,5.743690013885498,-21.97265625,-11.016845703125,-128.72314453125
17.0099999,-11.106701850891113,-29.29066276550293,5.681440830230713,-28.5186767578125,-17.4102783203125,-147.186279296875
17.0299999,-8.485051155090332,-21.849485397338867,4.58968448638916,-37.4755859375,-38.3758544921875,-236.5875244140625
17.0499999,-7.872135162353516,-18.392257690429688,3.7014358043670654,-54.473876953125,-33.5845947265625,-267.2119140625
17.0699999,-7.29034423828125,-14.913482666015625,2.80361008644104,-58.4716796875,-31.036376953125,-282.2418212890625
17.089999900000002,-6.512228488922119,-11.39400577545166,1.8626888990402222,-60.5316162109375,-33.6456298828125,-292.4652099609375
17.109999900000002,-5.363011837005615,-7.994239330291748,0.912190854549408,-46.600341796875,-37.8570556640625,-278.7933349609375
17.1299999,-3.847482204437256,-4.702212333679199,-0.0694318488240242,-38.970947265625,-28.1829833984375,-266.4337158203125
17.1499999,-2.030282974243164,-1.5705963373184204,-1.0342950820922852,-64.4989013671875,-13.3209228515625,-261.810302734375
17.1699999,-0.05746084079146385,1.3527239561080933,-1.9105730056762695,-77.4993896484375,-1.6326904296875,-236.02294921875
17.1899999,1.9632453918457031,4.1611223220825195,-2.559401512145996,-65.8111572265625,7.2021484375,-187.8509521484375
17.2099999,3.909731388092041,6.907271862030029,-2.8802247047424316,-47.5616455078125,19.8211669921875,-131.9580078125
17.2299999,5.590460777282715,9.48343276977539,-2.8155810832977295,-38.5589599609375,26.519775390625,-63.507080078125
17.249999900000002,6.821080684661865,11.743558883666992,-2.4396915435791016,-11.7034912109375,16.4947509765625,31.4178466796875
17.269999900000002,7.343016624450684,13.12261962890625,-1.8124107122421265,7.4615478515625,7.2784423828125,137.847900390625
17.2899999,7.086836814880371,13.287819862365723,-1.1971008777618408,21.5911865234375,5.7220458984375,214.8590087890625
17.3099999,5.992686748504639,12.270283699035645,-0.6536170840263367,17.5018310546875,8.392333984375,247.0245361328125
17.3299999,4.19224739074707,10.266336441040039,-0.17956513166427612,11.138916015625,8.3465576171875,292.54150390625
17.3499999,1.5107412338256836,7.457938194274902,0.45250412821769714,44.036865234375,-0.67138671875,356.5216064453125
17.3699999,-1.9560627937316895,2.9257144927978516,1.1492167711257935,157.0892333984375,-19.2718505859375,438.995361328125
17.3899999,-5.726930618286133,-3.421314239501953,1.1635819673538208,168.45703125,-25.604248046875,429.87060546875
17.409999900000003,-9.670180320739746,-10.94150161743164,1.9297266006469727,-46.0357666015625,77.1942138671875,285.6903076171875
17.429999900000002,-12.883199691772461,-19.213468551635742,2.1140801906585693,-104.4158935546875,72.784423828125,228.302001953125
17.4499999,-14.901511192321777,-26.343400955200195,2.564189910888672,38.9862060546875,-22.9644775390625,199.3865966796875
17.4699999,-15.559916496276855,-31.54839515686035,3.023876667022705,49.4537353515625,-22.979736328125,71.9451904296875
17.4899999,-14.652514457702637,-34.03357696533203,2.8227639198303223,-29.937744140625,-0.6866455078125,-62.347412109375
17.5099999,-12.627019882202148,-33.69599533081055,2.4396915435791016,-38.6810302734375,8.48388671875,-113.2049560546875
17.5299999,-10.24239444732666,-31.007307052612305,1.920149803161621,-16.4794921875,-4.608154296875,-116.6534423828125
17.5499999,-8.209717750549316,-27.066450119018555,1.4987702369689941,-11.5966796875,-18.2952880859375,-149.993896484375
17.5699999,-6.936002254486084,-23.199813842773438,1.2234370708465576,-27.191162109375,-12.8021240234375,-194.244384765625
17.589999900000002,-6.325480937957764,-19.560626983642578,1.05105459690094,-45.2117919921875,-8.2550048828125,-236.328125
17.609999900000002,-5.9974751472473145,-16.16325569152832,0.8547300100326538,-47.9583740234375,-17.1661376953125,-254.9285888671875
17.6299999,-5.5760955810546875,-12.859257698059082,0.6560112833976746,-37.0025634765625,-20.6451416015625,-252.532958984375
17.6499999,-4.807557106018066,-9.524134635925293,0.2801215946674347,-25.0396728515625,-17.5933837890625,-258.2550048828125
17.6699999,-3.648763418197632,-6.196194171905518,-0.28730419278144836,-24.444580078125,-18.0206298828125,-267.608642578125
17.6899999,-2.1499931812286377,-2.942473888397217,-0.8930372595787048,-25.69580078125,-11.3677978515625,-246.9635009765625
17.7099999,-0.3902548849582672,0.17477671802043915,-1.5059528350830078,-20.2484130859375,-2.899169921875,-205.26123046875
17.7299999,1.4437036514282227,3.0334534645080566,-1.8171991109848022,-21.78955078125,9.94873046875,-173.6297607421875
17.749999900000002,3.2130186557769775,5.537788391113281,-1.9728221893310547,-24.96337890625,6.1187744140625,-138.1683349609375
17.769999900000002,4.757278919219971,7.759607791900635,-1.8555063009262085,-27.2064208984375,0.1983642578125,-82.427978515625
17.7899999,5.963956356048584,9.785101890563965,-1.6639702320098877,-13.00048828125,-0.42724609375,-3.0364990234375
17.8099999,6.627150535583496,11.405977249145508,-1.4437036514282227,-2.0751953125,0.0762939453125,88.2415771484375
17.8299999,6.751648902893066,12.320562362670898,-1.278503656387329,19.2108154296875,-5.1727294921875,180.3741455078125
17.8499999,6.2847795486450195,13.153743743896484,-0.730231523513794,20.4925537109375,-0.8087158203125,244.1558837890625
17.8699999,4.671087741851807,13.412318229675293,0.016759412363171577,19.683837890625,-26.7486572265625,353.515625
17.8899999,1.3551181554794312,11.408370971679688,0.8188169598579407,110.3057861328125,-73.6846923828125,499.9847412109375
17.909999900000003,-3.1244332790374756,6.145915985107422,1.4293384552001953,245.17822265625,-57.6934814453125,499.9847412109375
17.929999900000002,-8.540117263793945,-2.207453966140747,1.680729627609253,110.7025146484375,21.697998046875,405.1666259765625
17.9499999,-13.706804275512695,-12.72757625579834,2.097320795059204,-75.1800537109375,72.6470947265625,241.63818359375
17.9699999,-17.38190460205078,-22.996307373046875,2.612074136734009,-10.0250244140625,34.36279296875,220.611572265625
17.9899999,-19.19192123413086,-30.55959129333496,3.0095114707946777,33.8287353515625,-27.984619140625,112.152099609375
18.0099999,-18.95489501953125,-34.71592330932617,3.315969467163086,-31.9976806640625,-3.90625,-37.445068359375
18.0299999,-17.041927337646484,-35.73585510253906,2.892195701599121,-29.1290283203125,15.869140625,-82.4432373046875
18.0499999,-14.480132102966309,-33.775001525878906,2.2840683460235596,-22.491455078125,2.6092529296875,-111.6943359375
18.0699999,-12.167332649230957,-30.45185089111328,1.800439715385437,-18.7835693359375,-1.1444091796875,-170.4254150390625
18.089999900000002,-10.680533409118652,-26.625917434692383,1.3838485479354858,-30.5328369140625,-7.01904296875,-246.7193603515625
18.109999900000002,-9.928754806518555,-22.78082847595215,1.256955862045288,-48.1109619140625,-1.9989013671875,-289.886474609375
18.1299999,-9.473855972290039,-18.938135147094727,1.0965443849563599,-29.2510986328125,-8.1024169921875,-301.3763427734375
18.1499999,-9.038111686706543,-15.210363388061523,0.8259995579719543,-12.420654296875,-20.8282470703125,-323.18115234375
18.1699999,-8.44195556640625,-11.719616889953613,0.3663128614425659,-9.2926025390625,-14.58740234375,-356.2469482421875
18.1899999,-7.419631004333496,-8.185775756835938,-0.33039984107017517,-28.50341796875,2.3651123046875,-381.4544677734375
18.2099999,-5.9304375648498535,-4.3622355461120605,-0.8164227604866028,-51.7730712890625,25.69580078125,-372.467041015625
18.2299999,-3.8977603912353516,-0.45010992884635925,-1.1420341730117798,-29.2816162109375,20.660400390625,-311.9964599609375
18.249999900000002,-1.414973258972168,3.3638534545898438,-1.3024457693099976,-1.64794921875,2.8533935546875,-259.7198486328125
18.269999900000002,1.2186486721038818,6.823474884033203,-1.2641384601593018,-33.87451171875,16.2200927734375,-250.1373291015625
18.2899999,3.801992416381836,10.254365921020508,-1.1085153818130493,-71.7620849609375,30.5938720703125,-225.006103515625
18.3099999,5.975927352905273,13.759477615356445,-0.8619126081466675,-69.580078125,12.6495361328125,-119.7052001953125
18.3299999,7.491456985473633,16.862361907958984,-0.5913678407669067,-6.9732666015625,-15.1214599609375,49.774169921875
18.3499999,8.054094314575195,18.76096534729004,-0.3256114423274994,46.32568359375,-10.68115234375,176.26953125
18.3699999,7.556100368499756,18.804059982299805,-0.4165911078453064,47.027587890625,-10.711669921875,236.053466796875
18.3899999,6.143521785736084,17.19036865234375,-0.5171475410461426,62.4237060546875,-9.5977783203125,289.48974609375
18.409999900000003,3.8379054069519043,14.516044616699219,-0.6871358752250671,57.220458984375,-0.3204345703125,356.903076171875
18.429999900000002,0.7158663272857666,10.702081680297852,-0.7422025203704834,46.2646484375,5.4931640625,444.3359375
18.4499999,-2.8395233154296875,6.186617374420166,-0.4381389021873474,134.2620849609375,12.3443603515625,478.7139892578125
18.4699999,-6.998251438140869,0.8547300100326538,0.2346317619085312,143.85986328125,32.6690673828125,470.4437255859375
18.4899999,-12.289437294006348,-6.62236213684082,1.4317326545715332,22.7508544921875,44.5709228515625,499.9847412109375
18.5099999,-17.027563095092773,-16.086641311645508,2.9544448852539062,130.2642822265625,54.6112060546875,499.9847412109375
18.5299999,-20.985177993774414,-25.77118682861328,4.726154327392578,66.650390625,71.22802734375,247.1160888671875
18.5499999,-21.401769638061523,-38.201881408691406,5.966350555419922,-57.373046875,-0.885009765625,-21.9268798828125
18.5699999,-18.622100830078125,-37.940914154052734,5.094861030578613,-11.566162109375,-3.509521484375,-50.018310546875
18.589999900000002,-15.583858489990234,-35.47249221801758,3.9025487899780273,-28.2135009765625,-1.5106201171875,-134.1400146484375
18.609999900000002,-13.39316463470459,-32.103851318359375,2.846705913543701,-22.8271484375,-2.44140625,-199.8291015625
18.6299999,-12.428300857543945,-28.534095764160156,2.207453966140747,-21.8048095703125,-20.1263427734375,-270.4010009765625
18.6499999,-12.279860496520996,-24.92603302001953,1.98958158493042,-40.9698486328125,-15.5029296875,-342.10205078125
18.6699999,-12.411541938781738,-20.824766159057617,2.1068975925445557,-64.788818359375,-0.457763671875,-405.3192138671875
18.6899999,-12.191274642944336,-16.28296661376953,2.0254945755004883,-59.4329833984375,-12.5579833984375,-419.43359375
18.7099999,-11.355698585510254,-11.286267280578613,1.9488801956176758,-59.539794921875,-13.580322265625,-410.1104736328125
18.7299999,-9.854534149169922,-6.404489517211914,1.4173674583435059,-52.276611328125,-10.3912353515625,-399.5361328125
18.749999900000002,-7.903259754180908,-1.900996208190918,0.9648633003234863,-60.302734375,13.427734375,-400.909423828125
18.769999900000002,-5.69580602645874,1.8291701078414917,0.3064578175544739,-52.5665283203125,14.4195556640625,-386.260986328125
18.7899999,-3.3446998596191406,5.324704647064209,-0.040701430290937424,-62.225341796875,6.8511962890625,-370.0103759765625
18.8099999,-0.8786720037460327,8.820239067077637,-0.023942016065120697,-99.609375,23.37646484375,-340.1031494140625
18.8299999,1.680729627609253,12.715604782104492,0.13168109953403473,-104.2022705078125,11.6729736328125,-262.115478515625
18.8499999,4.194641590118408,17.19515609741211,0.507570743560791,-91.1407470703125,-8.9569091796875,-155.6243896484375
18.8699999,6.294356346130371,22.05777931213379,1.0007762908935547,-47.4700927734375,-20.7672119140625,-20.2789306640625
18.8899999,7.299921035766602,25.89807891845703,1.137245774269104,25.390625,-56.671142578125,177.6885986328125
18.909999900000003,6.885724067687988,27.21967887878418,0.912190854549408,107.6812744140625,-81.0089111328125,366.1956787109375
18.929999900000002,4.970362663269043,25.723302841186523,0.4836287498474121,129.0740966796875,-52.032470703125,414.8406982421875
18.9499999,1.944091796875,21.2676944732666,-0.35434186458587646,116.39404296875,-34.2254638671875,435.4400634765625
18.9699999,-1.7836803197860718,15.332468032836914,-1.0606313943862915,87.310791015625,-19.927978515625,480.1177978515625
18.9899999,-5.992686748504639,8.89445972442627,-1.048660397529602,122.9705810546875,9.9945068359375,499.9847412109375
19.0099999,-10.381258964538574,1.7693150043487549,-0.2801215946674347,245.5902099609375,31.55517578125,499.9847412109375
19.0299999,-15.014039039611816,-6.866570472717285,0.2992752194404602,153.533935546875,20.7672119140625,499.9847412109375
19.0499999,-18.722658157348633,-16.519990921020508,2.1140801906585693,-56.732177734375,115.53955078125,451.385498046875
19.0699999,-21.01630210876465,-24.67464256286621,3.622427225112915,-58.9599609375,123.046875,180.8013916015625
19.089999900000002,-21.641189575195312,-31.620222091674805,4.240131378173828,-6.8817138671875,-47.149658203125,137.359619140625
19.109999900000002,-20.460847854614258,-35.22349548339844,5.295974254608154,8.1939697265625,-0.3204345703125,141.998291015625
19.1299999,-18.179174423217773,-36.159629821777344,4.54419469833374,-19.6075439453125,11.0321044921875,0.0457763671875
19.1499999,-15.564704895019531,-35.501224517822266,3.3925838470458984,-29.510498046875,-12.1917724609375,-103.851318359375
19.1699999,-13.306973457336426,-33.89950180053711,2.3032219409942627,-7.9498291015625,3.662109375,-114.0289306640625
19.1899999,-11.875240325927734,-31.29700469970703,1.3048399686813354,-10.2996826171875,-2.4261474609375,-186.34033203125
19.2099999,-11.508927345275879,-28.641834259033203,1.0462661981582642,-36.8194580078125,-6.622314453125,-278.900146484375
19.2299999,-11.882423400878906,-25.728092193603516,1.1683704853057861,-43.975830078125,-7.568359375,-334.6405029296875
19.249999900000002,-12.370840072631836,-22.2397403717041,1.1994950771331787,-40.1763916015625,-20.4620361328125,-369.2779541015625
19.269999900000002,-12.524068832397461,-17.958906173706055,1.161187767982483,-56.7474365234375,-4.5166015625,-406.25
19.2899999,-11.96861457824707,-12.966996192932129,0.7924807667732239,-66.0552978515625,10.284423828125,-437.6068115234375
19.3099999,-10.589553833007812,-7.438784599304199,0.2825157940387726,-57.31201171875,3.35693359375,-431.45751953125
19.3299999,-8.458714485168457,-1.7884687185287476,-0.23702596127986908,-44.5709228515625,5.5694580078125,-397.0794677734375
19.3499999,-5.805939197540283,3.442862033843994,-0.8259995579719543,-42.9840087890625,12.1307373046875,-363.58642578125
19.3699999,-2.875436305999756,8.202534675598145,-1.072602391242981,-69.854736328125,33.14208984375,-347.0916748046875
19.3899999,0.031124621629714966,12.217611312866211,-1.0079588890075684,-79.1473388671875,33.0657958984375,-279.2205810546875
19.409999900000003,2.6791117191314697,15.358803749084473,-0.47165772318840027,-27.496337890625,7.781982421875,-142.242431640625
19.429999900000002,4.8267107009887695,17.24543571472168,0.2346317619085312,19.1192626953125,-8.1787109375,-26.763916015625
19.4499999,6.361393928527832,18.030733108520508,0.6655880808830261,14.739990234375,-20.782470703125,22.3846435546875
19.4699999,7.216124057769775,17.753005981445312,0.6272808313369751,3.631591796875,-24.078369140625,81.9854736328125
19.4899999,7.374141216278076,17.06587028503418,0.1628057211637497,1.89208984375,-20.7366943359375,167.938232421875
19.5099999,6.840234279632568,16.148889541625977,-0.6272808313369751,24.993896484375,-21.5911865234375,246.7041015625
19.5299999,5.475539207458496,14.781801223754883,-1.4963760375976562,36.407470703125,-17.303466796875,306.8695068359375
19.5499999,3.555389642715454,12.629413604736328,-2.094926595687866,31.6925048828125,3.5247802734375,361.328125
19.5699999,0.9816226959228516,9.775525093078613,-2.0590133666992188,36.6363525390625,15.960693359375,388.6871337890625
19.589999900000002,-2.0925323963165283,5.635950565338135,-1.280897855758667,135.8642578125,-13.9007568359375,441.9403076171875
19.609999900000002,-5.901707172393799,-0.5267243981361389,-0.20111294090747833,236.7095947265625,-26.1688232421875,499.9847412109375
19.6299999,-10.407594680786133,-9.497797966003418,0.9600749015808105,124.2218017578125,14.5416259765625,499.9847412109375
19.6499999,-14.293384552001953,-20.10411262512207,2.410961151123047,6.04248046875,98.5870361328125,327.3468017578125
19.6699999,-16.58942413330078,-28.931533813476562,3.3231520652770996,-0.2593994140625,33.3404541015625,62.3626708984375
19.6899999,-16.299724578857422,-34.51720428466797,4.211400985717773,37.506103515625,-36.346435546875,18.24951171875
19.7099999,-13.472172737121582,-34.52438735961914,4.541800498962402,73.5626220703125,-28.5797119140625,37.628173828125
19.7299999,-9.301473617553711,-30.339323043823242,3.797203779220581,27.4658203125,-30.2734375,-10.4217529296875
19.749999900000002,-5.04218864440918,-24.389732360839844,2.7940332889556885,6.378173828125,-10.5133056640625,-16.265869140625
19.769999900000002,-1.6376339197158813,-18.143260955810547,1.4700398445129395,30.181884765625,-11.5203857421875,-5.126953125
19.7899999,0.4357447028160095,-13.182474136352539,0.7134721279144287,64.27001953125,-14.1448974609375,4.6539306640625
19.8099999,1.1683704853057861,-10.120290756225586,0.6416460275650024,55.3436279296875,-5.157470703125,-0.8544921875
19.8299999,0.9145850539207458,-8.774748802185059,1.3000515699386597,28.3203125,-9.8114013671875,-28.01513671875
19.8499999,0.12928688526153564,-8.628703117370605,2.43011474609375,27.252197265625,-26.5960693359375,-34.1339111328125
19.8699999,-0.7038952708244324,-9.011775016784668,3.4524388313293457,50.6439208984375,-45.3948974609375,-21.575927734375
19.8899999,-1.3431471586227417,-9.557653427124023,4.388571739196777,71.441650390625,-42.6177978515625,-21.881103515625
19.909999900000003,-1.6519991159439087,-10.127472877502441,5.152322292327881,88.5162353515625,-46.7681884765625,-36.0107421875
19.929999900000002,-1.5873557329177856,-10.36449909210205,6.2201361656188965,124.9237060546875,-69.122314453125,-53.4210205078125
19.9499999,-1.1899182796478271,-10.189722061157227,7.625532627105713,177.764892578125,-102.630615234375,-39.6270751953125
19.9699999,-0.6177040338516235,-9.387664794921875,9.133879661560059,176.7730712890625,-135.223388671875,-18.402099609375
19.9899999,-0.09816227108240128,-8.396465301513672,10.012551307678223,125.0762939453125,-160.09521484375,0.5645751953125
20.0099999,0.2992752194404602,-7.1706342697143555,10.110713958740234,112.457275390625,-171.3104248046875,5.2642822265625
20.0299999,0.45250412821769714,-5.896918773651123,9.01895809173584,163.1317138671875,-183.16650390625,19.317626953125
20.0499999,0.19632454216480255,-5.827486991882324,6.8378400802612305,191.8182373046875,-189.0716552734375,85.8154296875
20.0699999,-0.2561795711517334,-6.399701118469238,4.134786128997803,160.064697265625,-156.6314697265625,90.5609130859375
20.089999900000002,-1.764526605606079,-10.012551307678223,-1.1420341730117798,142.578125,-81.5582275390625,43.243408203125
20.109999900000002,-2.671929121017456,-12.076353073120117,-2.765302896499634,135.6658935546875,-52.06298828125,38.63525390625
20.1299999,-3.687070608139038,-14.207192420959473,-3.5051112174987793,122.6043701171875,-19.195556640625,-8.97216796875
20.1499999,-4.81473970413208,-16.383522033691406,-3.6080620288848877,141.845703125,0.54931640625,-60.1043701171875
20.1699999,-5.892130374908447,-18.370710372924805,-3.1244332790374756,141.9219970703125,29.022216796875,-103.3477783203125
