# Time (seconds),Accel_X,Accel_Y,Accel_Z,Gyro_X,Gyro_Y,Gyro_Z
0.0099999,9.433155059814453,-1.5538369417190552,-1.3982137441635132,1.6326904296875,11.932373046875,1.9683837890625
0.029999900000000003,9.50737476348877,-1.5155296325683594,-1.2210428714752197,1.190185546875,8.6669921875,0.30517578125
0.0499999,9.579200744628906,-1.5610195398330688,-0.8810662031173706,0.2899169921875,2.0751953125,2.99072265625
0.0699999,9.646238327026367,-1.659181833267212,-0.5147533416748047,1.068115234375,-3.47900390625,3.082275390625
0.08999990000000001,9.718064308166504,-1.7477672100067139,-0.19632454216480255,3.47900390625,-3.265380859375,-1.2969970703125
0.10999990000000001,9.799467086791992,-1.8315643072128296,0.15801730751991272,4.5166015625,1.40380859375,-4.1656494140625
0.1299999,9.883264541625977,-1.9273324012756348,0.6584054827690125,3.7841796875,-6.6680908203125,-1.9683837890625
0.14999990000000002,9.983820915222168,-2.1284453868865967,1.1827356815338135,3.72314453125,-35.125732421875,-2.2735595703125
0.1699999,10.067618370056152,-2.3774423599243164,1.5442601442337036,8.8653564453125,-56.976318359375,-9.3841552734375
0.1899999,10.091560363769531,-2.6886885166168213,1.601720929145813,15.1824951171875,-48.3551025390625,-14.2669677734375
0.20999990000000002,10.012551307678223,-2.8347349166870117,1.1683704853057861,13.6871337890625,-42.755126953125,-15.3350830078125
0.2299999,9.856928825378418,-2.913743495941162,0.5171475410461426,11.0626220703125,-44.43359375,-11.9476318359375
0.2499999,9.651026725769043,-2.978386878967285,0.004788403399288654,12.4359130859375,-41.32080078125,-11.0931396484375
0.2699999,9.50737476348877,-3.1196448802948,-0.5147533416748047,19.2718505859375,-49.5758056640625,-17.6849365234375
0.28999990000000003,9.411606788635254,-3.3039982318878174,-1.015141487121582,23.4832763671875,-50.7965087890625,-19.5465087890625
0.3099999,9.334992408752441,-3.423708438873291,-1.4891934394836426,28.167724609375,-30.9600830078125,-19.7601318359375
0.3299999,9.210494041442871,-3.49314022064209,-1.9249382019042969,27.7557373046875,-23.49853515625,-16.3116455078125
0.34999990000000003,9.047688484191895,-3.5482068061828613,-2.2601263523101807,26.885986328125,-37.6739501953125,-19.4854736328125
0.3699999,8.83699893951416,-3.6080620288848877,-2.43011474609375,28.839111328125,-43.853759765625,-30.029296875
0.3899999,8.56884765625,-3.557783842086792,-2.540247917175293,28.411865234375,-36.7889404296875,-37.2772216796875
0.40999990000000003,8.29830265045166,-3.3039982318878174,-2.786850690841675,24.35302734375,-42.48046875,-36.1328125
0.4299999,8.090007781982422,-2.8610711097717285,-3.268085241317749,18.829345703125,-50.323486328125,-28.9459228515625
0.4499999,8.032546997070312,-2.4229321479797363,-3.9480385780334473,15.68603515625,-32.5469970703125,-22.216796875
0.4699999,8.10437297821045,-2.1068975925445557,-4.656722068786621,15.6097412109375,1.007080078125,-21.1029052734375
0.4899999,8.236053466796875,-1.745373010635376,-5.307945251464844,13.7176513671875,3.8299560546875,-23.590087890625
0.5099999,8.370129585266113,-1.3862427473068237,-5.882553577423096,2.7008056640625,-8.2855224609375,-16.4794921875
0.5299999,8.56645393371582,-1.2258312702178955,-6.248866558074951,-8.331298828125,9.82666015625,2.6397705078125
0.5499999,8.78193187713623,-1.1180921792984009,-6.4380083084106445,-6.7138671875,42.54150390625,1.3275146484375
0.5699999,8.999804496765137,-1.1779472827911377,-6.335057735443115,-0.3509521484375,51.1627197265625,-10.6353759765625
0.5899998999999999,9.17697525024414,-1.290474772453308,-5.906495571136475,-5.4931640625,38.02490234375,-8.8043212890625
0.6099998999999999,9.239224433898926,-1.2856862545013428,-5.286397457122803,-13.0462646484375,36.62109375,-1.52587890625
0.6299999,9.21288776397705,-0.9840168952941895,-4.6950297355651855,-8.3160400390625,53.070068359375,-3.9825439453125
0.6499999,9.222464561462402,-0.6153098344802856,-4.194641590118408,-9.6435546875,64.6209716796875,-1.2664794921875
0.6699999,9.272743225097656,-0.26815059781074524,-3.5482068061828613,-18.0816650390625,71.3043212890625,12.4664306640625
0.6899999,9.334992408752441,-0.021547814831137657,-2.674323320388794,-16.6778564453125,67.5201416015625,17.1356201171875
0.7099999,9.473855972290039,-0.06224924325942993,-1.8148049116134644,-17.2882080078125,37.5823974609375,10.0860595703125
0.7299998999999999,9.648633003234863,-0.21787235140800476,-1.37906014919281,-25.2532958984375,9.9945068359375,-0.67138671875
0.7499998999999999,9.885659217834473,-0.5339069962501526,-1.338358759880066,-28.6712646484375,29.571533203125,4.3792724609375
0.7699999,10.041281700134277,-0.8044517636299133,-1.5442601442337036,-22.76611328125,57.9681396484375,2.8228759765625
0.7899999,10.077195167541504,-0.9145850539207458,-1.7573440074920654,-19.6685791015625,37.750244140625,-10.92529296875
0.8099999,9.904812812805176,-0.7182605266571045,-1.98958158493042,-28.4271240234375,0.396728515625,-16.9219970703125
0.8299999,9.627084732055664,-0.24899697303771973,-2.3247697353363037,-38.9862060546875,10.406494140625,-1.678466796875
0.8499998999999999,9.35654067993164,0.3711012601852417,-2.8107926845550537,-38.1622314453125,48.9959716796875,12.5274658203125
0.8699998999999999,9.160215377807617,0.9385270476341248,-3.095702886581421,-33.3099365234375,67.9779052734375,8.7432861328125
0.8899999,9.102754592895508,1.1875240802764893,-2.849100112915039,-37.109375,54.7332763671875,6.988525390625
0.9099999,9.117119789123535,1.3407529592514038,-2.1763293743133545,-42.9840087890625,36.834716796875,10.6658935546875
0.9299999,9.406818389892578,1.335964560508728,-0.6991068720817566,-35.736083984375,41.2750244140625,18.0511474609375
0.9499999,9.588777542114258,1.2473790645599365,-0.35673606395721436,-37.7044677734375,40.6951904296875,18.5394287109375
0.9699998999999999,9.66539192199707,1.1851298809051514,-0.14844051003456116,-40.4052734375,50.7965087890625,23.8037109375
0.9899998999999999,9.68694019317627,1.05105459690094,0.004788403399288654,-38.665771484375,54.87060546875,30.5328369140625
1.0099999,9.701305389404297,0.730231523513794,0.38307225704193115,-33.0657958984375,53.7872314453125,34.48486328125
1.0299999,9.75397777557373,0.3280056416988373,1.0821791887283325,-25.543212890625,49.224853515625,26.1077880859375
1.0499999,9.832986831665039,-0.08858546614646912,1.9608511924743652,-21.7742919921875,31.8145751953125,19.4091796875
1.0699999,9.909601211547852,-0.4620809257030487,2.676717519760132,-20.1416015625,6.8511962890625,24.658203125
1.0899999,9.974244117736816,-0.7374141216278076,3.112462282180786,-16.4031982421875,2.13623046875,24.7955322265625
1.1099999,10.034099578857422,-0.9265560507774353,3.0526070594787598,-8.697509765625,10.467529296875,18.310546875
1.1299999,10.113107681274414,-1.1899182796478271,2.736572504043579,-3.35693359375,18.4173583984375,19.500732421875
1.1499999,10.137049674987793,-1.434126853942871,2.580949544906616,1.251220703125,22.03369140625,22.491455078125
1.1699998999999999,10.065223693847656,-1.6759412288665771,2.537853717803955,3.1280517578125,0.18310546875,20.599365234375
1.1899998999999999,9.96945571899414,-2.032677173614502,2.516305923461914,4.21142578125,-20.56884765625,21.6064453125
1.2099999,9.797073364257812,-2.3247697353363037,2.4684219360351562,10.7879638671875,-7.2021484375,18.2647705078125
1.2299999,9.605537414550781,-2.647987127304077,2.4205379486083984,11.7645263671875,4.241943359375,14.892578125
1.2499999,9.418789863586426,-2.765302896499634,2.382230758666992,4.6844482421875,-25.2227783203125,16.754150390625
1.2699999,9.344569206237793,-2.978386878967285,2.4875755310058594,4.6234130859375,-51.57470703125,26.611328125
1.2899999,9.409213066101074,-3.2345664501190186,2.6623523235321045,14.7857666015625,-43.5943603515625,24.505615234375
1.3099999,9.5408935546875,-3.4955344200134277,2.9305028915405273,20.477294921875,-35.2630615234375,9.307861328125
1.3299999,9.653421401977539,-3.6774938106536865,3.181894063949585,12.359619140625,-69.0460205078125,5.0811767578125
1.3499999,9.715670585632324,-3.7708675861358643,3.0142998695373535,4.08935546875,-111.26708984375,16.7694091796875
1.3699999,9.75637149810791,-3.9193081855773926,2.5498247146606445,12.7105712890625,-88.348388671875,17.364501953125
1.3899999,9.68933391571045,-4.02465295791626,1.6208745241165161,21.026611328125,-44.2962646484375,0.396728515625
1.4099999,9.481039047241211,-4.10366153717041,0.7350199222564697,20.5841064453125,-39.9932861328125,-6.744384765625
1.4299998999999999,9.155426979064941,-4.086902141571045,0.181959331035614,18.096923828125,-65.1702880859375,12.481689453125
1.4499999,8.786720275878906,-4.019864559173584,0.004788403399288654,22.7203369140625,-71.9451904296875,27.2369384765625
1.4699999,8.588001251220703,-4.1874589920043945,0.011971008032560349,33.172607421875,-60.2264404296875,19.6685791015625
1.4899999,8.53532886505127,-4.438849925994873,0.08140286058187485,38.57421875,-59.0667724609375,1.2664794921875
1.5099999,8.564059257507324,-4.845864295959473,0.16519992053508759,34.210205078125,-77.2247314453125,2.105712890625
1.5299999,8.576030731201172,-5.03021764755249,-0.1173158809542656,31.8450927734375,-92.926025390625,5.5389404296875
1.5499999,8.588001251220703,-5.193023681640625,-0.6368576288223267,35.736083984375,-69.7784423828125,4.33349609375
1.5699999,8.611943244934082,-5.317522048950195,-1.3455413579940796,38.9404296875,-40.58837890625,-1.15966796875
1.5899999,8.60236644744873,-5.468356609344482,-1.9632453918457031,34.698486328125,-42.5262451171875,-9.6893310546875
1.6099999,8.508993148803711,-5.480327606201172,-2.4851813316345215,26.4129638671875,-60.05859375,-19.1497802734375
1.6299999,8.329427719116211,-5.365406036376953,-2.853888511657715,23.651123046875,-49.1485595703125,-19.1802978515625
1.6499999,8.145073890686035,-5.272032260894775,-3.136404275894165,22.2320556640625,-23.101806640625,-16.6015625
1.6699999,7.9631147384643555,-5.04218864440918,-3.3638534545898438,18.4173583984375,-24.078369140625,-27.801513671875
1.6899998999999999,7.802703380584717,-4.95120906829834,-3.3518824577331543,16.6015625,-31.585693359375,-34.3170166015625
1.7099999,7.659051418304443,-4.776432514190674,-3.3494882583618164,15.1214599609375,-31.646728515625,-27.984619140625
1.7299999,7.508216381072998,-4.577713489532471,-3.3710360527038574,17.2882080078125,-20.416259765625,-28.7628173828125
1.7499999,7.405265808105469,-4.37420654296875,-3.5051112174987793,13.9617919921875,-17.852783203125,-27.4658203125
1.7699999,7.3693528175354,-4.0749311447143555,-3.8139634132385254,6.7901611328125,-28.1219482421875,-32.379150390625
1.7899999,7.398083209991455,-3.6750996112823486,-4.307168960571289,5.6304931640625,-19.378662109375,-30.3802490234375
1.8099999,7.558494567871094,-3.35667085647583,-4.812345504760742,5.5694580078125,12.14599609375,-18.9361572265625
1.8299999,7.7763671875,-3.0142998695373535,-5.360617637634277,5.5999755859375,27.5726318359375,-19.1497802734375
1.8499999,8.068459510803223,-2.8395233154296875,-5.705382823944092,5.6915283203125,29.1900634765625,-23.62060546875
1.8699999,8.327033042907715,-2.5761611461639404,-5.853823184967041,10.7879638671875,44.586181640625,-22.4151611328125
1.8899999,8.650250434875488,-2.5713725090026855,-5.564124584197998,15.2740478515625,67.8253173828125,-12.3748779296875
1.9099999,8.932766914367676,-2.5737667083740234,-5.142745018005371,14.09912109375,58.10546875,-13.8702392578125
1.9299998999999999,9.14345645904541,-2.4660277366638184,-4.563348293304443,16.1590576171875,39.85595703125,-31.494140625
1.9499999,9.284713745117188,-2.2864625453948975,-4.268861770629883,14.556884765625,41.351318359375,-31.9976806640625
1.9699999,9.342175483703613,-2.032677173614502,-4.235342979431152,7.049560546875,64.4989013671875,-17.1356201171875
1.9899999,9.35654067993164,-1.5658079385757446,-4.402936935424805,0.030517578125,76.2786865234375,-20.2178955078125
2.0099999,9.466673851013184,-1.4891934394836426,-4.446032524108887,-0.06103515625,70.770263671875,-22.247314453125
2.0299999,9.57441234588623,-1.4532804489135742,-4.175487995147705,1.251220703125,74.40185546875,-22.216796875
2.0499999,9.636661529541016,-1.4891934394836426,-3.5625722408294678,0.4730224609375,82.21435546875,-22.247314453125
2.0699999,9.691728591918945,-1.4460978507995605,-2.7269957065582275,1.495361328125,74.89013671875,-17.730712890625
2.0899999,9.718064308166504,-1.2401964664459229,-1.8124107122421265,2.44140625,55.5419921875,-18.3868408203125
2.1099999,9.883264541625977,-1.015141487121582,-1.0462661981582642,8.7738037109375,48.4161376953125,-13.5345458984375
2.1299999,10.096348762512207,-0.7948749661445618,-0.6344634294509888,16.937255859375,50.3997802734375,-9.5977783203125
2.1499999,10.220847129821777,-0.47405192255973816,-0.5674257874488831,17.08984375,54.38232421875,-14.70947265625
2.1699999,10.280701637268066,-0.23942017555236816,-0.790086567401886,8.636474609375,44.2352294921875,-16.7236328125
2.1899999,10.223240852355957,-0.0933738648891449,-1.0031704902648926,2.899169921875,42.083740234375,-12.8326416015625
2.2099999,10.120290756225586,0.0694318488240242,-1.0247182846069336,-1.7242431640625,47.027587890625,-26.4739990234375
2.2299999,10.034099578857422,0.22266076505184174,-1.1851298809051514,-5.645751953125,32.867431640625,-33.7982177734375
2.2499999,9.93354320526123,0.4620809257030487,-1.3958195447921753,-16.78466796875,30.548095703125,-27.618408203125
2.2699999,9.837775230407715,0.7805097699165344,-1.6615760326385498,-25.8026123046875,56.5643310546875,-18.9666748046875
2.2899999,9.701305389404297,1.2210428714752197,-1.6663644313812256,-30.6243896484375,76.1871337890625,-21.7742919921875
2.3099999,9.627084732055664,1.522712230682373,-1.278503656387329,-38.909912109375,57.647705078125,-21.3165283203125
2.3299999,9.583989143371582,1.824381709098816,-0.6560112833976746,-46.8597412109375,29.72412109375,-12.39013671875
2.3499999,9.655815124511719,1.8483237028121948,-0.09816227108240128,-50.7049560546875,36.19384765625,-2.9754638671875
2.3699999,9.768342971801758,1.7357962131500244,0.2968810200691223,-50.262451171875,63.446044921875,-8.3465576171875
2.3899999,9.854534149169922,1.5298948287963867,0.6823474764823914,-50.9490966796875,65.3076171875,-18.7835693359375
2.4099999,9.825803756713867,1.3551181554794312,1.2425906658172607,-59.6466064453125,31.3568115234375,-10.833740234375
2.4299999,9.713275909423828,1.2880805730819702,1.900996208190918,-68.0694580078125,-2.6092529296875,4.669189453125
2.4499999,9.610325813293457,1.0295066833496094,2.5115175247192383,-50.3082275390625,14.7857666015625,-0.244140625
2.4699999,9.624691009521484,0.7829039692878723,2.7222073078155518,-40.4052734375,23.162841796875,-3.173828125
2.4899999,9.615114212036133,0.6224924325942993,3.0885202884674072,-43.548583984375,-2.899169921875,-2.7923583984375
2.5099999,9.552865028381348,0.5410895943641663,3.557783842086792,-39.8101806640625,-22.430419921875,6.0272216796875
2.5299999,9.519346237182617,0.4596867263317108,3.9025487899780273,-23.895263671875,-14.739990234375,3.2958984375
2.5499999,9.545681953430176,0.40222588181495667,4.1156325340271,-9.429931640625,-2.74658203125,-7.6904296875
2.5699999,9.648633003234863,0.2537853717803955,4.168305397033691,-3.9825439453125,-15.472412109375,-7.32421875
2.5899999,9.6989107131958,0.11971008777618408,4.168305397033691,1.28173828125,-29.5257568359375,-2.410888671875
2.6099999,9.674968719482422,0.12210428714752197,4.0294413566589355,9.307861328125,-31.7840576171875,-3.60107421875
2.6299999,9.59596061706543,0.023942016065120697,3.754108190536499,18.6309814453125,-27.28271484375,3.8909912109375
2.6499999,9.454702377319336,-0.023942016065120697,3.361459255218506,23.590087890625,-25.2685546875,8.6822509765625
2.6699999,9.232041358947754,-0.1388636976480484,3.1507694721221924,25.87890625,-24.59716796875,11.6424560546875
2.6899999,9.028534889221191,-0.363918662071228,2.9664158821105957,27.252197265625,-36.6668701171875,18.5394287109375
2.7099999,8.908824920654297,-0.7398083209991455,2.8107926845550537,29.937744140625,-43.365478515625,22.64404296875
2.7299999,8.959102630615234,-1.2330138683319092,2.762908697128296,31.890869140625,-27.6641845703125,20.93505859375
2.7499999,9.241618156433105,-1.8986018896102905,2.719813108444214,34.4696044921875,-22.52197265625,18.0816650390625
2.7699999,9.619902610778809,-2.497152328491211,2.559401512145996,38.482666015625,-37.261962890625,12.14599609375
2.7899999,9.955090522766113,-3.0382418632507324,2.7102363109588623,44.0216064453125,-29.0374755859375,11.3677978515625
2.8099999,10.103530883789062,-3.3949780464172363,2.983175277709961,45.9747314453125,-28.6102294921875,10.8795166015625
2.8299999,10.110713958740234,-3.665522813796997,3.1244332790374756,45.3338623046875,-58.868408203125,6.7291259765625
2.8499999,9.979032516479492,-3.8163576126098633,3.0142998695373535,49.530029296875,-67.901611328125,3.7994384765625
2.8699999,9.816226959228516,-3.957615375518799,2.6431987285614014,51.2542724609375,-35.7666015625,0.6256103515625
2.8899999,9.641449928283691,-3.993528366088867,2.10210919380188,47.0428466796875,-20.294189453125,-3.3111572265625
2.9099999,9.464279174804688,-3.8786067962646484,1.7166426181793213,44.2962646484375,-38.330078125,-6.683349609375
2.9299999,9.327810287475586,-3.665522813796997,1.5442601442337036,48.5992431640625,-49.041748046875,-5.2490234375
2.9499999,9.157821655273438,-3.3231520652770996,1.3215993642807007,50.4608154296875,-34.332275390625,0.6561279296875
2.9699999,9.071630477905273,-3.028665065765381,1.2114660739898682,46.2799072265625,-17.0135498046875,4.8675537109375
2.9899999,9.02135181427002,-2.8203697204589844,1.070208191871643,43.9300537109375,-31.2957763671875,5.340576171875
3.0099999,9.069235801696777,-2.868253707885742,1.0271124839782715,47.7142333984375,-53.7567138671875,5.79833984375
3.0299999,9.10993766784668,-2.9305028915405273,0.8930372595787048,50.0030517578125,-52.9022216796875,-0.7476806640625
3.0499999,9.208099365234375,-3.1723172664642334,0.524330198764801,47.9888916015625,-42.1600341796875,3.2806396484375
3.0699999,9.232041358947754,-3.3662476539611816,-0.08858546614646912,41.2445068359375,-43.4722900390625,2.7923583984375
3.0899999,9.155426979064941,-3.485957622528076,-0.6392518281936646,35.3546142578125,-45.6390380859375,-1.861572265625
3.1099999,9.035717010498047,-3.5482068061828613,-1.2425906658172607,32.7606201171875,-50.048828125,-3.387451171875
3.1299999,8.87051773071289,-3.3949780464172363,-1.8770540952682495,32.318115234375,-41.107177734375,-0.48828125
3.1499999,8.779537200927734,-3.294421434402466,-2.229001760482788,34.8663330078125,-16.143798828125,3.1890869140625
3.1699999,8.822632789611816,-3.246537446975708,-2.434903144836426,35.0799560546875,-18.49365234375,-0.1373291015625
3.1899999,8.911218643188477,-3.2297780513763428,-2.3774423599243164,34.149169921875,-35.5072021484375,-12.725830078125
3.2099999,8.980650901794434,-3.1675288677215576,-2.5091233253479004,26.9927978515625,-39.764404296875,-17.822265625
3.2299999,9.01895809173584,-2.9879636764526367,-2.9903578758239746,22.03369140625,-15.9149169921875,-9.33837890625
3.2499999,9.074024200439453,-2.8874073028564453,-3.5482068061828613,21.4691162109375,20.599365234375,-2.62451171875
3.2699999,9.138668060302734,-2.8371291160583496,-3.7708675861358643,22.4609375,27.9541015625,-13.7786865234375
3.2899999,9.181763648986816,-2.7676970958709717,-3.6176388263702393,26.42822265625,5.1727294921875,-24.8565673828125
3.3099999,9.2033109664917,-2.715024709701538,-3.4093432426452637,23.0865478515625,-12.847900390625,-21.1181640625
3.3299999000000002,9.165003776550293,-2.540247917175293,-3.529053211212158,19.3328857421875,6.4544677734375,-16.5557861328125
3.3499999,9.095572471618652,-1.9369091987609863,-4.299986362457275,11.23046875,39.4744873046875,-25.0244140625
3.3699999,9.184157371520996,-1.5849615335464478,-4.618414878845215,4.3487548828125,83.92333984375,-7.0953369140625
3.3899999,9.402029991149902,-1.2258312702178955,-4.3191399574279785,1.64794921875,77.5146484375,1.6326904296875
3.4099999,9.68694019317627,-1.173158884048462,-3.3207578659057617,-0.1678466796875,27.618408203125,-11.932373046875
3.4299999,9.974244117736816,-1.4389152526855469,-2.3343467712402344,-5.5694580078125,-2.7008056640625,-15.0299072265625
3.4499999,10.146626472473145,-1.680729627609253,-2.5977089405059814,-22.6898193359375,-6.65283203125,-17.669677734375
3.4699999,10.216058731079102,-2.032677173614502,-3.24414324760437,-32.7606201171875,60.4400634765625,-15.0299072265625
3.4899999,10.11789608001709,-2.070984363555908,-3.758896589279175,-28.900146484375,101.4404296875,-22.552490234375
3.5099999,9.979032516479492,-1.9943699836730957,-3.3686418533325195,-29.0069580078125,42.6177978515625,-29.7393798828125
3.5299999,9.725247383117676,-1.5394717454910278,-2.4899697303771973,-35.430908203125,-21.148681640625,-26.092529296875
3.5499999,9.481039047241211,-0.849941611289978,-1.944091796875,-43.8079833984375,-14.6484375,-17.5628662109375
3.5699999,9.32302188873291,-0.15083470940589905,-1.9345149993896484,-44.9981689453125,40.4052734375,-11.3677978515625
3.5899999,9.277531623840332,0.40701428055763245,-2.1930887699127197,-43.4722900390625,48.980712890625,-15.289306640625
3.6099999,9.32541561126709,0.8068459630012512,-2.300827741622925,-45.257568359375,9.765625,-16.4794921875
3.6299999,9.452308654785156,0.9648633003234863,-1.9823989868164062,-49.9420166015625,0.8544921875,-10.0250244140625
3.6499999,9.57201862335205,1.0749965906143188,-1.5873557329177856,-46.661376953125,18.7835693359375,-9.1552734375
3.6699999,9.646238327026367,1.1276689767837524,-1.3096283674240112,-53.0548095703125,4.5623779296875,-18.0206298828125
3.6899999,9.713275909423828,1.338358759880066,-1.3694833517074585,-68.267822265625,-26.153564453125,-20.3704833984375
3.7099999,9.81143856048584,1.479616641998291,-1.5538369417190552,-68.6492919921875,-3.11279296875,-2.1514892578125
3.7299999,9.856928825378418,1.845929503440857,-1.7932571172714233,-66.6656494140625,39.73388671875,-0.06103515625
3.7499999,9.907206535339355,2.1308395862579346,-1.7836803197860718,-69.9920654296875,38.5589599609375,-6.561279296875
3.7699999,9.952696800231934,2.2409727573394775,-1.2737152576446533,-73.760986328125,14.2364501953125,3.997802734375
3.7899999,9.986215591430664,2.183511972427368,-0.3471592366695404,-70.0531005859375,12.9241943359375,13.48876953125
3.8099999,10.017339706420898,2.051830768585205,0.5482721924781799,-59.539794921875,18.4783935546875,6.2408447265625
3.8299999000000002,10.014945983886719,1.922544002532959,1.192312479019165,-58.7310791015625,5.9967041015625,-4.1961669921875
3.8499999,9.907206535339355,1.889025092124939,1.4700398445129395,-63.0645751953125,-5.340576171875,4.4403076171875
3.8699999,9.749189376831055,1.9847931861877441,1.2521674633026123,-66.10107421875,-5.3253173828125,16.41845703125
3.8899999,9.658209800720215,1.9847931861877441,0.9409212470054626,-56.6558837890625,21.17919921875,20.0958251953125
3.9099999,9.674968719482422,1.8746598958969116,0.727837324142456,-46.539306640625,33.8134765625,8.8348388671875
3.9299999,9.770736694335938,1.6879122257232666,0.7254431247711182,-45.074462890625,18.6309814453125,5.06591796875
3.9499999,9.93354320526123,1.414973258972168,1.094150185585022,-42.41943359375,14.2669677734375,14.8773193359375
3.9699999,10.196905136108398,1.0199298858642578,2.123656988143921,-20.4010009765625,14.0533447265625,10.467529296875
3.9899999,10.244789123535156,0.8619126081466675,2.3965959548950195,-16.4642333984375,5.67626953125,7.5836181640625
4.0099999,10.103530883789062,0.811634361743927,2.5282769203186035,-6.988525390625,25.8026123046875,10.8184814453125
4.029999900000001,9.785101890563965,0.7829039692878723,2.6192567348480225,3.11279296875,33.5540771484375,16.3116455078125
4.0499999,9.397241592407227,0.7852981686592102,2.669534921646118,2.655029296875,1.3275146484375,19.3939208984375
4.069999900000001,9.186552047729492,0.5099649429321289,2.6623523235321045,0.762939453125,-23.529052734375,26.42822265625
4.0899999000000005,9.162610054016113,0.09576806426048279,2.3343467712402344,9.3231201171875,-4.4708251953125,25.6500244140625
4.1099999,9.181763648986816,-0.33997663855552673,2.056619167327881,18.4783935546875,27.069091796875,14.617919921875
4.1299999000000005,9.153033256530762,-0.5793967843055725,1.8602946996688843,17.39501953125,5.3253173828125,21.392822265625
4.1499999,9.210494041442871,-0.9289502501487732,1.6160861253738403,13.519287109375,-36.7584228515625,47.1343994140625
4.1699999000000005,9.346963882446289,-1.2713210582733154,1.479616641998291,22.9644775390625,-8.6669921875,49.468994140625
4.1899999,9.758766174316406,-1.9345149993896484,1.6711528301239014,35.6292724609375,46.783447265625,30.517578125
4.209999900000001,10.213664054870605,-2.671929121017456,2.1715409755706787,29.84619140625,9.368896484375,15.07568359375
4.2299999,10.41956615447998,-3.3231520652770996,3.066972494125366,24.90234375,-63.6138916015625,15.8538818359375
4.249999900000001,10.393229484558105,-3.7397429943084717,3.5482068061828613,31.402587890625,-83.1298828125,17.791748046875
4.2699999,10.105925559997559,-3.9647979736328125,3.3949780464172363,38.909912109375,-42.5567626953125,9.002685546875
4.289999900000001,9.703699111938477,-3.9624037742614746,2.5953147411346436,36.4837646484375,-25.32958984375,-2.7313232421875
4.3099999,9.260771751403809,-3.8307228088378906,1.867477297782898,30.3192138671875,-43.2281494140625,3.0975341796875
4.329999900000001,8.990227699279785,-3.5434184074401855,1.742978811264038,35.4156494140625,-42.572021484375,17.7764892578125
4.3499999,8.954314231872559,-3.469198226928711,2.1068975925445557,48.3856201171875,-27.52685546875,21.331787109375
4.369999900000001,9.138668060302734,-3.399766445159912,3.0597896575927734,58.5479736328125,-20.20263671875,7.415771484375
4.3899999,9.442731857299805,-3.581725835800171,3.9480385780334473,57.12890625,-55.328369140625,4.6234130859375
4.409999900000001,9.619902610778809,-3.869029998779297,4.563348293304443,60.546875,-77.7587890625,11.3372802734375
4.4299999,9.545681953430176,-4.1395745277404785,4.4292731285095215,68.5577392578125,-67.047119140625,5.2490234375
4.449999900000001,9.251194953918457,-4.412513732910156,3.627215623855591,73.1201171875,-48.5992431640625,-2.716064453125
4.4699999,8.793902397155762,-4.537012100219727,2.5474305152893066,72.2198486328125,-49.7283935546875,0.244140625
4.489999900000001,8.269572257995605,-4.594472885131836,1.522712230682373,69.7021484375,-66.741943359375,9.3994140625
4.5099999,7.8314337730407715,-4.393360137939453,0.6033388376235962,66.0247802734375,-82.70263671875,10.2081298828125
4.529999900000001,7.5968017578125,-4.446032524108887,-0.6177040338516235,52.8564453125,-85.9832763671875,21.7132568359375
4.5499999,7.661445617675781,-4.486733913421631,-1.6879122257232666,47.760009765625,-51.3763427734375,15.0604248046875
4.569999900000001,7.943961143493652,-4.728548526763916,-2.7078421115875244,40.1153564453125,-40.252685546875,4.82177734375
4.5899999000000005,8.303091049194336,-5.04218864440918,-3.294421434402466,27.099609375,-57.9681396484375,-5.950927734375
4.609999900000001,8.614337921142578,-4.982333660125732,-3.9432501792907715,17.2271728515625,-71.59423828125,-23.2696533203125
4.6299999000000005,8.803479194641113,-4.697423934936523,-4.6040496826171875,14.8773193359375,-31.6009521484375,-13.61083984375
4.6499999,8.901641845703125,-4.228160381317139,-5.245696067810059,14.5416259765625,18.7225341796875,2.2735595703125
4.6699999000000005,9.014169692993164,-3.9815573692321777,-5.5329999923706055,16.2811279296875,13.5498046875,-4.974365234375
4.6899999,9.124302864074707,-4.0533833503723145,-5.351040840148926,22.15576171875,-19.5770263671875,-26.2298583984375
4.709999900000001,9.117119789123535,-4.120420932769775,-5.260061264038086,28.86962890625,-26.67236328125,-42.877197265625
4.7299999,8.980650901794434,-4.05817174911499,-5.384559631347656,18.8446044921875,14.8468017578125,-36.3616943359375
4.749999900000001,8.743624687194824,-3.667917013168335,-5.779603004455566,-3.8299560546875,46.0968017578125,-15.5181884765625
4.7699999,8.60236644744873,-3.023876667022705,-6.1052141189575195,-19.71435546875,43.060302734375,-17.1356201171875
4.789999900000001,8.702922821044922,-2.652775526046753,-5.920860767364502,-22.0184326171875,50.323486328125,-11.5814208984375
4.8099999,8.96389102935791,-2.3343467712402344,-5.463568210601807,-21.7132568359375,68.084716796875,-14.4500732421875
4.829999900000001,9.255983352661133,-2.279279947280884,-4.788403511047363,-22.3541259765625,76.0345458984375,-13.4429931640625
4.8499999,9.406818389892578,-2.097320795059204,-4.122815132141113,-25.787353515625,67.840576171875,-14.2364501953125
4.869999900000001,9.461885452270508,-2.0039467811584473,-3.56017804145813,-34.759521484375,56.9915771484375,-6.683349609375
4.8899999,9.485827445983887,-1.8746598958969116,-3.1435868740081787,-42.1295166015625,56.5643310546875,-1.2359619140625
4.909999900000001,9.536105155944824,-1.7573440074920654,-2.801215887069702,-42.90771484375,56.0150146484375,-8.636474609375
4.9299999,9.552865028381348,-1.3694833517074585,-2.6408045291900635,-41.4886474609375,43.5028076171875,-14.007568359375
4.949999900000001,9.581595420837402,-1.0007762908935547,-2.585737943649292,-46.9970703125,33.87451171875,-4.8828125
4.9699999,9.5624418258667,-0.3734954595565796,-2.652775526046753,-51.9866943359375,44.7540283203125,2.3651123046875
4.989999900000001,9.639056205749512,0,-2.580949544906616,-51.1627197265625,56.640625,-0.9613037109375
5.0099999,9.739612579345703,0.3447650372982025,-2.5474305152893066,-55.5572509765625,37.90283203125,-9.033203125
5.029999900000001,9.816226959228516,0.49320554733276367,-2.4396915435791016,-65.765380859375,24.8260498046875,-5.767822265625
5.0499999,9.787496566772461,0.706289529800415,-2.3942017555236816,-73.42529296875,40.069580078125,2.4261474609375
5.069999900000001,9.684545516967773,0.8786720037460327,-2.4396915435791016,-74.2950439453125,53.9093017578125,3.7841796875
5.0899999000000005,9.545681953430176,0.993593692779541,-2.319981336593628,-76.5380859375,53.0548095703125,1.4190673828125
5.109999900000001,9.473855972290039,1.0342950820922852,-1.9488801956176758,-83.8623046875,46.9970703125,6.1492919921875
5.1299999000000005,9.476250648498535,1.0438719987869263,-1.5298948287963867,-94.23828125,34.8052978515625,12.1002197265625
5.1499999,9.653421401977539,0.9074024558067322,-1.2258312702178955,-102.4322509765625,33.02001953125,14.58740234375
5.1699999000000005,9.938331604003906,0.6129156351089478,-0.9145850539207458,-102.569580078125,51.57470703125,11.3983154296875
5.1899999,10.230423927307129,0.26575639843940735,-0.45489832758903503,-99.700927734375,66.8487548828125,1.7547607421875
5.209999900000001,10.371682167053223,0.011971008032560349,0.3734954595565796,-96.649169921875,59.967041015625,-0.152587890625
5.2299999,10.273519515991211,-0.0454898327589035,1.3048399686813354,-94.970703125,35.247802734375,6.5460205078125
5.249999900000001,10.031704902648926,-0.028730420395731926,2.0398597717285156,-93.9788818359375,22.430419921875,12.63427734375
5.2699999,9.821015357971191,-0.181959331035614,2.477998733520508,-79.925537109375,44.6929931640625,12.8021240234375
5.289999900000001,9.68933391571045,-0.4141969084739685,2.846705913543701,-64.5751953125,66.4520263671875,-1.89208984375
5.3099999,9.612719535827637,-0.5722141861915588,3.397372245788574,-57.0068359375,45.0897216796875,-12.6190185546875
5.329999900000001,9.555258750915527,-0.6224924325942993,3.93367338180542,-56.8389892578125,-2.288818359375,0.213623046875
5.3499999,9.516951560974121,-0.5650315880775452,4.168305397033691,-49.7894287109375,-10.5438232421875,12.4359130859375
5.369999900000001,9.512163162231445,-0.5410895943641663,4.067748546600342,-32.4249267578125,26.885986328125,2.2430419921875
5.3899999,9.516951560974121,-0.4908113479614258,3.892971992492676,-18.5546875,47.79052734375,-8.1024169921875
5.409999900000001,9.445125579833984,-0.33279404044151306,4.156333923339844,-18.1121826171875,18.1884765625,5.279541015625
5.4299999,9.402029991149902,-0.2825157940387726,4.797980308532715,-21.636962890625,-33.172607421875,31.8145751953125
5.449999900000001,9.50737476348877,-0.5219359993934631,5.12119722366333,-11.29150390625,-53.5430908203125,35.247802734375
5.4699999,9.684545516967773,-0.9840168952941895,5.114014625549316,13.702392578125,-12.603759765625,4.638671875
5.489999900000001,9.684545516967773,-1.7477672100067139,4.800374507904053,8.4075927734375,-23.5595703125,22.2015380859375
5.5099999,9.464279174804688,-2.185906171798706,4.9368438720703125,10.3302001953125,-77.1636962890625,46.6766357421875
5.529999900000001,9.255983352661133,-2.7269957065582275,4.608838081359863,36.1785888671875,-81.5887451171875,27.008056640625
5.5499999,9.090784072875977,-3.3686418533325195,4.07014274597168,59.1278076171875,-22.430419921875,-6.317138671875
5.569999900000001,8.956708908081055,-3.9001545906066895,3.3446998596191406,54.412841796875,-4.852294921875,11.4593505859375
5.5899999000000005,8.793902397155762,-4.278438568115234,2.827552318572998,45.806884765625,-52.9937744140625,40.9088134765625
5.609999900000001,8.674192428588867,-4.659116744995117,2.4660277366638184,59.112548828125,-72.509765625,33.782958984375
5.6299999000000005,8.556877136230469,-5.003881454467773,2.2457611560821533,75.86669921875,-30.5633544921875,-0.7171630859375
5.6499999,8.463502883911133,-5.3582234382629395,2.1547815799713135,77.056884765625,-9.9639892578125,6.0272216796875
5.6699999000000005,8.271966934204102,-5.485116004943848,2.274491548538208,66.925048828125,-62.9425048828125,30.6396484375
5.6899999,8.090007781982422,-5.681440830230713,2.5689783096313477,63.65966796875,-110.53466796875,31.3568115234375
5.709999900000001,7.999027729034424,-5.87776517868042,2.4588451385498047,68.878173828125,-107.91015625,4.1656494140625
5.7299999,8.056488990783691,-6.13633918762207,1.8986018896102905,72.69287109375,-73.150634765625,-6.072998046875
5.749999900000001,8.190564155578613,-6.215347766876221,1.1420341730117798,73.1201171875,-59.1278076171875,9.063720703125
5.7699999,8.300697326660156,-6.00226354598999,0.6153098344802856,65.460205078125,-84.564208984375,7.2479248046875
5.789999900000001,8.497021675109863,-5.963956356048584,0.15322890877723694,62.80517578125,-103.8360595703125,-0.79345703125
5.8099999,8.671798706054688,-5.781997203826904,-0.569819986820221,65.1397705078125,-81.0394287109375,-16.1590576171875
5.829999900000001,8.81784439086914,-5.5976433753967285,-1.3551181554794312,67.3828125,-24.017333984375,-17.974853515625
5.8499999,8.904036521911621,-5.307945251464844,-2.0446481704711914,62.9730224609375,-7.293701171875,-8.2550048828125
5.869999900000001,8.87051773071289,-4.932055473327637,-2.169146776199341,56.243896484375,-25.726318359375,-9.9029541015625
5.8899999,8.743624687194824,-4.594472885131836,-1.7381904125213623,52.91748046875,-37.139892578125,-14.2822265625
5.909999900000001,8.578424453735352,-4.357447147369385,-1.213860273361206,52.5054931640625,-39.3524169921875,-12.3138427734375
5.9299999,8.372523307800293,-4.113238334655762,-0.8834604024887085,54.3975830078125,-39.9322509765625,-9.94873046875
5.949999900000001,8.197746276855469,-3.9600095748901367,-0.828393816947937,52.520751953125,-41.9464111328125,-7.32421875
5.9699999,8.085219383239746,-3.8977603912353516,-1.0534487962722778,50.506591796875,-44.2962646484375,-5.2490234375
5.989999900000001,8.022970199584961,-3.8546648025512695,-1.6089035272598267,43.39599609375,-44.98291015625,-8.575439453125
6.0099999,8.08043098449707,-3.8355112075805664,-2.298433542251587,36.956787109375,-30.6396484375,-8.36181640625
6.029999900000001,8.248024940490723,-4.0294413566589355,-2.9472622871398926,30.1666259765625,-15.6707763671875,0.9613037109375
6.0499999,8.458714485168457,-4.127603530883789,-3.469198226928711,22.8271484375,-17.181396484375,-13.427734375
6.069999900000001,8.635885238647461,-4.158728122711182,-3.620033025741577,20.965576171875,-15.31982421875,-25.7568359375
6.0899999000000005,8.75080680847168,-4.07014274597168,-3.3949780464172363,24.8260498046875,-7.87353515625,-20.9197998046875
6.109999900000001,8.757989883422852,-3.8115692138671875,-3.004723072052002,24.3682861328125,-18.4326171875,-11.77978515625
6.1299999000000005,8.71728801727295,-3.5673606395721436,-2.784456491470337,14.5263671875,-39.886474609375,-14.8468017578125
6.149999900000001,8.609549522399902,-3.205836057662964,-3.050212860107422,10.25390625,-30.8380126953125,-19.7601318359375
6.1699999000000005,8.508993148803711,-2.782062292098999,-3.890577793121338,6.011962890625,7.049560546875,-13.7481689453125
6.1899999,8.518569946289062,-2.449268341064453,-4.599261283874512,13.3209228515625,52.3834228515625,3.5400390625
6.209999900000001,8.662221908569336,-2.0805611610412598,-4.853046894073486,13.36669921875,47.7752685546875,-2.3193359375
6.2299999,8.973467826843262,-1.8411411046981812,-4.434061527252197,7.75146484375,15.7928466796875,-12.0391845703125
6.249999900000001,9.363722801208496,-1.5921441316604614,-3.6607344150543213,1.739501953125,2.2430419921875,-6.744384765625
6.2699999,9.6989107131958,-1.216254472732544,-3.179499864578247,0.30517578125,3.753662109375,1.617431640625
6.289999900000001,10.036493301391602,-0.8403648138046265,-3.0119056701660156,6.8206787109375,9.033203125,0.8392333984375
6.3099999,10.319009780883789,-0.6105214357376099,-3.1292216777801514,6.3629150390625,4.3792724609375,0.18310546875
6.329999900000001,10.548852920532227,-0.5650315880775452,-3.3470940589904785,4.69970703125,-4.5623779296875,1.0528564453125
6.3499999,10.651803016662598,-0.5817909836769104,-3.6320040225982666,5.767822265625,-5.096435546875,1.495361328125
6.369999900000001,10.596736907958984,-0.6607996821403503,-3.8953661918640137,7.476806640625,3.0059814453125,3.0517578125
6.3899999,10.405200958251953,-0.7637503147125244,-4.077325344085693,5.6915283203125,5.79833984375,4.5928955078125
6.409999900000001,10.122684478759766,-0.871489405632019,-4.0749311447143555,2.2125244140625,2.6397705078125,4.7607421875
6.4299999,9.821015357971191,-0.9840168952941895,-3.88818359375,0.579833984375,1.0528564453125,4.5318603515625
6.449999900000001,9.557653427124023,-1.1013327836990356,-3.648763418197632,-1.190185546875,2.593994140625,5.706787109375
6.4699999,9.346963882446289,-1.2114660739898682,-3.3734302520751953,-2.7923583984375,9.185791015625,8.5906982421875
6.489999900000001,9.184157371520996,-1.3431471586227417,-3.1004912853240967,-4.974365234375,12.481689453125,12.542724609375
6.5099999,9.064447402954102,-1.522712230682373,-2.808398485183716,-8.97216796875,7.6141357421875,15.2130126953125
6.529999900000001,8.973467826843262,-1.7166426181793213,-2.561795711517334,-11.6729736328125,4.33349609375,15.380859375
6.5499999,8.89445972442627,-1.867477297782898,-2.363077163696289,-12.8936767578125,8.7738037109375,17.730712890625
6.569999900000001,8.853757858276367,-2.054224967956543,-2.3247697353363037,-18.0816650390625,8.7127685546875,25.20751953125
6.5899999000000005,8.865729331970215,-2.300827741622925,-2.365471363067627,-22.6898193359375,9.21630859375,28.4423828125
6.609999900000001,8.944737434387207,-2.669534921646118,-2.4636335372924805,-25.20751953125,14.0380859375,21.4080810546875
6.6299999000000005,9.066842079162598,-3.1244332790374756,-2.5546131134033203,-26.55029296875,20.2789306640625,16.7999267578125
6.649999900000001,9.174580574035645,-3.529053211212158,-2.583343744277954,-29.876708984375,20.7672119140625,15.7318115234375
6.6699999000000005,9.23443603515625,-3.7900211811065674,-2.5306711196899414,-35.9954833984375,17.730712890625,16.90673828125
6.6899999,9.26795482635498,-3.9647979736328125,-2.3918075561523438,-42.1600341796875,13.1072998046875,16.448974609375
6.709999900000001,9.315838813781738,-4.125209331512451,-2.190694570541382,-43.1671142578125,13.7481689453125,12.176513671875
6.7299999,9.32302188873291,-4.170699596405029,-1.9847931861877441,-39.7796630859375,17.15087890625,1.9989013671875
6.749999900000001,9.289502143859863,-4.108449935913086,-1.8722656965255737,-42.388916015625,14.4805908203125,0.274658203125
6.7699999,9.2033109664917,-3.909731388092041,-1.86508309841156,-46.2646484375,15.31982421875,9.82666015625
6.789999900000001,9.121908187866211,-3.7612907886505127,-1.8794482946395874,-46.417236328125,23.3612060546875,14.95361328125
6.8099999,9.105149269104004,-3.6966474056243896,-1.867477297782898,-44.5098876953125,25.4974365234375,8.3465576171875
6.829999900000001,9.105149269104004,-3.734954595565796,-1.8195933103561401,-47.1649169921875,18.61572265625,0.274658203125
6.8499999,9.0859956741333,-3.7900211811065674,-1.8387469053268433,-52.9327392578125,13.824462890625,4.7760009765625
6.869999900000001,9.026140213012695,-3.7469255924224854,-2.10210919380188,-58.41064453125,17.02880859375,10.6201171875
6.8899999,9.002198219299316,-3.8546648025512695,-2.4157495498657227,-60.0128173828125,37.7197265625,13.61083984375
6.909999900000001,8.999804496765137,-4.098873138427734,-2.6216509342193604,-59.38720703125,53.6956787109375,5.8135986328125
6.9299999,8.99740982055664,-4.335899353027344,-2.557007312774658,-59.4482421875,47.7752685546875,-7.38525390625
6.949999900000001,8.899248123168945,-4.541800498962402,-2.319981336593628,-68.2830810546875,32.8216552734375,-3.5400390625
6.9699999,8.712499618530273,-4.613626480102539,-2.0853497982025146,-76.568603515625,33.5693359375,5.828857421875
6.989999900000001,8.513781547546387,-4.649539470672607,-1.9584569931030273,-81.1920166015625,47.0428466796875,5.43212890625
7.0099999,8.22887134552002,-4.970362663269043,-1.455674648284912,-84.3658447265625,52.0477294921875,-3.753662109375
7.029999900000001,8.159439086914062,-5.173870086669922,-1.0582371950149536,-95.611572265625,32.8216552734375,-0.1983642578125
7.0499999,8.123526573181152,-5.353435039520264,-0.7781155705451965,-106.231689453125,24.2767333984375,1.8463134765625
7.069999900000001,8.157045364379883,-5.638344764709473,-0.8044517636299133,-103.424072265625,39.8406982421875,1.2054443359375
7.0899999000000005,8.161833763122559,-5.884947776794434,-1.0773907899856567,-94.78759765625,66.1163330078125,-1.3275146484375
7.109999900000001,8.090007781982422,-6.050147533416748,-1.3000515699386597,-96.0235595703125,80.4901123046875,-1.953125
7.1299999000000005,7.927201747894287,-6.004657745361328,-1.338358759880066,-104.888916015625,74.8291015625,4.69970703125
7.149999900000001,7.771578788757324,-5.899312973022461,-1.1037269830703735,-110.4736328125,68.4051513671875,12.908935546875
7.1699999000000005,7.711723804473877,-5.731719017028809,-0.5841852426528931,-102.4932861328125,75.0579833984375,11.3372802734375
7.1899999,7.812280178070068,-5.669469833374023,0.13168109953403473,-94.3756103515625,77.0111083984375,5.4473876953125
7.209999900000001,8.034940719604492,-5.604825973510742,0.9457096457481384,-90.9423828125,62.31689453125,3.8909912109375
7.2299999,8.305485725402832,-5.504269599914551,1.7334020137786865,-88.9129638671875,45.0592041015625,2.2430419921875
7.249999900000001,8.561665534973145,-5.322310447692871,2.3989901542663574,-79.2083740234375,40.3594970703125,-0.457763671875
7.2699999,8.803479194641113,-5.135562419891357,2.8778305053710938,-64.697265625,35.6292724609375,-4.9285888671875
7.289999900000001,9.002198219299316,-4.829104900360107,3.224989652633667,-56.9610595703125,18.157958984375,-13.336181640625
7.3099999,9.220070838928223,-4.565742492675781,3.4308910369873047,-54.38232421875,-3.2806396484375,-16.1285400390625
7.329999900000001,9.454702377319336,-4.290409564971924,3.380612850189209,-49.346923828125,-11.932373046875,-21.759033203125
7.3499999,9.646238327026367,-3.9432501792907715,3.0621838569641113,-33.0352783203125,-0.5950927734375,-33.782958984375
7.369999900000001,9.746794700622559,-3.6128504276275635,2.7437551021575928,-14.495849609375,17.2882080078125,-37.65869140625
7.3899999,9.773131370544434,-3.332728862762451,2.765302896499634,13.5955810546875,16.937255859375,-35.46142578125
7.409999900000001,9.682151794433594,-3.134010076522827,3.332728862762451,33.4625244140625,-20.56884765625,-44.9371337890625
7.4299999,9.493009567260742,-2.853888511657715,4.182670593261719,55.877685546875,-72.296142578125,-62.408447265625
7.449999900000001,9.289502143859863,-2.319981336593628,4.620809078216553,77.545166015625,-100.799560546875,-65.9027099609375
7.4699999,9.220070838928223,-1.7094600200653076,4.656722068786621,94.42138671875,-75.347900390625,-42.8009033203125
7.489999900000001,9.354146003723145,-1.0630255937576294,4.280832767486572,111.8011474609375,-53.3905029296875,-35.736083984375
7.5099999,9.701305389404297,-0.5626373887062073,3.9432501792907715,124.0386962890625,-78.4759521484375,-50.079345703125
7.529999900000001,10.093954086303711,-0.26815059781074524,3.6343982219696045,118.8812255859375,-132.5531005859375,-54.26025390625
7.5499999,10.371682167053223,0.10295066982507706,2.7030537128448486,107.452392578125,-164.0167236328125,-44.189453125
7.569999900000001,10.486603736877441,0.6512228846549988,1.0845733880996704,107.7880859375,-127.410888671875,-34.576416015625
7.5899999000000005,10.565611839294434,0.9169792532920837,-0.8044517636299133,108.21533203125,-69.7479248046875,-25.848388671875
7.609999900000001,10.505757331848145,1.3263877630233765,-2.4899697303771973,97.5341796875,-77.20947265625,-37.0635986328125
7.6299999000000005,10.304644584655762,1.6519991159439087,-3.248931646347046,77.850341796875,-116.76025390625,-36.834716796875
7.649999900000001,9.84256362915039,2.1571757793426514,-3.383007049560547,57.830810546875,-144.9432373046875,-15.3961181640625
7.6699999000000005,9.35654067993164,2.537853717803955,-3.5482068061828613,47.0428466796875,-153.839111328125,3.8299560546875
7.6899999,8.877699851989746,2.695871114730835,-3.689464807510376,42.4346923828125,-127.6397705078125,0.2288818359375
7.709999900000001,8.49941635131836,2.650381326675415,-4.264073371887207,35.33935546875,-108.5662841796875,-19.378662109375
7.7299999,8.22887134552002,2.652775526046753,-5.537788391113281,36.8499755859375,-85.99853515625,-8.4228515625
7.749999900000001,8.164227485656738,2.2673089504241943,-6.8043212890625,61.065673828125,12.725830078125,23.1170654296875
7.7699999,8.159439086914062,1.800439715385437,-7.881711959838867,76.4007568359375,89.263916015625,19.34814453125
7.789999900000001,8.291120529174805,1.1204863786697388,-8.29830265045166,80.841064453125,74.2034912109375,-13.9617919921875
7.8099999,8.44195556640625,0.2968810200691223,-7.872135162353516,85.51025390625,43.76220703125,2.8839111328125
7.829999900000001,8.508993148803711,-0.29209262132644653,-7.299921035766602,91.36962890625,48.8128662109375,25.8941650390625
7.8499999,8.458714485168457,-0.7757213711738586,-6.600813865661621,101.9439697265625,90.7440185546875,24.0020751953125
7.869999900000001,8.343792915344238,-1.2473790645599365,-5.992686748504639,94.6044921875,90.2252197265625,4.69970703125
7.8899999,8.192957878112793,-1.824381709098816,-5.458779811859131,91.61376953125,53.680419921875,11.3525390625
7.909999900000001,7.979874134063721,-2.4444799423217773,-4.776432514190674,97.747802734375,55.3741455078125,21.4080810546875
7.9299999,7.716512203216553,-2.964021682739258,-4.036623954772949,91.8426513671875,68.359375,7.080078125
7.949999900000001,7.4770917892456055,-3.3949780464172363,-3.603273630142212,77.606201171875,28.594970703125,-4.7149658203125
7.9699999,7.280767440795898,-3.624821424484253,-3.4093432426452637,78.6895751953125,4.9285888671875,11.138916015625
7.989999900000001,7.161057472229004,-3.6391866207122803,-3.49314022064209,87.5244140625,40.374755859375,32.8521728515625
8.0099999,7.206547260284424,-3.7158010005950928,-3.5266590118408203,86.5936279296875,76.2786865234375,40.34423828125
8.0299999,7.407660007476807,-4.000710964202881,-3.512293815612793,68.4967041015625,45.257568359375,35.3546142578125
8.049999900000001,7.723694801330566,-4.5154643058776855,-3.3686418533325195,47.3480224609375,-0.3814697265625,27.6641845703125
8.069999900000001,8.159439086914062,-5.140350818634033,-3.488351821899414,32.1044921875,9.796142578125,26.336669921875
8.0899999,8.683769226074219,-5.827486991882324,-4.1395745277404785,17.8375244140625,50.3997802734375,24.5513916015625
8.1099999,9.2033109664917,-6.3973069190979,-4.853046894073486,8.5296630859375,89.1571044921875,12.542724609375
8.129999900000001,9.576807022094727,-6.715735912322998,-5.16429328918457,-8.1787109375,98.4649658203125,-4.57763671875
8.149999900000001,9.727641105651855,-6.88332986831665,-4.797980308532715,-29.998779296875,88.897705078125,-5.2337646484375
8.1699999,9.643844604492188,-6.818686485290527,-3.84269380569458,-47.1038818359375,84.3963623046875,-6.1798095703125
8.1899999,9.430760383605957,-6.780379295349121,-2.5737667083740234,-57.586669921875,85.3424072265625,-18.5546875
8.2099999,9.119514465332031,-6.766014099121094,-1.0965443849563599,-60.211181640625,87.6922607421875,-34.5611572265625
8.229999900000001,8.734047889709473,-6.696582317352295,0.3064578175544739,-65.826416015625,69.7021484375,-42.05322265625
8.2499999,8.312667846679688,-6.512228488922119,1.4245500564575195,-77.789306640625,40.1458740234375,-38.5589599609375
8.2699999,7.953537940979004,-6.256049156188965,1.802833914756775,-90.728759765625,22.8729248046875,-36.62109375
8.2899999,7.800309181213379,-6.133944988250732,1.6304513216018677,-94.879150390625,51.239013671875,-41.290283203125
8.309999900000001,7.829039573669434,-6.215347766876221,1.280897855758667,-85.0830078125,95.550537109375,-50.140380859375
8.3299999,7.85537576675415,-6.186617374420166,1.290474772453308,-84.442138671875,97.625732421875,-61.9964599609375
8.3499999,7.817068576812744,-6.071695327758789,1.6903064250946045,-97.442626953125,52.825927734375,-53.070068359375
8.3699999,7.735665798187256,-5.906495571136475,2.2673089504241943,-105.1788330078125,31.8145751953125,-36.7889404296875
8.389999900000001,7.661445617675781,-5.702988624572754,2.4660277366638184,-99.334716796875,52.2003173828125,-40.34423828125
8.4099999,7.680599212646484,-5.537788391113281,2.6455929279327393,-77.6519775390625,95.489501953125,-51.6815185546875
8.4299999,7.711723804473877,-5.477933406829834,2.980781078338623,-74.676513671875,90.1947021484375,-43.853759765625
8.4499999,7.6111674308776855,-5.128379821777344,3.6966474056243896,-78.460693359375,44.5098876953125,-36.5753173828125
8.469999900000001,7.51779317855835,-4.728548526763916,4.422090530395508,-73.1048583984375,6.2713623046875,-32.257080078125
8.4899999,7.4986395835876465,-4.266467571258545,4.541800498962402,-65.155029296875,1.953125,-31.7230224609375
8.5099999,7.577648162841797,-3.8594532012939453,4.168305397033691,-53.5125732421875,41.900634765625,-27.801513671875
8.5299999,7.659051418304443,-2.7246015071868896,3.7684733867645264,-44.3115234375,33.4320068359375,-9.82666015625
8.549999900000001,7.6997528076171875,-2.1978771686553955,4.101267337799072,-42.3583984375,-9.857177734375,13.6566162109375
8.569999900000001,7.82185697555542,-1.8363527059555054,4.369418144226074,-31.6009521484375,-13.7481689453125,20.263671875
8.5899999,8.058882713317871,-1.6615760326385498,4.431667327880859,-13.092041015625,16.3116455078125,13.580322265625
8.6099999,8.35336971282959,-1.558625340461731,4.364629745483398,-5.2032470703125,22.15576171875,13.1988525390625
8.629999900000001,8.614337921142578,-1.5131354331970215,4.592078685760498,-3.7841796875,0.6561279296875,22.979736328125
8.649999900000001,8.83939266204834,-1.3694833517074585,4.948814868927002,6.561279296875,-24.322509765625,26.1993408203125
8.6699999,9.100360870361328,-1.41257905960083,5.315127849578857,22.1099853515625,-32.745361328125,24.9481201171875
8.6899999,9.402029991149902,-1.501164436340332,5.410895824432373,34.0576171875,-37.994384765625,19.3328857421875
8.709999900000001,9.799467086791992,-1.6376339197158813,5.231330871582031,37.5213623046875,-55.755615234375,14.9078369140625
8.729999900000001,10.287884712219238,-1.7070658206939697,4.865017890930176,40.679931640625,-72.3419189453125,13.580322265625
8.7499999,10.793061256408691,-1.6711528301239014,4.402936935424805,53.0853271484375,-67.9168701171875,7.32421875
8.7699999,11.094730377197266,-1.4245500564575195,3.866635799407959,66.95556640625,-60.48583984375,1.4801025390625
8.7899999,11.022904396057129,-0.9169792532920837,3.2752678394317627,66.3909912109375,-72.967529296875,7.26318359375
8.809999900000001,10.575188636779785,-0.4213795065879822,2.4636335372924805,56.33544921875,-98.876953125,29.1595458984375
8.8299999,10.034099578857422,0.014365210197865963,1.53707754611969,52.1240234375,-102.9815673828125,34.210205078125
8.8499999,9.658209800720215,0.043095629662275314,0.5746083855628967,56.70166015625,-79.5745849609375,27.5421142578125
8.8699999,9.588777542114258,-0.19153612852096558,-0.21787235140800476,63.385009765625,-60.211181640625,17.08984375
8.889999900000001,9.75637149810791,-0.4668693244457245,-0.5674257874488831,66.5130615234375,-50.323486328125,9.185791015625
8.9099999,10.038887977600098,-0.7374141216278076,-0.4189853072166443,67.657470703125,-51.3763427734375,9.21630859375
8.9299999,10.292673110961914,-0.8212111592292786,-0.05985504388809204,64.056396484375,-65.12451171875,5.18798828125
8.9499999,10.491392135620117,-0.8571242094039917,0.42616790533065796,60.3485107421875,-73.089599609375,-2.6702880859375
8.969999900000001,10.577583312988281,-0.7972691655158997,0.5889736413955688,63.201904296875,-71.563720703125,-4.82177734375
8.9899999,10.520122528076172,-0.6272808313369751,0.5267243981361389,72.418212890625,-54.5196533203125,-2.6397705078125
9.0099999,10.350133895874023,-0.44771572947502136,0.36152446269989014,74.920654296875,-42.8009033203125,0.7781982421875
9.0299999,10.125079154968262,-0.3064578175544739,-0.040701430290937424,68.2525634765625,-65.155029296875,2.227783203125
9.049999900000001,9.986215591430664,-0.3974374830722809,-0.811634361743927,66.1773681640625,-72.540283203125,4.425048828125
9.069999900000001,9.904812812805176,-0.6009446382522583,-1.821987509727478,77.6519775390625,-27.5421142578125,1.800537109375
9.0899999,9.849745750427246,-0.912190854549408,-2.7317841053009033,81.390380859375,14.5721435546875,-0.030517578125
9.1099999,9.816226959228516,-1.237802267074585,-3.4955344200134277,67.2607421875,-13.8092041015625,4.57763671875
9.129999900000001,9.861717224121094,-1.7118542194366455,-3.9863457679748535,55.9234619140625,-44.6624755859375,11.1083984375
9.149999900000001,9.952696800231934,-2.2457611560821533,-4.3622355461120605,63.5833740234375,-11.077880859375,8.544921875
9.1699999,10.007762908935547,-2.719813108444214,-4.532223701477051,70.73974609375,36.5142822265625,-2.9144287109375
9.1899999,9.952696800231934,-3.1076738834381104,-4.041412353515625,59.26513671875,22.27783203125,-0.885009765625
9.209999900000001,9.68933391571045,-3.2609026432037354,-3.270479440689087,34.60693359375,-61.70654296875,7.5836181640625
9.229999900000001,9.423578262329102,-3.4572272300720215,-2.8203697204589844,30.8074951171875,-90.0115966796875,9.063720703125
9.2499999,9.131484985351562,-3.6583402156829834,-3.028665065765381,46.3714599609375,-17.63916015625,1.46484375
9.2699999,8.803479194641113,-3.73016619682312,-3.6990416049957275,51.1016845703125,51.3458251953125,-5.4779052734375
9.2899999,8.394071578979492,-3.7253777980804443,-3.8977603912353516,40.2374267578125,41.3360595703125,11.2457275390625
9.309999900000001,7.893682956695557,-3.581725835800171,-3.4332852363586426,18.8140869140625,-23.98681640625,28.25927734375
9.3299999,7.570465564727783,-3.77565598487854,-2.9065608978271484,5.2337646484375,-52.0477294921875,31.829833984375
9.3499999,7.465120792388916,-4.220977783203125,-2.7293899059295654,10.894775390625,-5.6304931640625,20.721435546875
9.3699999,7.60637903213501,-4.922478675842285,-2.80361008644104,18.9361572265625,50.262451171875,15.350341796875
9.389999900000001,7.802703380584717,-5.521028995513916,-2.9879636764526367,7.0648193359375,30.1666259765625,20.0042724609375
9.4099999,8.044517517089844,-5.995080947875977,-2.7988216876983643,-10.8489990234375,-0.579833984375,22.491455078125
9.4299999,8.324639320373535,-6.387730121612549,-2.6455929279327393,-23.5443115234375,2.227783203125,14.9993896484375
9.4499999,8.556877136230469,-6.600813865661621,-2.626439332962036,-33.538818359375,25.9857177734375,-3.509521484375
9.469999900000001,8.798690795898438,-6.840234279632568,-2.4827871322631836,-39.2913818359375,42.6788330078125,-7.1563720703125
9.4899999,8.832210540771484,-6.754043102264404,-2.341529369354248,-53.5430908203125,21.270751953125,-10.4522705078125
9.5099999,8.796297073364258,-6.701370716094971,-2.056619167327881,-69.76318359375,6.011962890625,-11.6119384765625
9.5299999,8.688557624816895,-6.627150535583496,-1.922544002532959,-80.230712890625,19.073486328125,-19.9737548828125
9.549999900000001,8.513781547546387,-6.54574728012085,-2.161964178085327,-94.9859619140625,36.468505859375,-37.3992919921875
9.569999900000001,8.252813339233398,-6.354211330413818,-2.4851813316345215,-107.2845458984375,58.502197265625,-45.7611083984375
9.5899999,7.9846625328063965,-6.167463779449463,-2.542642116546631,-102.1728515625,87.34130859375,-34.4390869140625
9.6099999,7.759607791900635,-6.0405707359313965,-2.0374655723571777,-87.1734619140625,98.1597900390625,-28.4423828125
9.629999900000001,7.55131196975708,-5.810727596282959,-1.1109095811843872,-89.019775390625,70.0531005859375,-44.00634765625
9.649999900000001,7.438784599304199,-5.56173038482666,-0.23942017555236816,-100.5859375,41.107177734375,-42.0684814453125
9.6699999,7.481880187988281,-5.236119270324707,0.27054479718208313,-108.3526611328125,52.79541015625,-22.15576171875
9.6899999,7.694964408874512,-5.197812080383301,0.6009446382522583,-102.203369140625,93.2159423828125,-11.962890625
9.709999900000001,8.044517517089844,-5.178658485412598,1.0127472877502441,-91.1865234375,95.367431640625,-37.1246337890625
9.729999900000001,8.374917984008789,-5.341464042663574,1.599326729774475,-96.710205078125,53.1158447265625,-48.4466552734375
9.7499999,8.554482460021973,-5.39174222946167,1.9967641830444336,-112.3504638671875,21.17919921875,-22.8729248046875
9.7699999,8.633491516113281,-5.4444146156311035,1.9560627937316895,-114.3341064453125,42.388916015625,-7.4615478515625
9.7899999,8.628703117370605,-5.5329999923706055,1.7046716213226318,-101.654052734375,82.5347900390625,-23.3154296875
9.809999900000001,8.631096839904785,-5.705382823944092,1.778891921043396,-94.1009521484375,82.3822021484375,-35.2935791015625
9.8299999,8.544905662536621,-5.52821159362793,2.27209734916687,-97.59521484375,40.0848388671875,-24.566650390625
9.8499999,8.485051155090332,-5.140350818634033,2.8778305053710938,-102.5848388671875,11.3983154296875,-4.3182373046875
9.8699999,8.53293514251709,-4.726154327392578,3.3207578659057617,-95.9014892578125,30.6396484375,-1.2359619140625
9.889999900000001,8.676587104797363,-4.410119533538818,3.6846764087677,-76.3702392578125,57.769775390625,-19.6075439453125
9.9099999,8.798690795898438,-3.9600095748901367,4.2544965744018555,-63.41552734375,38.7725830078125,-27.679443359375
9.9299999,8.810662269592285,-3.3016040325164795,4.778826713562012,-71.136474609375,-25.3448486328125,-7.0648193359375
9.9499999,8.793902397155762,-2.5019407272338867,5.032611846923828,-69.9005126953125,-46.295166015625,15.5792236328125
9.969999900000001,8.927978515625,-1.9153614044189453,4.608838081359863,-49.25537109375,-8.1787109375,10.8184814453125
9.9899999,9.21288776397705,-1.7573440074920654,4.062960147857666,-17.4102783203125,43.6859130859375,-6.866455078125
10.0099999,9.495404243469238,-1.7597382068634033,3.9408559799194336,8.4075927734375,45.47119140625,-15.472412109375
10.0299999,9.658209800720215,-1.6927006244659424,4.323928356170654,13.5955810546875,-14.5721435546875,-6.591796875
10.049999900000001,9.794678688049316,-1.3694833517074585,4.7405195236206055,27.923583984375,-55.1605224609375,1.28173828125
10.069999900000001,9.943120002746582,-1.3335703611373901,4.14915132522583,53.253173828125,-13.1988525390625,-10.4522705078125
10.0899999,10.067618370056152,-1.2976573705673218,3.512293815612793,74.615478515625,7.110595703125,-17.3492431640625
10.1099999,10.046070098876953,-1.0749965906143188,3.2393548488616943,84.625244140625,-13.18359375,-16.29638671875
10.129999900000001,9.909601211547852,-0.7374141216278076,3.428496837615967,88.0889892578125,-48.15673828125,-5.4779052734375
10.149999900000001,9.694122314453125,-0.33518823981285095,3.6128504276275635,86.273193359375,-78.4912109375,0.06103515625
10.1699999,9.57441234588623,-0.1364694982767105,3.315969467163086,88.92822265625,-86.0443115234375,-0.335693359375
10.1899999,9.57201862335205,0.05985504388809204,2.3535003662109375,95.4132080078125,-64.8040771484375,-9.2620849609375
10.209999900000001,9.6989107131958,0.2298433631658554,0.9169792532920837,97.747802734375,-23.0255126953125,-11.16943359375
10.229999900000001,9.90241813659668,0.49320554733276367,-0.4189853072166443,93.56689453125,22.1405029296875,-8.5906982421875
10.2499999,10.043676376342773,0.912190854549408,-1.1875240802764893,74.64599609375,37.994384765625,-14.16015625
10.2699999,10.017339706420898,1.3862427473068237,-0.8978256583213806,60.2569580078125,27.618408203125,-16.7694091796875
10.2899999,9.813833236694336,1.821987509727478,0.272938996553421,72.81494140625,-2.4566650390625,-1.64794921875
10.309999900000001,9.564835548400879,2.1308395862579346,1.41257905960083,79.4830322265625,-56.4422607421875,18.463134765625
10.3299999,9.516951560974121,2.0015525817871094,2.032677173614502,82.4737548828125,-71.7010498046875,29.7393798828125
10.3499999,9.706093788146973,1.599326729774475,1.5849615335464478,83.6181640625,-46.3104248046875,20.782470703125
10.3699999,10.074800491333008,1.0031704902648926,0.47165772318840027,82.305908203125,-23.590087890625,17.333984375
10.389999900000001,10.383652687072754,0.45489832758903503,-0.6344634294509888,80.291748046875,-22.2930908203125,28.4271240234375
10.4099999,10.644620895385742,-0.23942017555236816,-1.5514427423477173,78.582763671875,-37.7655029296875,37.628173828125
10.4299999,10.711658477783203,-0.6871358752250671,-2.2577321529388428,78.338623046875,-39.5660400390625,21.66748046875
10.4499999,10.66137981414795,-1.1444283723831177,-2.647987127304077,78.3538818359375,-13.641357421875,12.7716064453125
10.469999900000001,10.445901870727539,-1.37906014919281,-2.6623523235321045,70.2972412109375,-15.9454345703125,32.7606201171875
10.4899999,10.163386344909668,-1.7764976024627686,-2.1739351749420166,60.8367919921875,-63.0340576171875,46.4630126953125
10.5099999,9.93354320526123,-2.31758713722229,-2.1715409755706787,61.279296875,-115.53955078125,27.801513671875
10.5299999,9.825803756713867,-2.978386878967285,-2.8658595085144043,66.7724609375,-74.8748779296875,-2.2125244140625
10.549999900000001,9.801861763000488,-3.603273630142212,-4.015076160430908,68.2373046875,22.0794677734375,4.0740966796875
10.569999900000001,9.624691009521484,-3.7158010005950928,-4.8937482833862305,53.7261962890625,31.67724609375,13.641357421875
10.5899999,9.275136947631836,-3.6511576175689697,-4.865017890930176,30.5328369140625,-42.5872802734375,17.242431640625
10.6099999,8.87051773071289,-3.648763418197632,-4.54419469833374,12.481689453125,-91.00341796875,15.13671875
10.629999900000001,8.508993148803711,-3.5960910320281982,-4.60165548324585,13.3514404296875,-44.403076171875,5.462646484375
10.649999900000001,8.288725852966309,-3.7421371936798096,-5.106832027435303,15.3656005859375,34.149169921875,14.09912109375
10.6699999,8.185775756835938,-3.797203779220581,-5.604825973510742,2.7923583984375,44.5556640625,22.8729248046875
10.6899999,8.169015884399414,-3.907337188720703,-5.370194435119629,-10.2691650390625,20.6451416015625,26.5045166015625
10.709999900000001,8.276755332946777,-4.357447147369385,-4.477157115936279,-21.331787109375,9.2010498046875,26.2603759765625
10.729999900000001,8.362946510314941,-4.618414878845215,-3.5936968326568604,-24.9176025390625,14.007568359375,10.3302001953125
10.7499999,8.47547435760498,-5.0254292488098145,-2.765302896499634,-31.0211181640625,28.01513671875,10.833740234375
10.7699999,8.528146743774414,-5.193023681640625,-2.3056161403656006,-49.1485595703125,21.5606689453125,16.7999267578125
10.7899999,8.611943244934082,-5.43723201751709,-2.008735179901123,-62.31689453125,10.2386474609375,16.1895751953125
10.809999900000001,8.710105895996094,-5.702988624572754,-2.030282974243164,-67.3065185546875,11.993408203125,2.50244140625
10.8299999,8.767566680908203,-5.9304375648498535,-2.3558945655822754,-68.29833984375,32.6690673828125,-10.43701171875
10.8499999,8.798690795898438,-6.138733386993408,-2.7533318996429443,-75.98876953125,61.5081787109375,-5.279541015625
10.8699999,8.815450668334961,-6.4380083084106445,-2.719813108444214,-87.554931640625,77.392578125,-0.4119873046875
10.889999900000001,8.80587387084961,-6.797138690948486,-2.166752576828003,-97.65625,59.5855712890625,-19.8516845703125
10.9099999,8.755595207214355,-7.146692276000977,-1.359906554222107,-106.170654296875,28.7322998046875,-42.6788330078125
10.9299999,8.614337921142578,-7.254431247711182,-0.8738836050033569,-119.232177734375,29.022216796875,-42.9534912109375
10.9499999,8.4108304977417,-7.225700855255127,-0.6751648783683777,-123.931884765625,78.155517578125,-27.40478515625
10.969999900000001,8.224082946777344,-7.182605266571045,-0.42616790533065796,-117.9046630859375,113.555908203125,-30.8685302734375
10.9899999,8.078036308288574,-7.094019412994385,0.0933738648891449,-115.234375,88.3941650390625,-53.3447265625
11.0099999,7.903259754180908,-6.950367450714111,0.7206547260284424,-123.3673095703125,57.7545166015625,-52.642822265625
11.0299999,7.702147006988525,-6.691793918609619,1.2976573705673218,-120.05615234375,82.9620361328125,-29.9072265625
11.049999900000001,7.453149795532227,-6.232107162475586,1.4915876388549805,-115.9820556640625,104.9957275390625,-27.4505615234375
11.069999900000001,7.259219646453857,-5.791574001312256,1.6496049165725708,-111.9537353515625,96.2982177734375,-36.224365234375
11.0899999,7.103596210479736,-5.2049946784973145,1.8555063009262085,-113.8153076171875,75.5615234375,-33.416748046875
11.1099999,7.058106422424316,-4.613626480102539,2.229001760482788,-110.107421875,76.9805908203125,-11.474609375
11.129999900000001,7.113173484802246,-4.0294413566589355,2.7030537128448486,-104.522705078125,80.5511474609375,-0.1373291015625
11.149999900000001,7.297526836395264,-3.603273630142212,3.3016040325164795,-96.343994140625,62.591552734375,-9.3841552734375
11.1699999,7.618350028991699,-3.4548330307006836,4.07014274597168,-85.4949951171875,36.43798828125,-8.697509765625
11.1899999,7.910442352294922,-3.2321722507476807,4.711789131164551,-78.277587890625,16.815185546875,-5.126953125
11.209999900000001,8.161833763122559,-2.9472622871398926,5.023035049438477,-72.69287109375,5.92041015625,2.44140625
11.229999900000001,8.35336971282959,-2.6815059185028076,5.003881454467773,-63.873291015625,4.08935546875,9.3994140625
11.2499999,8.456320762634277,-2.4133553504943848,4.845864295959473,-47.9278564453125,5.157470703125,5.950927734375
11.2699999,8.513781547546387,-2.121262788772583,4.668693542480469,-30.4718017578125,-3.1585693359375,5.6610107421875
11.2899999,8.614337921142578,-1.886630892753601,4.54419469833374,-18.341064453125,-16.29638671875,15.8538818359375
11.309999900000001,8.810662269592285,-1.7190368175506592,4.5609540939331055,-6.8511962890625,-16.204833984375,22.918701171875
11.3299999,9.126696586608887,-1.6496049165725708,4.675876140594482,9.613037109375,-17.4407958984375,15.7470703125
11.3499999,9.555258750915527,-1.7621324062347412,4.920084476470947,28.3966064453125,-27.6336669921875,10.7269287109375
11.3699999,9.976638793945312,-1.8602946996688843,5.25527286529541,48.2177734375,-36.376953125,10.345458984375
11.389999900000001,10.38844108581543,-2.006340980529785,5.623979568481445,66.9403076171875,-41.6107177734375,8.85009765625
11.4099999,10.74996566772461,-2.1332337856292725,5.91128396987915,84.9151611328125,-50.9185791015625,0.3509521484375
11.4299999,11.015722274780273,-2.2433669567108154,6.155492782592773,104.79736328125,-60.1348876953125,-10.3912353515625
11.4499999,11.113883972167969,-2.2912509441375732,6.191405773162842,115.90576171875,-81.3751220703125,-14.6636962890625
11.469999900000001,10.975020408630371,-2.169146776199341,5.796362400054932,120.17822265625,-107.5592041015625,-14.7857666015625
11.4899999,10.644620895385742,-1.8483237028121948,4.831499099731445,124.4964599609375,-116.8975830078125,-16.17431640625
11.5099999,10.218452453613281,-1.4987702369689941,3.318363666534424,126.8310546875,-103.6224365234375,-13.3819580078125
11.5299999,9.832986831665039,-1.1324573755264282,1.6089035272598267,124.298095703125,-85.3118896484375,-15.7623291015625
11.549999900000001,9.524134635925293,-0.7086837291717529,0.023942016065120697,116.39404296875,-82.3211669921875,-21.484375
11.569999900000001,9.181763648986816,0.4405331015586853,-1.8363527059555054,96.9696044921875,-84.4879150390625,-7.4310302734375
11.5899999,9.117119789123535,1.039083480834961,-2.2194249629974365,90.33203125,-79.6356201171875,7.3394775390625
11.6099999,9.289502143859863,1.3120225667953491,-2.5665841102600098,91.9647216796875,-70.526123046875,12.0391845703125
11.629999900000001,9.588777542114258,1.4245500564575195,-2.9975404739379883,89.41650390625,-47.1954345703125,1.922607421875
11.649999900000001,10.010157585144043,1.2521674633026123,-3.251325845718384,85.8917236328125,-15.7623291015625,6.8511962890625
11.6699999,10.283096313476562,1.2306196689605713,-3.0621838569641113,79.6051025390625,-15.7318115234375,22.5067138671875
11.6899999,10.393229484558105,0.9265560507774353,-2.346317768096924,66.9403076171875,-67.2454833984375,40.618896484375
11.709999900000001,10.54406452178955,-0.031124621629714966,-2.2697031497955322,60.882568359375,-119.44580078125,33.294677734375
11.729999900000001,10.563218116760254,-0.8834604024887085,-2.980781078338623,81.0394287109375,-59.0057373046875,-19.500732421875
11.7499999,10.54645824432373,-1.9153614044189453,-4.316745758056641,97.0611572265625,56.915283203125,-25.3143310546875
11.7699999,10.14902114868164,-2.0422539710998535,-5.307945251464844,91.0491943359375,73.8525390625,-3.6468505859375
11.7899999,9.502586364746094,-1.9321208000183105,-4.867412090301514,81.9244384765625,10.1165771484375,20.8892822265625
11.809999900000001,8.846575736999512,-1.9608511924743652,-3.706224203109741,59.9822998046875,-75.5157470703125,14.678955078125
11.8299999,8.434772491455078,-2.205059766769409,-3.1747114658355713,42.449951171875,-108.82568359375,-17.425537109375
11.8499999,8.377311706542969,-2.7557260990142822,-3.7158010005950928,42.05322265625,-41.9464111328125,-14.9993896484375
11.8699999,8.38449478149414,-2.978386878967285,-5.035006046295166,46.1273193359375,25.8941650390625,2.2735595703125
11.889999900000001,8.281543731689453,-2.873042106628418,-5.841852188110352,39.520263671875,27.3895263671875,15.655517578125
11.9099999,8.092401504516602,-2.8562827110290527,-5.767632007598877,16.632080078125,-28.106689453125,29.4952392578125
11.9299999,7.91283655166626,-2.9735984802246094,-5.523423194885254,-6.53076171875,-67.32177734375,28.6712646484375
11.9499999,7.850587368011475,-3.4189200401306152,-5.6910176277160645,-13.1988525390625,-19.9432373046875,22.3846435546875
11.969999900000001,7.975085735321045,-4.1395745277404785,-6.133944988250732,-1.1138916015625,69.091796875,24.10888671875
11.9899999,8.125920295715332,-4.795586109161377,-6.517016887664795,-1.4190673828125,77.5909423828125,26.9012451171875
12.0099999,8.286332130432129,-5.434837818145752,-6.31829833984375,-28.25927734375,25.909423828125,21.5911865234375
12.0299999,8.425195693969727,-5.9304375648498535,-5.698200225830078,-44.6014404296875,16.4947509765625,17.27294921875
12.049999900000001,8.468291282653809,-6.143521785736084,-5.298368453979492,-51.513671875,45.5322265625,4.2572021484375
12.069999900000001,8.456320762634277,-6.260837554931641,-5.015852451324463,-51.4984130859375,82.3974609375,5.767822265625
12.0899999,8.38449478149414,-6.3063273429870605,-4.58968448638916,-64.3310546875,87.0208740234375,7.01904296875
12.1099999,8.267178535461426,-6.354211330413818,-3.883395195007324,-81.9549560546875,63.079833984375,-3.692626953125
12.129999900000001,8.14028549194336,-6.447585105895996,-3.0382418632507324,-91.0186767578125,46.38671875,-15.716552734375
12.149999900000001,7.999027729034424,-6.528987884521484,-2.473210334777832,-95.5810546875,51.6204833984375,-18.24951171875
12.1699999,7.850587368011475,-6.607996463775635,-2.1595699787139893,-95.916748046875,78.0792236328125,-16.05224609375
12.1899999,7.716512203216553,-6.845022678375244,-1.8579005002975464,-101.7303466796875,92.6361083984375,-17.76123046875
12.209999900000001,7.556100368499756,-7.000645637512207,-1.3192051649093628,-106.6436767578125,75.0732421875,-33.782958984375
12.229999900000001,7.316680431365967,-6.947973251342773,-0.8834604024887085,-113.5406494140625,45.10498046875,-39.886474609375
12.2499999,7.041347026824951,-6.610390663146973,-0.646434485912323,-120.9716796875,55.3131103515625,-25.9246826171875
12.2699999,6.871358871459961,-6.2847795486450195,-0.545877993106842,-113.525390625,103.302001953125,-7.6904296875
12.289999900000002,6.873753070831299,-6.1267619132995605,-0.2298433631658554,-104.248046875,119.415283203125,-13.671875
12.309999900000001,7.0557122230529785,-6.277596950531006,0.6153098344802856,-108.2916259765625,82.82470703125,-28.289794921875
12.3299999,7.273584842681885,-6.445190906524658,1.6089035272598267,-118.4234619140625,34.9578857421875,-27.03857421875
12.3499999,7.4316020011901855,-6.493074893951416,2.145204782485962,-119.598388671875,31.3262939453125,-14.7247314453125
12.3699999,7.529764175415039,-6.45476770401001,2.2912509441375732,-107.91015625,75.0732421875,-10.2081298828125
12.389999900000001,7.548917770385742,-6.296750545501709,2.2026655673980713,-102.1575927734375,87.2650146484375,-22.9339599609375
12.4099999,7.510610580444336,-6.035782337188721,2.470816135406494,-99.67041015625,64.0716552734375,-23.9105224609375
12.4299999,7.41484260559082,-5.521028995513916,2.9879636764526367,-96.4202880859375,39.2303466796875,-10.7879638671875
12.4499999,7.350199222564697,-4.788403511047363,3.4620156288146973,-90.7745361328125,35.9649658203125,-0.9613037109375
12.469999900000001,7.400477409362793,-4.137180328369141,3.8331170082092285,-72.8912353515625,62.31689453125,1.52587890625
12.4899999,7.582436561584473,-3.603273630142212,4.350264549255371,-48.797607421875,80.6884765625,-4.0435791015625
12.5099999,7.819462776184082,-3.1004912853240967,5.17626428604126,-34.24072265625,52.947998046875,-3.448486328125
12.5299999,8.109161376953125,-2.734178304672241,6.098031520843506,-30.57861328125,-1.6021728515625,12.939453125
12.549999900000001,8.403648376464844,-2.367865562438965,6.801927089691162,-23.6968994140625,-32.196044921875,21.5301513671875
12.569999900000001,8.793902397155762,-2.205059766769409,6.842628479003906,-5.9814453125,-35.4766845703125,17.4713134765625
12.5899999,9.294290542602539,-2.3104045391082764,6.303933143615723,22.064208984375,-22.674560546875,12.786865234375
12.6099999,9.804255485534668,-2.3511061668395996,5.66228723526001,47.637939453125,-8.3770751953125,6.8206787109375
12.629999900000001,10.316615104675293,-2.38462495803833,5.2049946784973145,62.3931884765625,-18.798828125,9.21630859375
12.649999900000001,10.742782592773438,-2.3511061668395996,5.123591423034668,71.6705322265625,-44.5709228515625,11.1541748046875
12.6699999,11.05642318725586,-2.274491548538208,5.228936672210693,83.8775634765625,-69.9462890625,-0.3814697265625
12.6899999,11.224017143249512,-2.0638017654418945,5.197812080383301,99.884033203125,-83.6181640625,-16.4337158203125
12.709999900000001,11.319786071777344,-1.8076223134994507,5.0014872550964355,114.8834228515625,-80.841064453125,-10.6201171875
12.729999900000001,11.279084205627441,-1.3527239561080933,4.51067590713501,120.2850341796875,-90.972900390625,-1.28173828125
12.7499999,11.125855445861816,-0.9169792532920837,3.8163576126098633,120.78857421875,-109.710693359375,-1.8157958984375
12.7699999,10.860098838806152,-0.5770025849342346,2.7916390895843506,122.25341796875,-114.9749755859375,-8.026123046875
12.789999900000002,10.47942066192627,-0.2322375625371933,1.4460978507995605,128.11279296875,-93.597412109375,-12.359619140625
12.809999900000001,10.077195167541504,0.12449848651885986,0.09576806426048279,129.1046142578125,-61.82861328125,-6.378173828125
12.8299999,9.732429504394531,0.4884171485900879,-0.9816226959228516,117.1722412109375,-61.1724853515625,2.532958984375
12.8499999,9.44991397857666,0.7565677165985107,-1.403002142906189,92.6055908203125,-87.7685546875,-1.4190673828125
12.8699999,9.260771751403809,0.9241618514060974,-1.778891921043396,71.533203125,-118.5760498046875,-13.1378173828125
12.889999900000001,9.186552047729492,1.0247182846069336,-2.38462495803833,74.5697021484375,-95.458984375,-8.0108642578125
12.9099999,9.222464561462402,1.0893617868423462,-3.021482467651367,86.7767333984375,-24.0631103515625,7.6141357421875
12.9299999,9.44991397857666,0.8451532125473022,-3.3255462646484375,79.58984375,-10.589599609375,15.3961181640625
12.9499999,9.725247383117676,0.5722141861915588,-3.3016040325164795,55.60302734375,-71.47216796875,-0.213623046875
12.969999900000001,10.08437728881836,-0.002394201699644327,-3.4596214294433594,51.4373779296875,-95.7794189453125,-2.838134765625
12.9899999,10.249577522277832,-0.38067805767059326,-3.8379054069519043,74.70703125,-5.4931640625,7.080078125
13.0099999,10.247182846069336,-0.8427590131759644,-3.8355112075805664,88.0279541015625,74.0814208984375,17.7154541015625
13.0299999,10.012551307678223,-1.2952631711959839,-3.4093432426452637,60.4705810546875,-15.07568359375,11.3525390625
13.049999900000001,9.720458984375,-1.9105730056762695,-2.719813108444214,28.411865234375,-130.4473876953125,-4.486083984375
13.069999900000001,9.509769439697266,-2.647987127304077,-2.808398485183716,45.41015625,-99.5330810546875,-1.129150390625
13.0899999,8.980650901794434,-3.2345664501190186,-4.850652694702148,70.587158203125,65.2313232421875,0.1678466796875
13.1099999,8.56884765625,-3.0885202884674072,-5.286397457122803,32.9132080078125,-20.904541015625,6.6375732421875
13.129999900000001,8.17380428314209,-2.937685489654541,-5.305551052093506,6.3934326171875,-81.2530517578125,10.43701171875
13.149999900000001,7.960720539093018,-3.1004912853240967,-5.442020416259766,18.8140869140625,-20.050048828125,21.05712890625
13.1699999,7.864952564239502,-3.3255462646484375,-5.971138954162598,26.06201171875,55.8929443359375,10.5133056640625
13.1899999,7.836222171783447,-3.73016619682312,-6.251260757446289,5.3253173828125,52.642822265625,4.6844482421875
13.209999900000001,7.704541206359863,-4.015076160430908,-5.863399982452393,-15.7470703125,14.1448974609375,14.46533203125
13.229999900000001,7.577648162841797,-4.299986362457275,-5.094861030578613,-17.5628662109375,-1.312255859375,27.587890625
13.2499999,7.577648162841797,-4.709394931793213,-4.462791919708252,-19.2108154296875,14.9078369140625,26.3214111328125
13.2699999,7.671022415161133,-5.049371242523193,-4.163516521453857,-23.2391357421875,39.9932861328125,7.99560546875
13.289999900000002,7.841010570526123,-5.396530628204346,-3.8953661918640137,-30.4718017578125,56.121826171875,4.608154296875
13.309999900000001,7.996633529663086,-5.530605792999268,-3.3901896476745605,-35.9344482421875,52.734375,13.7939453125
13.3299999,8.094796180725098,-5.420472621917725,-2.647987127304077,-40.46630859375,36.19384765625,12.5579833984375
13.3499999,8.24084186553955,-5.382165431976318,-1.6759412288665771,-44.708251953125,31.79931640625,7.2784423828125
13.3699999,8.40843677520752,-5.288791656494141,-0.751779317855835,-45.0592041015625,31.2957763671875,-1.1444091796875
13.389999900000001,8.530540466308594,-5.07570743560791,-0.090979665517807,-42.388916015625,22.4761962890625,-6.8817138671875
13.4099999,8.595184326171875,-4.778826713562012,0.3447650372982025,-36.92626953125,22.4761962890625,-2.044677734375
13.4299999,8.597578048706055,-4.455609321594238,0.5961562395095825,-32.8216552734375,31.2652587890625,7.049560546875
13.4499999,8.580819129943848,-4.2544965744018555,0.7876923680305481,-28.9306640625,27.52685546875,5.0201416015625
13.469999900000001,8.578424453735352,-4.242525577545166,0.9169792532920837,-31.4483642578125,7.7667236328125,-5.3253173828125
13.4899999,8.528146743774414,-4.129997730255127,0.6967126727104187,-35.3851318359375,-6.805419921875,-13.6566162109375
13.5099999,8.552088737487793,-4.129997730255127,0.15801730751991272,-29.449462890625,16.54052734375,-1.4495849609375
13.5299999,8.561665534973145,-4.000710964202881,-0.38307225704193115,-16.29638671875,54.8248291015625,1.5869140625
13.549999900000001,8.631096839904785,-3.801992416381836,-0.730231523513794,-12.0086669921875,53.3447265625,-14.7552490234375
13.569999900000001,8.762778282165527,-3.646369218826294,-0.5937620401382446,-19.9737548828125,27.8167724609375,-12.237548828125
13.5899999,8.968679428100586,-3.536235809326172,-0.014365210197865963,-15.2740478515625,28.533935546875,0.1068115234375
13.6099999,9.220070838928223,-3.3854012489318848,0.6488286852836609,-5.157470703125,30.1971435546875,-2.7923583984375
13.629999900000001,9.543288230895996,-3.3877954483032227,1.3192051649093628,-2.227783203125,13.5345458984375,-11.7034912109375
13.649999900000001,9.99339771270752,-3.3710360527038574,1.6831238269805908,-7.3394775390625,-12.603759765625,-12.939453125
13.6699999,10.584765434265137,-3.5434184074401855,1.7046716213226318,-6.40869140625,-12.0697021484375,-6.988525390625
13.6899999,11.176133155822754,-3.6990416049957275,1.3311761617660522,4.0283203125,7.6446533203125,-17.39501953125
13.709999900000001,11.54005241394043,-3.869029998779297,0.667982280254364,6.072998046875,6.561279296875,-34.11865234375
13.729999900000001,11.355698585510254,-3.7397429943084717,-0.0071826050989329815,2.471923828125,1.40380859375,-38.0096435546875
13.7499999,10.584765434265137,-3.265691041946411,-0.6320692300796509,-2.105712890625,4.364013671875,-23.3001708984375
13.7699999,9.478644371032715,-2.5689783096313477,-1.0342950820922852,-2.99072265625,15.0909423828125,-7.0037841796875
13.789999900000002,8.494627952575684,-1.9704279899597168,-1.113303780555725,-1.2054443359375,16.8304443359375,-3.0670166015625
13.809999900000001,8.001421928405762,-1.6759412288665771,-0.828393816947937,-2.471923828125,1.2664794921875,-3.936767578125
13.8299999,8.133103370666504,-1.6879122257232666,-0.4596867263317108,-6.7901611328125,-21.05712890625,-4.39453125
13.8499999,8.75080680847168,-1.8794482946395874,-0.3447650372982025,-4.913330078125,-21.8963623046875,-4.241943359375
13.8699999,9.512163162231445,-2.121262788772583,-0.5147533416748047,1.1749267578125,2.01416015625,-7.0343017578125
13.889999900000001,10.079588890075684,-2.3319525718688965,-0.9145850539207458,1.190185546875,16.1590576171875,-9.613037109375
13.9099999,10.20887565612793,-2.3726539611816406,-1.1875240802764893,-1.251220703125,15.93017578125,-8.9111328125
13.9299999,9.959878921508789,-2.3319525718688965,-1.1540051698684692,-2.227783203125,11.8255615234375,-1.8157958984375
13.9499999,9.586383819580078,-2.274491548538208,-0.9002198576927185,-4.852294921875,2.9754638671875,2.99072265625
13.969999900000001,9.35654067993164,-2.296039342880249,-0.5626373887062073,-7.7667236328125,-5.2947998046875,-1.617431640625
13.9899999,9.370905876159668,-2.3989901542663574,-0.3711012601852417,-7.8582763671875,-8.697509765625,-8.758544921875
14.0099999,9.536105155944824,-2.5019407272338867,-0.33039984107017517,-4.180908203125,-1.7852783203125,-9.3536376953125
14.0299999,9.672574996948242,-2.5115175247192383,-0.40462008118629456,-1.6326904296875,5.0506591796875,-6.3629150390625
14.049999900000001,9.672574996948242,-2.365471363067627,-0.5506663918495178,-3.7078857421875,0.1068115234375,-4.7454833984375
14.069999900000001,9.579200744628906,-2.185906171798706,-0.6344634294509888,-4.2572021484375,-2.7008056640625,-1.129150390625
14.0899999,9.490615844726562,-2.0374655723571777,-0.6919242739677429,-3.082275390625,-0.335693359375,2.410888671875
14.1099999,9.47146224975586,-1.9800047874450684,-0.7350199222564697,-2.166748046875,1.4190673828125,1.3427734375
14.129999900000001,9.521739959716797,-2.0614075660705566,-0.7589619159698486,-2.685546875,1.0528564453125,-0.5645751953125
14.149999900000001,9.564835548400879,-2.1499931812286377,-0.7637503147125244,-2.197265625,0.457763671875,-3.5400390625
14.1699999,9.57201862335205,-2.2194249629974365,-0.7661445140838623,-1.3580322265625,0.18310546875,-2.7313232421875
14.1899999,9.543288230895996,-2.1978771686553955,-0.7613561153411865,-1.129150390625,1.434326171875,-0.2899169921875
14.209999900000001,9.514557838439941,-2.1571757793426514,-0.7733271718025208,-1.77001953125,1.5411376953125,1.556396484375
14.229999900000001,9.514557838439941,-2.1523873805999756,-0.7757213711738586,-0.42724609375,3.387451171875,0.6866455078125
14.2499999,9.543288230895996,-2.190694570541382,-0.7972691655158997,1.5869140625,5.2947998046875,-1.0986328125
14.2699999,9.579200744628906,-2.248155355453491,-0.7733271718025208,3.814697265625,8.819580078125,-1.3427734375
14.289999900000002,9.586383819580078,-2.2673089504241943,-0.7254431247711182,4.669189453125,9.1400146484375,0.885009765625
14.309999900000001,9.564835548400879,-2.2457611560821533,-0.6512228846549988,3.1280517578125,4.8980712890625,2.6702880859375
14.3299999,9.521739959716797,-2.1954829692840576,-0.5722141861915588,-1.2969970703125,1.2054443359375,2.1820068359375
14.3499999,9.516951560974121,-2.2002713680267334,-0.5434837937355042,-2.5482177734375,0.8697509765625,1.6937255859375
14.3699999,9.53849983215332,-2.205059766769409,-0.5650315880775452,-1.068115234375,3.47900390625,-0.0152587890625
14.389999900000001,9.576807022094727,-2.212242364883423,-0.6344634294509888,-1.3427734375,4.7149658203125,-1.129150390625
14.4099999,9.605537414550781,-2.22660756111145,-0.6991068720817566,-2.9296875,5.4473876953125,1.4190673828125
14.4299999,9.605537414550781,-2.2242133617401123,-0.7158663272857666,-2.960205078125,5.6915283203125,1.983642578125
14.4499999,9.607931137084961,-2.2601263523101807,-0.7038952708244324,-0.7781982421875,4.974365234375,0.8087158203125
14.469999900000001,9.622296333312988,-2.3127987384796143,-0.6584054827690125,1.8310546875,6.2408447265625,-1.2359619140625
14.4899999,9.643844604492188,-2.3798365592956543,-0.608127236366272,4.241943359375,9.2926025390625,-1.800537109375
14.5099999,9.646238327026367,-2.387019157409668,-0.5770025849342346,4.33349609375,8.97216796875,-3.0364990234375
14.5299999,9.634267807006836,-2.3774423599243164,-0.5051765441894531,4.7607421875,9.185791015625,-2.471923828125
14.549999900000001,9.600749015808105,-2.3247697353363037,-0.3878606855869293,5.584716796875,8.6669921875,-1.77001953125
14.569999900000001,9.569623947143555,-2.248155355453491,-0.24660277366638184,4.94384765625,4.5318603515625,-2.13623046875
14.5899999,9.533711433410645,-2.164358377456665,-0.12689268589019775,2.7008056640625,0.9765625,-1.3275146484375
14.6099999,9.502586364746094,-2.070984363555908,-0.12449848651885986,-1.0528564453125,0.06103515625,1.0986328125
14.629999900000001,9.533711433410645,-2.0925323963165283,-0.22266076505184174,-0.6561279296875,-0.396728515625,-0.2288818359375
14.649999900000001,9.593565940856934,-2.161964178085327,-0.33758243918418884,-0.152587890625,-0.5340576171875,-1.129150390625
14.6699999,9.636661529541016,-2.2170307636260986,-0.4213795065879822,0.48828125,1.312255859375,-1.739501953125
14.6899999,9.641449928283691,-2.2385785579681396,-0.4692635238170624,0.3662109375,1.678466796875,-1.129150390625
14.709999900000001,9.612719535827637,-2.229001760482788,-0.4644751250743866,-0.518798828125,0.396728515625,0.1678466796875
14.729999900000001,9.576807022094727,-2.1930887699127197,-0.42616790533065796,-1.46484375,-1.2054443359375,0.5340576171875
14.7499999,9.5624418258667,-2.185906171798706,-0.3711012601852417,-1.1444091796875,-1.708984375,1.03759765625
14.7699999,9.57201862335205,-2.183511972427368,-0.33758243918418884,0.030517578125,-1.7852783203125,-0.79345703125
14.789999900000002,9.586383819580078,-2.1930887699127197,-0.33518823981285095,0.79345703125,-1.8310546875,-0.885009765625
14.809999900000001,9.591172218322754,-2.1978771686553955,-0.3519476354122162,0.6103515625,-0.9307861328125,-0.06103515625
14.8299999,9.583989143371582,-2.1978771686553955,-0.38546648621559143,0.1678466796875,-1.312255859375,0.8697509765625
14.8499999,9.576807022094727,-2.1930887699127197,-0.40701428055763245,-0.579833984375,-2.4566650390625,0.06103515625
14.8699999,9.581595420837402,-2.205059766769409,-0.4357447028160095,-1.007080078125,-3.814697265625,-1.0986328125
14.889999900000001,9.588777542114258,-2.1978771686553955,-0.47644615173339844,-0.579833984375,-2.838134765625,-1.40380859375
14.9099999,9.588777542114258,-2.1811177730560303,-0.5171475410461426,-0.6103515625,-0.3814697265625,-0.1983642578125
14.9299999,9.581595420837402,-2.1739351749420166,-0.5554547905921936,-1.3275146484375,-0.3204345703125,1.28173828125
14.9499999,9.57201862335205,-2.166752576828003,-0.5530605912208557,-0.701904296875,-0.4730224609375,0.48828125
14.969999900000001,9.57201862335205,-2.1787235736846924,-0.5434837937355042,-0.5645751953125,-1.9073486328125,-0.701904296875
14.9899999,9.581595420837402,-2.190694570541382,-0.5195417404174805,-0.518798828125,-1.77001953125,-0.701904296875
15.0099999,9.588777542114258,-2.188300371170044,-0.5123591423034668,-1.0223388671875,-1.4801025390625,-0.274658203125
15.0299999,9.59835433959961,-2.209848165512085,-0.5171475410461426,-1.190185546875,-2.13623046875,-0.1678466796875
15.049999900000001,9.617507934570312,-2.22660756111145,-0.524330198764801,-0.030517578125,-1.6632080078125,-1.7852783203125
15.069999900000001,9.63187313079834,-2.252943754196167,-0.5291185975074768,0.946044921875,-0.6256103515625,-2.8533935546875
15.0899999,9.624691009521484,-2.209848165512085,-0.5410895943641663,0.42724609375,-0.8697509765625,-2.9754638671875
15.1099999,9.581595420837402,-2.142810583114624,-0.5482721924781799,-1.190185546875,-1.9073486328125,-0.1983642578125
15.129999900000001,9.536105155944824,-2.0638017654418945,-0.5674257874488831,-2.5482177734375,-2.3956298828125,2.3345947265625
15.149999900000001,9.526528358459473,-2.054224967956543,-0.5841852426528931,-1.861572265625,-1.190185546875,2.4261474609375
15.1699999,9.5624418258667,-2.1045033931732178,-0.6033388376235962,0.0457763671875,0.6561279296875,-0.244140625
15.1899999,9.603142738342285,-2.166752576828003,-0.608127236366272,0.4119873046875,1.0528564453125,-2.0294189453125
15.209999900000001,9.607931137084961,-2.1739351749420166,-0.6033388376235962,-1.0528564453125,-0.0762939453125,-0.885009765625
15.229999900000001,9.569623947143555,-2.1332337856292725,-0.5961562395095825,-2.9144287109375,-1.3275146484375,2.4261474609375
15.2499999,9.536105155944824,-2.1045033931732178,-0.5889736413955688,-3.1890869140625,-1.007080078125,4.1656494140625
15.2699999,9.545681953430176,-2.126051187515259,-0.5817909836769104,-1.739501953125,-0.5035400390625,2.0904541015625
15.289999900000002,9.581595420837402,-2.1787235736846924,-0.5841852426528931,-0.701904296875,-0.67138671875,-1.373291015625
15.309999900000001,9.617507934570312,-2.2361843585968018,-0.5817909836769104,-0.9765625,-0.8697509765625,-1.3885498046875
15.3299999,9.619902610778809,-2.2409727573394775,-0.5841852426528931,-1.312255859375,-0.457763671875,0.2593994140625
15.3499999,9.600749015808105,-2.22660756111145,-0.5793967843055725,-1.3885498046875,-1.4190673828125,1.068115234375
15.3699999,9.593565940856934,-2.2194249629974365,-0.5578489899635315,-0.8697509765625,-2.25830078125,0.2593994140625
15.389999900000001,9.600749015808105,-2.229001760482788,-0.5674257874488831,0.30517578125,-3.1280517578125,-1.922607421875
15.4099999,9.607931137084961,-2.209848165512085,-0.5937620401382446,0.946044921875,-1.3580322265625,-2.4261474609375
15.4299999,9.593565940856934,-2.1739351749420166,-0.6631938815116882,0.4425048828125,0.7476806640625,-0.4119873046875
15.4499999,9.569623947143555,-2.123656988143921,-0.730231523513794,0.0152587890625,2.3193359375,2.1514892578125
15.469999900000001,9.560047149658203,-2.121262788772583,-0.7637503147125244,0.0457763671875,2.4566650390625,2.227783203125
15.4899999,9.579200744628906,-2.1547815799713135,-0.7445967197418213,0.762939453125,1.52587890625,-0.8087158203125
15.5099999,9.603142738342285,-2.212242364883423,-0.6847416758537292,1.922607421875,0.274658203125,-2.4566650390625
15.5299999,9.610325813293457,-2.229001760482788,-0.6248866319656372,1.3885498046875,-0.91552734375,-1.89208984375
15.549999900000001,9.593565940856934,-2.212242364883423,-0.5913678407669067,-0.213623046875,-1.708984375,-0.48828125
15.569999900000001,9.57441234588623,-2.190694570541382,-0.5937620401382446,-0.6103515625,-1.7852783203125,0
15.5899999,9.576807022094727,-2.1763293743133545,-0.629675030708313,0.1068115234375,-1.0528564453125,-1.495361328125
15.6099999,9.588777542114258,-2.169146776199341,-0.6799532771110535,0.762939453125,0.885009765625,-2.5787353515625
15.629999900000001,9.586383819580078,-2.1332337856292725,-0.7326257228851318,0.5035400390625,2.105712890625,-1.220703125
15.649999900000001,9.560047149658203,-2.0853497982025146,-0.7637503147125244,-0.244140625,2.8228759765625,2.0751953125
15.6699999,9.53849983215332,-2.0661959648132324,-0.7589619159698486,-0.732421875,2.62451171875,3.3416748046875
15.6899999,9.550470352172852,-2.10210919380188,-0.730231523513794,-0.3509521484375,1.1749267578125,0.7171630859375
15.709999900000001,9.583989143371582,-2.1523873805999756,-0.6871358752250671,0.7781982421875,1.77001953125,-2.4871826171875
15.729999900000001,9.607931137084961,-2.190694570541382,-0.6584054827690125,0.640869140625,2.5482177734375,-1.8310546875
15.7499999,9.591172218322754,-2.1571757793426514,-0.6440402865409851,-0.3814697265625,2.3193359375,1.0986328125
15.7699999,9.5624418258667,-2.1308395862579346,-0.6440402865409851,-2.105712890625,1.15966796875,3.0364990234375
15.789999900000002,9.5624418258667,-2.1380221843719482,-0.6392518281936646,-1.708984375,1.2969970703125,1.678466796875
15.809999900000001,9.591172218322754,-2.1715409755706787,-0.629675030708313,0.5645751953125,2.3193359375,-1.4801025390625
15.8299999,9.612719535827637,-2.2002713680267334,-0.6177040338516235,0.7781982421875,2.2430419921875,-1.6632080078125
15.8499999,9.603142738342285,-2.1763293743133545,-0.608127236366272,-0.518798828125,0.762939453125,0.8544921875
15.869999900000002,9.57441234588623,-2.1499931812286377,-0.6057330369949341,-1.5869140625,-0.3814697265625,2.8839111328125
15.889999900000001,9.567230224609375,-2.142810583114624,-0.6224924325942993,-1.1749267578125,0.0457763671875,1.5106201171875
15.9099999,9.586383819580078,-2.1571757793426514,-0.6440402865409851,0.152587890625,1.434326171875,-1.5411376953125
15.9299999,9.59835433959961,-2.1595699787139893,-0.6607996821403503,-0.030517578125,2.3040771484375,-1.1444091796875
15.9499999,9.581595420837402,-2.118868589401245,-0.6727706789970398,-1.7547607421875,0.9918212890625,1.9683837890625
15.969999900000001,9.548076629638672,-2.0853497982025146,-0.6607996821403503,-3.1280517578125,0.396728515625,4.364013671875
15.9899999,9.543288230895996,-2.1045033931732178,-0.6272808313369751,-2.44140625,-0.213623046875,3.5400390625
16.0099999,9.5624418258667,-2.164358377456665,-0.6105214357376099,-1.6326904296875,-2.4871826171875,0.54931640625
16.0299999,9.59596061706543,-2.2409727573394775,-0.6105214357376099,-2.0599365234375,-3.753662109375,1.068115234375
16.0499999,9.59596061706543,-2.27209734916687,-0.6320692300796509,-2.105712890625,-1.5411376953125,2.0599365234375
16.0699999,9.576807022094727,-2.276885747909546,-0.6584054827690125,-1.8768310546875,0.457763671875,3.0517578125
16.089999900000002,9.564835548400879,-2.2697031497955322,-0.6847416758537292,-1.1749267578125,-0.9918212890625,1.617431640625
16.109999900000002,9.586383819580078,-2.274491548538208,-0.6775590777397156,0.030517578125,-0.1983642578125,-0.5035400390625
16.1299999,9.62947940826416,-2.229001760482788,-0.6847416758537292,0.030517578125,1.5716552734375,-0.640869140625
16.1499999,9.617507934570312,-2.1787235736846924,-0.6847416758537292,-0.1220703125,0.885009765625,-0.0152587890625
16.1699999,9.59596061706543,-2.1739351749420166,-0.6751648783683777,0.335693359375,-0.244140625,0.5645751953125
16.1899999,9.579200744628906,-2.185906171798706,-0.6584054827690125,1.0833740234375,-0.335693359375,-0.6256103515625
16.2099999,9.569623947143555,-2.1954829692840576,-0.6751648783683777,0.640869140625,-0.640869140625,-2.0294189453125
16.2299999,9.557653427124023,-2.2002713680267334,-0.7038952708244324,-0.3204345703125,0.4119873046875,-0.152587890625
16.249999900000002,9.548076629638672,-2.185906171798706,-0.7326257228851318,-0.091552734375,2.13623046875,0.91552734375
16.269999900000002,9.548076629638672,-2.1739351749420166,-0.7565677165985107,0.1220703125,1.3885498046875,-0.48828125
16.2899999,9.560047149658203,-2.1811177730560303,-0.7422025203704834,0.457763671875,0.7781982421875,-1.3885498046875
16.3099999,9.567230224609375,-2.185906171798706,-0.7398083209991455,0.5645751953125,0.579833984375,-0.9765625
16.3299999,9.564835548400879,-2.185906171798706,-0.727837324142456,0.1678466796875,1.8310546875,0.6561279296875
16.3499999,9.548076629638672,-2.1811177730560303,-0.727837324142456,-0.4425048828125,2.197265625,1.2359619140625
16.3699999,9.552865028381348,-2.2002713680267334,-0.7086837291717529,-0.0152587890625,1.556396484375,1.2664794921875
16.3899999,9.564835548400879,-2.2146365642547607,-0.6631938815116882,0.9765625,1.0223388671875,-0.30517578125
16.4099999,9.579200744628906,-2.231395959854126,-0.629675030708313,0.732421875,-0.823974609375,-1.15966796875
16.429999900000002,9.581595420837402,-2.233790159225464,-0.6057330369949341,0.244140625,-1.0986328125,-0.4425048828125
16.4499999,9.57201862335205,-2.2194249629974365,-0.6224924325942993,-0.091552734375,-0.7171630859375,0.4425048828125
16.4699999,9.569623947143555,-2.209848165512085,-0.6727706789970398,-0.152587890625,-0.1678466796875,0.5340576171875
16.4899999,9.579200744628906,-2.190694570541382,-0.7326257228851318,-0.244140625,1.007080078125,-0.54931640625
16.5099999,9.59835433959961,-2.185906171798706,-0.7757213711738586,0.1220703125,2.5787353515625,-0.457763671875
16.5299999,9.605537414550781,-2.1715409755706787,-0.7781155705451965,0.762939453125,3.082275390625,-0.4119873046875
16.5499999,9.59596061706543,-2.1595699787139893,-0.7661445140838623,0.1678466796875,0.9765625,-0.396728515625
16.5699999,9.57441234588623,-2.1475989818573,-0.7374141216278076,-0.1068115234375,0.9613037109375,0.274658203125
16.589999900000002,9.555258750915527,-2.1571757793426514,-0.7182605266571045,-0.6103515625,1.9073486328125,1.3275146484375
16.609999900000002,9.550470352172852,-2.190694570541382,-0.706289529800415,-0.8697509765625,1.983642578125,0.6103515625
16.6299999,9.569623947143555,-2.250549554824829,-0.6799532771110535,-1.007080078125,1.1749267578125,-1.0833740234375
16.6499999,9.593565940856934,-2.293645143508911,-0.6560112833976746,-0.274658203125,0.518798828125,-2.7008056640625
16.6699999,9.610325813293457,-2.300827741622925,-0.6344634294509888,0.06103515625,0.6256103515625,-2.8228759765625
16.6899999,9.605537414550781,-2.252943754196167,-0.6272808313369751,-0.6103515625,0.6561279296875,-1.739501953125
16.7099999,9.583989143371582,-2.190694570541382,-0.6512228846549988,-1.4495849609375,0.152587890625,-0.823974609375
16.7299999,9.569623947143555,-2.1475989818573,-0.6703764796257019,-2.2735595703125,1.03759765625,-1.1138916015625
16.749999900000002,9.560047149658203,-2.10210919380188,-0.706289529800415,-0.640869140625,0.885009765625,-1.953125
16.769999900000002,9.560047149658203,-2.097320795059204,-0.727837324142456,-0.152587890625,0.885009765625,-0.1068115234375
16.7899999,9.548076629638672,-2.078166961669922,-0.7398083209991455,-0.457763671875,1.89208984375,1.1749267578125
16.8099999,9.5408935546875,-2.073378562927246,-0.730231523513794,-0.7476806640625,0.79345703125,1.6632080078125
16.8299999,9.548076629638672,-2.099714994430542,-0.7230489253997803,-0.1220703125,-0.030517578125,1.922607421875
16.8499999,9.57201862335205,-2.140416383743286,-0.6991068720817566,0.6256103515625,1.3580322265625,0.7476806640625
16.8699999,9.59596061706543,-2.1811177730560303,-0.6799532771110535,0.946044921875,2.01416015625,-0.5950927734375
16.8899999,9.600749015808105,-2.1954829692840576,-0.6584054827690125,0.518798828125,0.701904296875,-0.5340576171875
16.9099999,9.586383819580078,-2.190694570541382,-0.6584054827690125,-0.0152587890625,-0.823974609375,0.5035400390625
16.929999900000002,9.567230224609375,-2.1715409755706787,-0.6727706789970398,0.457763671875,0.335693359375,1.6937255859375
16.9499999,9.564835548400879,-2.185906171798706,-0.6727706789970398,1.678466796875,1.8463134765625,1.495361328125
16.9699999,9.576807022094727,-2.1978771686553955,-0.6751648783683777,1.4495849609375,0.1068115234375,-0.91552734375
16.9899999,9.586383819580078,-2.207453966140747,-0.6655880808830261,0.8392333984375,-1.9683837890625,-1.4495849609375
17.0099999,9.588777542114258,-2.2146365642547607,-0.6536170840263367,-0.30517578125,-0.9613037109375,0.3509521484375
17.0299999,9.57441234588623,-2.190694570541382,-0.6703764796257019,-0.9765625,-0.213623046875,-0.06103515625
17.0499999,9.5624418258667,-2.1763293743133545,-0.6991068720817566,-0.8697509765625,-0.0762939453125,-0.2899169921875
17.0699999,9.552865028381348,-2.1499931812286377,-0.7326257228851318,-1.3885498046875,0.6866455078125,-0.0762939453125
17.089999900000002,9.545681953430176,-2.1116859912872314,-0.7781155705451965,-1.6326904296875,1.5869140625,1.2664794921875
17.109999900000002,9.548076629638672,-2.0877439975738525,-0.8140285611152649,-1.1749267578125,3.7078857421875,3.021240234375
17.1299999,9.560047149658203,-2.1045033931732178,-0.811634361743927,-0.91552734375,5.4931640625,2.7618408203125
17.1499999,9.579200744628906,-2.142810583114624,-0.7637503147125244,-0.579833984375,4.1046142578125,0.2288818359375
17.1699999,9.59596061706543,-2.1978771686553955,-0.6799532771110535,-0.885009765625,1.373291015625,-0.244140625
17.1899999,9.59596061706543,-2.2146365642547607,-0.6129156351089478,-1.3580322265625,-0.335693359375,0.5645751953125
17.2099999,9.579200744628906,-2.2146365642547607,-0.5889736413955688,-1.6632080078125,-0.3662109375,1.5716552734375
17.2299999,9.569623947143555,-2.212242364883423,-0.5937620401382446,-1.6326904296875,0.42724609375,1.5869140625
17.249999900000002,9.57441234588623,-2.2194249629974365,-0.6224924325942993,-1.312255859375,-0.42724609375,0.42724609375
17.269999900000002,9.588777542114258,-2.2409727573394775,-0.6440402865409851,-0.6103515625,-0.396728515625,-0.8087158203125
17.2899999,9.59596061706543,-2.233790159225464,-0.6751648783683777,-0.18310546875,0.0762939453125,-1.1138916015625
17.3099999,9.588777542114258,-2.2242133617401123,-0.7015010714530945,-0.3662109375,1.434326171875,0.396728515625
17.3299999,9.57441234588623,-2.2026655673980713,-0.7182605266571045,-0.6561279296875,2.3193359375,0.1983642578125
17.3499999,9.567230224609375,-2.190694570541382,-0.7182605266571045,-0.732421875,1.312255859375,-1.15966796875
17.3699999,9.564835548400879,-2.188300371170044,-0.706289529800415,-0.79345703125,0.579833984375,-1.220703125
17.3899999,9.564835548400879,-2.1715409755706787,-0.7134721279144287,-1.0986328125,0.1678466796875,-0.42724609375
17.409999900000003,9.564835548400879,-2.164358377456665,-0.7158663272857666,-1.1138916015625,1.6632080078125,0.9918212890625
17.429999900000002,9.569623947143555,-2.1571757793426514,-0.730231523513794,-1.129150390625,1.983642578125,0.732421875
17.4499999,9.583989143371582,-2.1715409755706787,-0.7182605266571045,-0.8392333984375,1.4190673828125,-0.4119873046875
17.4699999,9.607931137084961,-2.209848165512085,-0.7086837291717529,-0.0762939453125,0.9765625,-1.0986328125
17.4899999,9.624691009521484,-2.2409727573394775,-0.7038952708244324,0.946044921875,1.983642578125,-1.861572265625
17.5099999,9.634267807006836,-2.274491548538208,-0.7134721279144287,1.3885498046875,3.509521484375,-2.8533935546875
17.5299999,9.636661529541016,-2.296039342880249,-0.6967126727104187,2.7313232421875,4.5623779296875,-3.60107421875
17.5499999,9.617507934570312,-2.27209734916687,-0.6655880808830261,2.1514892578125,2.8533935546875,-5.0506591796875
17.5699999,9.576807022094727,-2.1930887699127197,-0.6248866319656372,-0.30517578125,-0.2288818359375,-4.302978515625
17.589999900000002,9.528923034667969,-2.1092917919158936,-0.6009446382522583,-1.6326904296875,-0.54931640625,-0.1678466796875
17.609999900000002,9.488221168518066,-2.006340980529785,-0.6200982332229614,-1.983642578125,0.5950927734375,1.77001953125
17.6299999,9.490615844726562,-1.9967641830444336,-0.6536170840263367,-1.556396484375,1.7852783203125,2.593994140625
17.6499999,9.57201862335205,-2.0614075660705566,-0.7086837291717529,-0.4730224609375,1.8463134765625,0.9918212890625
17.6699999,9.59835433959961,-2.10210919380188,-0.7015010714530945,-0.091552734375,2.105712890625,1.1138916015625
17.6899999,9.59835433959961,-2.1475989818573,-0.6847416758537292,-0.6561279296875,0.9002685546875,1.28173828125
17.7099999,9.593565940856934,-2.1811177730560303,-0.6631938815116882,-1.3885498046875,0.48828125,0.6256103515625
17.7299999,9.59596061706543,-2.212242364883423,-0.6440402865409851,-0.7171630859375,1.220703125,-0.3814697265625
17.749999900000002,9.603142738342285,-2.2194249629974365,-0.6320692300796509,-0.1068115234375,1.40380859375,-1.1138916015625
17.769999900000002,9.603142738342285,-2.205059766769409,-0.6368576288223267,0.152587890625,0.762939453125,-0.823974609375
17.7899999,9.593565940856934,-2.183511972427368,-0.6392518281936646,-0.18310546875,0.762939453125,0.1220703125
17.8099999,9.576807022094727,-2.145204782485962,-0.6560112833976746,-1.007080078125,0.4425048828125,-0.213623046875
17.8299999,9.569623947143555,-2.126051187515259,-0.6655880808830261,-1.129150390625,0.8697509765625,-0.0762939453125
17.8499999,9.57441234588623,-2.1116859912872314,-0.6607996821403503,-1.4495849609375,1.1138916015625,-0.030517578125
17.8699999,9.586383819580078,-2.118868589401245,-0.6440402865409851,-1.8463134765625,0.1220703125,-0.5340576171875
17.8899999,9.59835433959961,-2.1356279850006104,-0.6200982332229614,-0.8697509765625,-0.640869140625,-0.9765625
17.909999900000003,9.600749015808105,-2.1475989818573,-0.6129156351089478,-0.823974609375,-0.79345703125,-1.77001953125
17.929999900000002,9.591172218322754,-2.145204782485962,-0.6320692300796509,-0.885009765625,-0.5645751953125,-0.701904296875
17.9499999,9.579200744628906,-2.1284453868865967,-0.667982280254364,-0.79345703125,0.457763671875,0.5950927734375
17.9699999,9.576807022094727,-2.118868589401245,-0.6943184733390808,-0.7476806640625,1.4190673828125,0.7781982421875
17.9899999,9.583989143371582,-2.1164743900299072,-0.7110779285430908,-0.457763671875,0.6866455078125,-0.3662109375
18.0099999,9.59596061706543,-2.118868589401245,-0.7182605266571045,-0.1373291015625,0.6561279296875,-0.946044921875
18.0299999,9.603142738342285,-2.118868589401245,-0.7134721279144287,0.4425048828125,2.3040771484375,-0.4730224609375
18.0499999,9.593565940856934,-2.1045033931732178,-0.7158663272857666,-0.0762939453125,1.8157958984375,0.1983642578125
18.0699999,9.583989143371582,-2.094926595687866,-0.7086837291717529,-0.396728515625,0.885009765625,0.48828125
18.089999900000002,9.579200744628906,-2.1045033931732178,-0.6871358752250671,-0.274658203125,1.007080078125,0.6561279296875
18.109999900000002,9.581595420837402,-2.1140801906585693,-0.6799532771110535,0.0152587890625,0.9002685546875,0.0152587890625
18.1299999,9.583989143371582,-2.121262788772583,-0.6703764796257019,0.42724609375,1.5869140625,-0.30517578125
18.1499999,9.591172218322754,-2.140416383743286,-0.6751648783683777,0.30517578125,1.9683837890625,0.5950927734375
18.1699999,9.586383819580078,-2.123656988143921,-0.6703764796257019,0.274658203125,1.708984375,0.274658203125
18.1899999,9.583989143371582,-2.1308395862579346,-0.6751648783683777,-0.3509521484375,0.701904296875,0.5035400390625
18.2099999,9.581595420837402,-2.1284453868865967,-0.6655880808830261,-0.2593994140625,1.40380859375,0.7781982421875
18.2299999,9.586383819580078,-2.140416383743286,-0.6512228846549988,0.18310546875,1.8768310546875,0.1983642578125
18.249999900000002,9.593565940856934,-2.1499931812286377,-0.6512228846549988,-0.1373291015625,0.7171630859375,-0.8087158203125
18.269999900000002,9.593565940856934,-2.1499931812286377,-0.6392518281936646,0.030517578125,0.9765625,-0.640869140625
18.2899999,9.593565940856934,-2.140416383743286,-0.646434485912323,-0.152587890625,0.8697509765625,0.2899169921875
18.3099999,9.588777542114258,-2.1332337856292725,-0.6536170840263367,-0.2899169921875,1.2664794921875,0.457763671875
18.3299999,9.586383819580078,-2.126051187515259,-0.6655880808830261,-0.4730224609375,1.068115234375,-0.457763671875
18.3499999,9.583989143371582,-2.121262788772583,-0.6703764796257019,-0.3509521484375,1.0223388671875,-0.6866455078125
18.3699999,9.583989143371582,-2.1164743900299072,-0.6751648783683777,-0.3509521484375,1.129150390625,0.3662109375
18.3899999,9.583989143371582,-2.1116859912872314,-0.6727706789970398,-0.1373291015625,1.5869140625,0.762939453125
18.409999900000003,9.593565940856934,-2.121262788772583,-0.667982280254364,0.0152587890625,1.5106201171875,0.1373291015625
18.429999900000002,9.600749015808105,-2.1308395862579346,-0.6655880808830261,0.1678466796875,1.4801025390625,-0.7171630859375
18.4499999,9.600749015808105,-2.1332337856292725,-0.6607996821403503,-0.1373291015625,1.9989013671875,-0.5645751953125
18.4699999,9.591172218322754,-2.126051187515259,-0.6631938815116882,-0.640869140625,2.0294189453125,0.4730224609375
18.4899999,9.586383819580078,-2.1284453868865967,-0.6631938815116882,-0.457763671875,1.6326904296875,0.823974609375
18.5099999,9.591172218322754,-2.1475989818573,-0.6512228846549988,0.3814697265625,2.3956298828125,-0.2899169921875
18.5299999,9.600749015808105,-2.1595699787139893,-0.6488286852836609,0,3.5552978515625,-2.86865234375
18.5499999,9.59596061706543,-2.1356279850006104,-0.6560112833976746,-0.7781982421875,4.2266845703125,-2.5634765625
18.5699999,9.57441234588623,-2.0877439975738525,-0.6799532771110535,-1.8157958984375,4.791259765625,0.946044921875
18.589999900000002,9.555258750915527,-2.032677173614502,-0.689530074596405,-2.6702880859375,5.7830810546875,2.349853515625
18.609999900000002,9.5624418258667,-2.03507137298584,-0.6775590777397156,-2.4261474609375,5.0811767578125,1.6326904296875
18.6299999,9.59596061706543,-2.0805611610412598,-0.6033388376235962,-0.274658203125,4.5166015625,0.1373291015625
18.6499999,9.624691009521484,-2.140416383743286,-0.5267243981361389,0.152587890625,2.0751953125,-0.885009765625
18.6699999,9.62947940826416,-2.1715409755706787,-0.4620809257030487,-0.42724609375,0.42724609375,-0.54931640625
18.6899999,9.607931137084961,-2.166752576828003,-0.45010992884635925,-0.7171630859375,0.5035400390625,0.244140625
18.7099999,9.588777542114258,-2.1571757793426514,-0.49559974670410156,-0.8697509765625,0.9002685546875,0.6103515625
18.7299999,9.586383819580078,-2.1332337856292725,-0.5530605912208557,-0.5645751953125,2.3040771484375,-0.0762939453125
18.749999900000002,9.588777542114258,-2.1308395862579346,-0.5841852426528931,-0.1983642578125,2.960205078125,-0.2593994140625
18.769999900000002,9.593565940856934,-2.121262788772583,-0.5817909836769104,0.0762939453125,1.678466796875,-0.1068115234375
18.7899999,9.593565940856934,-2.1164743900299072,-0.5626373887062073,-0.1678466796875,0.396728515625,0.1373291015625
18.8099999,9.593565940856934,-2.1140801906585693,-0.5410895943641663,0.18310546875,1.1749267578125,0.6561279296875
18.8299999,9.59596061706543,-2.1092917919158936,-0.5482721924781799,0.0762939453125,1.617431640625,-0.1220703125
18.8499999,9.59835433959961,-2.1045033931732178,-0.5626373887062073,-0.701904296875,1.5869140625,-0.18310546875
18.8699999,9.59596061706543,-2.099714994430542,-0.5770025849342346,-0.4425048828125,1.9989013671875,0.640869140625
18.8899999,9.588777542114258,-2.0853497982025146,-0.5817909836769104,-0.48828125,2.2125244140625,1.0986328125
18.909999900000003,9.581595420837402,-2.0829553604125977,-0.5722141861915588,-0.4730224609375,2.13623046875,1.40380859375
18.929999900000002,9.576807022094727,-2.075772762298584,-0.569819986820221,-0.4425048828125,1.9378662109375,1.3885498046875
18.9499999,9.576807022094727,-2.0877439975738525,-0.5746083855628967,-0.5035400390625,2.3956298828125,1.5869140625
18.9699999,9.579200744628906,-2.10210919380188,-0.5793967843055725,-0.6256103515625,3.96728515625,1.678466796875
18.9899999,9.588777542114258,-2.1332337856292725,-0.5817909836769104,-0.9765625,3.936767578125,1.373291015625
19.0099999,9.603142738342285,-2.161964178085327,-0.5626373887062073,-0.701904296875,3.021240234375,0.732421875
19.0299999,9.615114212036133,-2.188300371170044,-0.5171475410461426,-0.335693359375,2.593994140625,0.4425048828125
19.0499999,9.619902610778809,-2.2002713680267334,-0.4668693244457245,0.152587890625,2.0904541015625,0.48828125
19.0699999,9.615114212036133,-2.188300371170044,-0.42616790533065796,0.152587890625,0.8087158203125,0.457763671875
19.089999900000002,9.605537414550781,-2.183511972427368,-0.4118026793003082,0.0762939453125,0.5950927734375,0.8697509765625
19.109999900000002,9.59596061706543,-2.1523873805999756,-0.42856210470199585,-0.5035400390625,1.312255859375,0.335693359375
19.1299999,9.586383819580078,-2.1499931812286377,-0.4668693244457245,-0.54931640625,1.9378662109375,0.885009765625
19.1499999,9.588777542114258,-2.140416383743286,-0.4908113479614258,-0.335693359375,2.8533935546875,1.0223388671875
19.1699999,9.603142738342285,-2.164358377456665,-0.4836287498474121,0,0.8544921875,-0.4425048828125
19.1899999,9.603142738342285,-2.1715409755706787,-0.4668693244457245,0.06103515625,0.7171630859375,-0.1678466796875
19.2099999,9.59835433959961,-2.166752576828003,-0.4620809257030487,-0.457763671875,0.579833984375,0.4119873046875
19.2299999,9.588777542114258,-2.169146776199341,-0.4692635238170624,-0.3204345703125,1.007080078125,0.8544921875
19.249999900000002,9.588777542114258,-2.161964178085327,-0.4836287498474121,0.1373291015625,1.495361328125,0.091552734375
19.269999900000002,9.588777542114258,-2.1571757793426514,-0.49799394607543945,0.1983642578125,1.312255859375,-0.1068115234375
19.2899999,9.593565940856934,-2.1523873805999756,-0.5027823448181152,-0.06103515625,1.2969970703125,0.7171630859375
19.3099999,9.59596061706543,-2.1523873805999756,-0.5003881454467773,-0.2899169921875,1.3885498046875,0.9613037109375
19.3299999,9.59835433959961,-2.1499931812286377,-0.5003881454467773,-0.06103515625,1.3427734375,0.3204345703125
19.3499999,9.603142738342285,-2.164358377456665,-0.4908113479614258,0.244140625,1.678466796875,0.0457763671875
19.3699999,9.603142738342285,-2.164358377456665,-0.4884171485900879,0,1.9378662109375,0.0762939453125
19.3899999,9.59596061706543,-2.166752576828003,-0.47884035110473633,-0.2899169921875,1.4801025390625,0.579833984375
19.409999900000003,9.588777542114258,-2.169146776199341,-0.4668693244457245,-0.457763671875,1.220703125,0.54931640625
19.429999900000002,9.583989143371582,-2.1739351749420166,-0.4644751250743866,-0.3509521484375,0.5035400390625,0.030517578125
19.4499999,9.586383819580078,-2.1811177730560303,-0.45250412821769714,-0.0457763671875,0.8697509765625,0.091552734375
19.4699999,9.588777542114258,-2.185906171798706,-0.45250412821769714,0.0152587890625,1.03759765625,0.3204345703125
19.4899999,9.591172218322754,-2.188300371170044,-0.4572925269603729,-0.30517578125,0.946044921875,-0.1220703125
19.5099999,9.591172218322754,-2.183511972427368,-0.4668693244457245,-0.518798828125,1.0986328125,-0.6561279296875
19.5299999,9.593565940856934,-2.1811177730560303,-0.47644615173339844,-0.030517578125,1.8157958984375,-0.2899169921875
19.5499999,9.591172218322754,-2.166752576828003,-0.4884171485900879,0.457763671875,2.1820068359375,-0.030517578125
19.5699999,9.588777542114258,-2.1523873805999756,-0.4884171485900879,-0.1220703125,1.708984375,0.1220703125
19.589999900000002,9.586383819580078,-2.140416383743286,-0.47884035110473633,-0.3814697265625,1.3275146484375,0.5035400390625
19.609999900000002,9.588777542114258,-2.142810583114624,-0.4644751250743866,-0.30517578125,0.8544921875,0.396728515625
19.6299999,9.593565940856934,-2.1571757793426514,-0.45010992884635925,-0.1068115234375,0.6866455078125,-0.274658203125
19.6499999,9.600749015808105,-2.169146776199341,-0.4405331015586853,-0.0152587890625,1.068115234375,-0.9918212890625
19.6699999,9.600749015808105,-2.169146776199341,-0.45489832758903503,-0.06103515625,0.9613037109375,-0.5035400390625
19.6899999,9.59596061706543,-2.169146776199341,-0.4644751250743866,-0.030517578125,1.5716552734375,0.6256103515625
19.7099999,9.593565940856934,-2.164358377456665,-0.47644615173339844,0.1068115234375,2.13623046875,0.5035400390625
19.7299999,9.593565940856934,-2.166752576828003,-0.47405192255973816,0.18310546875,1.7242431640625,-0.579833984375
19.749999900000002,9.593565940856934,-2.166752576828003,-0.4572925269603729,0.2593994140625,1.5411376953125,-0.48828125
19.769999900000002,9.593565940856934,-2.164358377456665,-0.4405331015586853,0.1373291015625,0.9002685546875,0.4730224609375
19.7899999,9.583989143371582,-2.1547815799713135,-0.42616790533065796,0.3509521484375,0.9002685546875,0.54931640625
19.8099999,9.586383819580078,-2.1595699787139893,-0.42856210470199585,0.091552734375,1.1749267578125,0.2593994140625
19.8299999,9.588777542114258,-2.161964178085327,-0.4381389021873474,0.213623046875,1.190185546875,-0.30517578125
19.8499999,9.59596061706543,-2.164358377456665,-0.44771572947502136,0.2593994140625,1.495361328125,-0.244140625
19.8699999,9.59596061706543,-2.1547815799713135,-0.45010992884635925,-0.2593994140625,1.7547607421875,-0.1220703125
19.8899999,9.593565940856934,-2.1475989818573,-0.45489832758903503,-0.6561279296875,1.2054443359375,0.3814697265625
19.909999900000003,9.593565940856934,-2.1571757793426514,-0.4405331015586853,-0.18310546875,1.4495849609375,0.79345703125
19.929999900000002,9.59596061706543,-2.166752576828003,-0.43335050344467163,0.244140625,1.708984375,-0.3509521484375
19.9499999,9.600749015808105,-2.1811177730560303,-0.4213795065879822,0.1678466796875,1.4495849609375,-0.6866455078125
19.9699999,9.603142738342285,-2.1763293743133545,-0.4141969084739685,0.091552734375,1.0833740234375,-0.3662109375
19.9899999,9.591172218322754,-2.1547815799713135,-0.42377370595932007,-0.3204345703125,0.640869140625,0.091552734375
20.0099999,9.583989143371582,-2.1380221843719482,-0.4381389021873474,-0.79345703125,0.9765625,0.79345703125
20.0299999,9.591172218322754,-2.140416383743286,-0.44532153010368347,-0.3204345703125,1.9378662109375,0.3509521484375
20.0499999,9.600749015808105,-2.1475989818573,-0.4572925269603729,0.3814697265625,1.800537109375,-0.7476806640625
20.0699999,9.605537414550781,-2.1571757793426514,-0.44532153010368347,0.3814697265625,2.01416015625,-0.579833984375
20.089999900000002,9.600749015808105,-2.1571757793426514,-0.4405331015586853,-0.244140625,1.8310546875,0.5645751953125
20.109999900000002,9.59596061706543,-2.161964178085327,-0.42377370595932007,-0.48828125,1.8310546875,0.7781982421875
20.1299999,9.591172218322754,-2.161964178085327,-0.4165911078453064,-0.2593994140625,1.89208984375,-0.274658203125
20.1499999,9.593565940856934,-2.166752576828003,-0.3998316824436188,0.18310546875,2.0904541015625,-0.701904296875
20.1699999,9.59596061706543,-2.169146776199341,-0.395043283700943,-0.2899169921875,1.708984375,0.1983642578125
20.1899999,9.591172218322754,-2.161964178085327,-0.3878606855869293,-0.244140625,1.5716552734375,0.5950927734375
20.2099999,9.583989143371582,-2.169146776199341,-0.3902548849582672,0,1.800537109375,0.3662109375
20.2299999,9.579200744628906,-2.166752576828003,-0.3926490843296051,0.2899169921875,2.1820068359375,-0.0457763671875
20.249999900000002,9.57441234588623,-2.145204782485962,-0.4141969084739685,-0.1220703125,1.4495849609375,0.091552734375
20.269999900000002,9.569623947143555,-2.1140801906585693,-0.42616790533065796,-0.7781982421875,1.5106201171875,1.0986328125
20.2899999,9.564835548400879,-2.0638017654418945,-0.45250412821769714,-0.091552734375,1.8157958984375,0.9307861328125
