# Time (seconds),Accel_X,Accel_Y,Accel_Z,Gyro_X,Gyro_Y,Gyro_Z
0.0099999,9.581595420837402,0.40462008118629456,-2.185906171798706,-0.3814697265625,2.471923828125,1.8157958984375
0.029999900000000003,9.586383819580078,0.4118026793003082,-2.1954829692840576,-0.457763671875,1.6632080078125,1.739501953125
0.0499999,9.593565940856934,0.3998316824436188,-2.1811177730560303,-0.5340576171875,1.0223388671875,0.6103515625
0.0699999,9.59596061706543,0.35673606395721436,-2.166752576828003,-0.0457763671875,0.5035400390625,0.457763671875
0.08999990000000001,9.59835433959961,0.33758243918418884,-2.1571757793426514,-1.220703125,0.3509521484375,-0.5950927734375
0.10999990000000001,9.591172218322754,0.33518823981285095,-2.1547815799713135,-0.274658203125,0.79345703125,0.2288818359375
0.1299999,9.588777542114258,0.35913026332855225,-2.169146776199341,0.1678466796875,1.0528564453125,1.5869140625
0.14999990000000002,9.583989143371582,0.3902548849582672,-2.1787235736846924,0.030517578125,1.0528564453125,2.13623046875
0.1699999,9.586383819580078,0.38067805767059326,-2.1787235736846924,0.885009765625,1.5106201171875,3.0670166015625
0.1899999,9.588777542114258,0.3471592366695404,-2.1763293743133545,-0.152587890625,0.7476806640625,1.2664794921875
0.20999990000000002,9.59596061706543,0.3064578175544739,-2.1715409755706787,-0.91552734375,0.8392333984375,-0.8392333984375
0.2299999,9.600749015808105,0.2753331959247589,-2.1715409755706787,-0.5950927734375,1.2969970703125,-0.18310546875
0.2499999,9.59596061706543,0.2825157940387726,-2.164358377456665,0.3204345703125,1.3580322265625,0.9307861328125
0.2699999,9.59835433959961,0.30885201692581177,-2.1715409755706787,0.3509521484375,0.5645751953125,0.91552734375
0.28999990000000003,9.59835433959961,0.31603461503982544,-2.1715409755706787,0.5950927734375,1.251220703125,1.4190673828125
0.3099999,9.59596061706543,0.3208230137825012,-2.164358377456665,-0.2288818359375,2.2735595703125,0.335693359375
0.3299999,9.59835433959961,0.31364041566848755,-2.1595699787139893,-0.3204345703125,1.0986328125,-0.06103515625
0.34999990000000003,9.593565940856934,0.31364041566848755,-2.1547815799713135,0.06103515625,-0.2593994140625,0.2288818359375
0.3699999,9.588777542114258,0.3280056416988373,-2.145204782485962,-0.4730224609375,0.3204345703125,0.213623046875
0.3899999,9.588777542114258,0.33518823981285095,-2.1499931812286377,-0.396728515625,0.5645751953125,0.79345703125
0.40999990000000003,9.593565940856934,0.3423708379268646,-2.161964178085327,-0.2288818359375,-0.030517578125,0.79345703125
0.4299999,9.600749015808105,0.3208230137825012,-2.1547815799713135,0.3662109375,0.762939453125,0.7476806640625
0.4499999,9.607931137084961,0.29209262132644653,-2.166752576828003,0.5950927734375,0.1983642578125,-0.0457763671875
0.4699999,9.607931137084961,0.28730419278144836,-2.166752576828003,-0.5035400390625,0.1678466796875,-1.8768310546875
0.4899999,9.59835433959961,0.29209262132644653,-2.164358377456665,0.7781982421875,0.5950927734375,0
0.5099999,9.583989143371582,0.3423708379268646,-2.1811177730560303,0.48828125,-0.42724609375,0.946044921875
0.5299999,9.57441234588623,0.37828385829925537,-2.188300371170044,-0.3509521484375,0.5340576171875,2.1820068359375
0.5499999,9.564835548400879,0.38546648621559143,-2.188300371170044,-1.007080078125,1.678466796875,2.7008056640625
0.5699999,9.560047149658203,0.363918662071228,-2.183511972427368,-2.3193359375,0.030517578125,1.2359619140625
0.5899998999999999,9.564835548400879,0.2968810200691223,-2.164358377456665,-1.5869140625,-0.7171630859375,0.8544921875
0.6099998999999999,9.569623947143555,0.2513911724090576,-2.1715409755706787,-2.3193359375,-0.8392333984375,-0.885009765625
0.6299999,9.583989143371582,0.2322375625371933,-2.1811177730560303,-3.0670166015625,1.89208984375,-1.40380859375
0.6499999,9.59596061706543,0.24181437492370605,-2.209848165512085,-1.46484375,2.3345947265625,0.54931640625
0.6699999,9.607931137084961,0.2849099934101105,-2.229001760482788,-1.4190673828125,1.007080078125,0.4730224609375
0.6899999,9.610325813293457,0.31124621629714966,-2.209848165512085,-0.518798828125,1.922607421875,0.762939453125
0.7099999,9.607931137084961,0.3256114423274994,-2.2026655673980713,-0.5340576171875,1.1138916015625,0.396728515625
0.7299998999999999,9.59596061706543,0.3256114423274994,-2.190694570541382,-1.4801025390625,0.885009765625,0.091552734375
0.7499998999999999,9.588777542114258,0.3256114423274994,-2.188300371170044,-2.227783203125,2.685546875,0.3814697265625
0.7699999,9.586383819580078,0.33039984107017517,-2.188300371170044,-1.739501953125,3.1280517578125,1.03759765625
0.7899999,9.593565940856934,0.3256114423274994,-2.190694570541382,-0.5950927734375,2.7313232421875,1.6021728515625
0.8099999,9.600749015808105,0.31364041566848755,-2.1811177730560303,-0.518798828125,2.9296875,1.46484375
0.8299999,9.607931137084961,0.304063618183136,-2.1571757793426514,-1.0223388671875,3.5552978515625,0.762939453125
0.8499998999999999,9.605537414550781,0.3016694188117981,-2.1523873805999756,-1.1444091796875,2.3345947265625,0.6103515625
0.8699998999999999,9.605537414550781,0.31124621629714966,-2.1380221843719482,-0.9765625,2.288818359375,1.64794921875
0.8899999,9.600749015808105,0.31842881441116333,-2.1356279850006104,-1.129150390625,2.9296875,2.01416015625
0.9099999,9.603142738342285,0.3064578175544739,-2.1284453868865967,-1.068115234375,3.0364990234375,1.64794921875
0.9299999,9.600749015808105,0.26815059781074524,-2.1164743900299072,-1.15966796875,2.0751953125,0.4730224609375
0.9499999,9.600749015808105,0.24660277366638184,-2.097320795059204,-2.3345947265625,1.52587890625,-1.2664794921875
0.9699998999999999,9.600749015808105,0.2322375625371933,-2.0853497982025146,-2.13623046875,0.9765625,-0.885009765625
0.9899998999999999,9.600749015808105,0.2537853717803955,-2.078166961669922,-1.5869140625,1.007080078125,-0.335693359375
1.0099999,9.603142738342285,0.2801215946674347,-2.0829553604125977,-1.190185546875,0.732421875,-0.030517578125
1.0299999,9.605537414550781,0.3016694188117981,-2.0925323963165283,-0.5340576171875,0.762939453125,0.244140625
1.0499999,9.607931137084961,0.30885201692581177,-2.1045033931732178,-0.2899169921875,0.701904296875,-0.06103515625
1.0699999,9.610325813293457,0.3016694188117981,-2.1092917919158936,0.42724609375,0.762939453125,-0.244140625
1.0899999,9.607931137084961,0.3016694188117981,-2.118868589401245,0.30517578125,0.396728515625,-0.5035400390625
1.1099999,9.603142738342285,0.31124621629714966,-2.1092917919158936,-0.823974609375,1.0833740234375,-0.1373291015625
1.1299999,9.593565940856934,0.3256114423274994,-2.1164743900299072,-0.1220703125,0.9002685546875,0.9765625
1.1499999,9.591172218322754,0.33758243918418884,-2.1140801906585693,-0.1373291015625,0.9002685546875,1.1444091796875
1.1699998999999999,9.603142738342285,0.31842881441116333,-2.1140801906585693,-0.1220703125,1.3427734375,1.190185546875
1.1899998999999999,9.612719535827637,0.31124621629714966,-2.1140801906585693,0.5340576171875,0.91552734375,0.823974609375
1.2099999,9.615114212036133,0.31124621629714966,-2.121262788772583,1.5716552734375,0.946044921875,1.6632080078125
1.2299999,9.610325813293457,0.31603461503982544,-2.1284453868865967,0.5950927734375,1.800537109375,2.8839111328125
1.2499999,9.59835433959961,0.3232172429561615,-2.145204782485962,-2.777099609375,1.800537109375,2.5634765625
1.2699999,9.588777542114258,0.31124621629714966,-2.1380221843719482,-3.96728515625,3.41796875,2.8533935546875
1.2899999,9.583989143371582,0.2944868206977844,-2.1356279850006104,-5.0048828125,4.08935546875,2.655029296875
1.3099999,9.59596061706543,0.2513911724090576,-2.123656988143921,-4.486083984375,3.6773681640625,2.716064453125
1.3299999,9.612719535827637,0.19871874153614044,-2.078166961669922,-2.5482177734375,4.5928955078125,2.0599365234375
1.3499999,9.627084732055664,0.1628057211637497,-2.0374655723571777,-2.50244140625,1.6632080078125,-1.40380859375
1.3699999,9.62947940826416,0.1364694982767105,-2.0015525817871094,0.0457763671875,-0.885009765625,-1.3580322265625
1.3899999,9.624691009521484,0.16998831927776337,-1.9991583824157715,-0.030517578125,0.274658203125,-0.6561279296875
1.4099999,9.615114212036133,0.22266076505184174,-2.0183119773864746,-0.946044921875,2.1514892578125,0.4119873046875
1.4299998999999999,9.610325813293457,0.27054479718208313,-2.0470423698425293,0.1068115234375,1.89208984375,1.3580322265625
1.4499999,9.612719535827637,0.28969839215278625,-2.0638017654418945,0.30517578125,0.335693359375,0.6561279296875
1.4699999,9.607931137084961,0.2849099934101105,-2.0470423698425293,-0.396728515625,0.3662109375,-0.5340576171875
1.4899999,9.607931137084961,0.27054479718208313,-2.0446481704711914,-0.48828125,-0.579833984375,-0.396728515625
1.5099999,9.607931137084961,0.26815059781074524,-2.0470423698425293,-1.2359619140625,-0.42724609375,0.1678466796875
1.5299999,9.612719535827637,0.26815059781074524,-2.0685901641845703,-1.64794921875,0.946044921875,0.79345703125
1.5499999,9.622296333312988,0.27054479718208313,-2.0805611610412598,-1.8157958984375,1.77001953125,0.7476806640625
1.5699999,9.62947940826416,0.26575639843940735,-2.0829553604125977,-0.4425048828125,1.0833740234375,0.48828125
1.5899999,9.634267807006836,0.24660277366638184,-2.0805611610412598,0.79345703125,-0.335693359375,0.6561279296875
1.6099999,9.634267807006836,0.23942017555236816,-2.0685901641845703,-0.8087158203125,0.6561279296875,-0.2593994140625
1.6299999,9.624691009521484,0.22744916379451752,-2.0614075660705566,0.06103515625,0.9918212890625,0.1068115234375
1.6499999,9.617507934570312,0.2346317619085312,-2.073378562927246,0.091552734375,0.0457763671875,0.213623046875
1.6699999,9.612719535827637,0.24660277366638184,-2.075772762298584,-0.885009765625,1.0986328125,0.518798828125
1.6899998999999999,9.605537414550781,0.2537853717803955,-2.078166961669922,-0.2899169921875,2.0294189453125,0.9307861328125
1.7099999,9.605537414550781,0.26336219906806946,-2.0853497982025146,-0.8087158203125,0.79345703125,0.2593994140625
1.7299999,9.607931137084961,0.2585737705230713,-2.078166961669922,-0.8697509765625,1.0223388671875,0.396728515625
1.7499999,9.612719535827637,0.24420857429504395,-2.073378562927246,-0.6866455078125,1.64794921875,0.8544921875
1.7699999,9.617507934570312,0.23702596127986908,-2.0661959648132324,-0.9002685546875,1.6021728515625,-0.213623046875
1.7899999,9.622296333312988,0.2346317619085312,-2.070984363555908,-0.7171630859375,0.48828125,-0.640869140625
1.8099999,9.627084732055664,0.2346317619085312,-2.0661959648132324,0.152587890625,1.6326904296875,1.068115234375
1.8299999,9.624691009521484,0.24420857429504395,-2.0638017654418945,0.67138671875,2.105712890625,1.15966796875
1.8499999,9.627084732055664,0.24420857429504395,-2.0685901641845703,0.0152587890625,0.8544921875,0.0457763671875
1.8699999,9.622296333312988,0.24660277366638184,-2.056619167327881,0.030517578125,1.129150390625,0.1373291015625
1.8899999,9.617507934570312,0.26096799969673157,-2.051830768585205,-0.152587890625,0.8544921875,0.5035400390625
1.9099999,9.622296333312988,0.2849099934101105,-2.0590133666992188,-0.518798828125,0.3662109375,1.7242431640625
1.9299998999999999,9.622296333312988,0.26336219906806946,-2.0638017654418945,0.8697509765625,1.89208984375,3.4942626953125
1.9499999,9.62947940826416,0.22026655077934265,-2.0614075660705566,1.2359619140625,2.5482177734375,1.9073486328125
1.9699999,9.634267807006836,0.16998831927776337,-2.0614075660705566,-0.1220703125,1.251220703125,-1.8157958984375
1.9899999,9.62947940826416,0.13168109953403473,-2.051830768585205,0.9307861328125,0.8087158203125,-0.7171630859375
2.0099999,9.62947940826416,0.16998831927776337,-2.049436569213867,-0.5645751953125,1.8157958984375,-0.030517578125
2.0299999,9.624691009521484,0.2106897532939911,-2.051830768585205,0.1068115234375,2.0751953125,1.9683837890625
2.0499999,9.622296333312988,0.23942017555236816,-2.0398597717285156,0.42724609375,1.89208984375,1.739501953125
2.0699999,9.624691009521484,0.22026655077934265,-2.0254945755004883,0.518798828125,0.4119873046875,-0.0152587890625
2.0899999,9.624691009521484,0.1843535304069519,-2.0015525817871094,-0.0762939453125,0.0152587890625,-1.373291015625
2.1099999,9.627084732055664,0.17238251864910126,-2.008735179901123,-1.1138916015625,-0.244140625,-1.9989013671875
2.1299999,9.624691009521484,0.1867477297782898,-2.0183119773864746,0.0152587890625,0.91552734375,-0.0762939453125
2.1499999,9.627084732055664,0.2298433631658554,-2.054224967956543,0.0762939453125,0.9613037109375,0.8697509765625
2.1699999,9.627084732055664,0.2561795711517334,-2.0614075660705566,-0.0457763671875,1.46484375,0.8697509765625
2.1899999,9.624691009521484,0.2561795711517334,-2.0638017654418945,0.5645751953125,1.2054443359375,0.9765625
2.2099999,9.627084732055664,0.23942017555236816,-2.054224967956543,-0.5950927734375,0.030517578125,-0.1373291015625
2.2299999,9.622296333312988,0.21787235140800476,-2.03507137298584,-0.6256103515625,0.6561279296875,-0.396728515625
2.2499999,9.624691009521484,0.21547815203666687,-2.0398597717285156,-0.1983642578125,0.3509521484375,0.06103515625
2.2699999,9.622296333312988,0.22744916379451752,-2.0470423698425293,-0.0762939453125,0.67138671875,0.5035400390625
2.2899999,9.622296333312988,0.2346317619085312,-2.051830768585205,0,1.373291015625,1.2054443359375
2.3099999,9.622296333312988,0.2298433631658554,-2.051830768585205,-0.18310546875,0.823974609375,1.03759765625
2.3299999,9.617507934570312,0.2082955539226532,-2.0422539710998535,-0.1678466796875,0.42724609375,0.1983642578125
2.3499999,9.622296333312988,0.17956513166427612,-2.03507137298584,-0.030517578125,0.67138671875,-0.1220703125
2.3699999,9.619902610778809,0.17956513166427612,-2.0446481704711914,-1.2054443359375,0.5950927734375,-0.9918212890625
2.3899999,9.619902610778809,0.19393034279346466,-2.0470423698425293,-0.1068115234375,1.1749267578125,0.3814697265625
2.4099999,9.622296333312988,0.2106897532939911,-2.073378562927246,0.4425048828125,1.1444091796875,1.5869140625
2.4299999,9.624691009521484,0.21787235140800476,-2.0638017654418945,-0.244140625,2.166748046875,0.79345703125
2.4499999,9.627084732055664,0.18914192914962769,-2.056619167327881,0.244140625,1.2359619140625,-0.1373291015625
2.4699999,9.62947940826416,0.17238251864910126,-2.0422539710998535,-0.48828125,0.0152587890625,-1.40380859375
2.4899999,9.62947940826416,0.16519992053508759,-2.0231003761291504,-1.1444091796875,0.9918212890625,-1.2664794921875
2.5099999,9.627084732055664,0.1843535304069519,-2.03507137298584,-0.1678466796875,0.8392333984375,-0.1373291015625
2.5299999,9.622296333312988,0.22744916379451752,-2.0374655723571777,-0.2593994140625,1.15966796875,0.152587890625
2.5499999,9.617507934570312,0.24899697303771973,-2.0446481704711914,-0.2288818359375,1.556396484375,1.1444091796875
2.5699999,9.615114212036133,0.272938996553421,-2.0446481704711914,-0.152587890625,0.9307861328125,0.8087158203125
2.5899999,9.612719535827637,0.26096799969673157,-2.0470423698425293,0.2593994140625,0.701904296875,1.1749267578125
2.6099999,9.617507934570312,0.2585737705230713,-2.0422539710998535,-0.6256103515625,1.2359619140625,0.823974609375
2.6299999,9.622296333312988,0.2322375625371933,-2.049436569213867,-0.335693359375,1.068115234375,1.2969970703125
2.6499999,9.624691009521484,0.22026655077934265,-2.0446481704711914,0.3204345703125,1.5411376953125,1.4190673828125
2.6699999,9.624691009521484,0.20350714027881622,-2.054224967956543,-0.7476806640625,1.2664794921875,0.91552734375
2.6899999,9.63187313079834,0.15322890877723694,-2.0446481704711914,1.068115234375,1.495361328125,0.732421875
2.7099999,9.634267807006836,0.13407529890537262,-2.0374655723571777,0.5340576171875,0.5950927734375,-0.8697509765625
2.7299999,9.63187313079834,0.12210428714752197,-2.030282974243164,0.5340576171875,0.8392333984375,-0.79345703125
2.7499999,9.62947940826416,0.1412578970193863,-2.027888774871826,0.5950927734375,1.312255859375,-0.2593994140625
2.7699999,9.622296333312988,0.1867477297782898,-2.03507137298584,0.1068115234375,0.6866455078125,0.0152587890625
2.7899999,9.617507934570312,0.22505496442317963,-2.0398597717285156,0.30517578125,1.40380859375,1.2359619140625
2.8099999,9.612719535827637,0.23702596127986908,-2.0374655723571777,1.007080078125,2.0751953125,2.2735595703125
2.8299999,9.617507934570312,0.22744916379451752,-2.0398597717285156,-0.06103515625,1.3275146484375,0.7781982421875
2.8499999,9.622296333312988,0.18914192914962769,-2.03507137298584,-0.3662109375,1.2664794921875,-0.0762939453125
2.8699999,9.62947940826416,0.15083470940589905,-2.0254945755004883,0.1068115234375,1.6021728515625,-0.091552734375
2.8899999,9.634267807006836,0.14365209639072418,-2.0183119773864746,-0.2288818359375,1.03759765625,-0.762939453125
2.9099999,9.63187313079834,0.15322890877723694,-2.013523578643799,-0.1068115234375,0.579833984375,-0.30517578125
2.9299999,9.63187313079834,0.17956513166427612,-2.0039467811584473,0.1983642578125,1.0528564453125,0.8392333984375
2.9499999,9.62947940826416,0.20111294090747833,-2.013523578643799,-0.0152587890625,0.946044921875,0.9765625
2.9699999,9.62947940826416,0.19871874153614044,-2.013523578643799,0.3204345703125,1.28173828125,0.6866455078125
2.9899999,9.63187313079834,0.1867477297782898,-2.0183119773864746,-0.7476806640625,1.1444091796875,-0.48828125
3.0099999,9.63187313079834,0.16998831927776337,-2.011129379272461,-0.7171630859375,0.5035400390625,-0.4730224609375
3.0299999,9.62947940826416,0.17238251864910126,-2.006340980529785,0.1983642578125,0.518798828125,0.0152587890625
3.0499999,9.62947940826416,0.17717093229293823,-2.008735179901123,-0.06103515625,0.274658203125,0.30517578125
3.0699999,9.62947940826416,0.16998831927776337,-2.011129379272461,-0.579833984375,1.068115234375,0.42724609375
3.0899999,9.62947940826416,0.1628057211637497,-2.013523578643799,-0.9002685546875,1.2359619140625,-0.885009765625
3.1099999,9.62947940826416,0.14604631066322327,-2.0159177780151367,-0.8544921875,0.5645751953125,-1.2664794921875
3.1299999,9.63187313079834,0.15083470940589905,-2.0159177780151367,-0.7171630859375,0.5950927734375,-1.2054443359375
3.1499999,9.62947940826416,0.17956513166427612,-2.0207061767578125,-0.457763671875,0.6103515625,-0.8087158203125
3.1699999,9.62947940826416,0.20350714027881622,-2.0231003761291504,0.18310546875,0.946044921875,0.3662109375
3.1899999,9.634267807006836,0.22505496442317963,-2.0422539710998535,-0.4119873046875,0.3204345703125,-0.030517578125
3.2099999,9.634267807006836,0.21547815203666687,-2.0374655723571777,0,1.373291015625,-0.3509521484375
3.2299999,9.634267807006836,0.19871874153614044,-2.0374655723571777,0.3204345703125,1.1444091796875,-0.732421875
3.2499999,9.634267807006836,0.19871874153614044,-2.032677173614502,-0.6561279296875,0.1983642578125,-1.5106201171875
3.2699999,9.624691009521484,0.20350714027881622,-2.0254945755004883,0.2288818359375,0.67138671875,0.335693359375
3.2899999,9.617507934570312,0.22266076505184174,-2.0207061767578125,0.0762939453125,1.708984375,0.823974609375
3.3099999,9.615114212036133,0.2298433631658554,-2.0207061767578125,-0.1983642578125,1.15966796875,0.2899169921875
3.3299999000000002,9.617507934570312,0.21787235140800476,-2.0039467811584473,0.5035400390625,0.67138671875,0.67138671875
3.3499999,9.622296333312988,0.2059013396501541,-1.9943699836730957,0.213623046875,0.4119873046875,-0.0457763671875
3.3699999,9.627084732055664,0.19393034279346466,-2.0039467811584473,0.1678466796875,-0.335693359375,-0.2288818359375
3.3899999,9.63187313079834,0.19393034279346466,-2.0159177780151367,-0.030517578125,0.946044921875,0.3509521484375
3.4099999,9.62947940826416,0.19871874153614044,-2.03507137298584,-0.0762939453125,1.3885498046875,0.30517578125
3.4299999,9.63187313079834,0.2059013396501541,-2.0470423698425293,0.1373291015625,0.7476806640625,0.18310546875
3.4499999,9.62947940826416,0.20350714027881622,-2.0446481704711914,-0.1983642578125,0.6866455078125,0.5035400390625
3.4699999,9.62947940826416,0.19632454216480255,-2.032677173614502,0.0762939453125,1.251220703125,0.518798828125
3.4899999,9.62947940826416,0.1843535304069519,-2.0374655723571777,0.3509521484375,0.1983642578125,0
3.5099999,9.63187313079834,0.16998831927776337,-2.0207061767578125,0.2288818359375,1.220703125,-0.244140625
3.5299999,9.62947940826416,0.16519992053508759,-2.030282974243164,0.152587890625,0.823974609375,-0.2593994140625
3.5499999,9.63187313079834,0.1843535304069519,-2.030282974243164,0.06103515625,0.762939453125,-0.457763671875
3.5699999,9.63187313079834,0.20111294090747833,-2.03507137298584,0.7476806640625,1.068115234375,0.640869140625
3.5899999,9.62947940826416,0.22505496442317963,-2.0374655723571777,0.48828125,1.1749267578125,1.190185546875
3.6099999,9.627084732055664,0.22266076505184174,-2.032677173614502,0.2288818359375,1.0833740234375,1.0833740234375
3.6299999,9.624691009521484,0.2059013396501541,-2.0231003761291504,0.244140625,1.0528564453125,0.4425048828125
3.6499999,9.627084732055664,0.17477671802043915,-2.011129379272461,-0.0762939453125,0.8697509765625,-0.0762939453125
3.6699999,9.627084732055664,0.1628057211637497,-2.0015525817871094,-0.5340576171875,0.48828125,-0.701904296875
3.6899999,9.627084732055664,0.1604115068912506,-1.9991583824157715,0.5035400390625,0.3509521484375,0.030517578125
3.7099999,9.624691009521484,0.181959331035614,-2.0159177780151367,0.3662109375,0.3204345703125,0.54931640625
3.7299999,9.619902610778809,0.2059013396501541,-2.0207061767578125,-0.8697509765625,1.2969970703125,0.5340576171875
3.7499999,9.619902610778809,0.20111294090747833,-2.027888774871826,0.1983642578125,1.28173828125,1.5411376953125
3.7699999,9.624691009521484,0.18914192914962769,-2.027888774871826,0.7781982421875,0.091552734375,0.67138671875
3.7899999,9.627084732055664,0.1628057211637497,-2.0254945755004883,-0.1678466796875,0.18310546875,-0.79345703125
3.8099999,9.634267807006836,0.15083470940589905,-2.0231003761291504,-0.3204345703125,0.9765625,-0.6561279296875
3.8299999000000002,9.634267807006836,0.15801730751991272,-2.03507137298584,0.18310546875,0.5950927734375,0.18310546875
3.8499999,9.62947940826416,0.181959331035614,-2.0374655723571777,0.18310546875,0.946044921875,0.79345703125
3.8699999,9.627084732055664,0.20350714027881622,-2.0422539710998535,-0.518798828125,0.9918212890625,0.579833984375
3.8899999,9.624691009521484,0.19871874153614044,-2.03507137298584,0.091552734375,0.946044921875,0.9307861328125
3.9099999,9.627084732055664,0.17477671802043915,-2.032677173614502,0.2288818359375,0.518798828125,0.1678466796875
3.9299999,9.627084732055664,0.1604115068912506,-2.03507137298584,-0.640869140625,0.3509521484375,-1.03759765625
3.9499999,9.62947940826416,0.14604631066322327,-2.03507137298584,-0.06103515625,1.4190673828125,-0.274658203125
3.9699999,9.627084732055664,0.1604115068912506,-2.0398597717285156,0.244140625,1.251220703125,0.579833984375
3.9899999,9.624691009521484,0.1867477297782898,-2.03507137298584,-0.48828125,0.9613037109375,0.244140625
4.0099999,9.622296333312988,0.18914192914962769,-2.032677173614502,0.4425048828125,0.5340576171875,1.0833740234375
4.029999900000001,9.622296333312988,0.1867477297782898,-2.030282974243164,-0.2593994140625,1.1444091796875,0.335693359375
4.0499999,9.622296333312988,0.16998831927776337,-2.0254945755004883,-0.2899169921875,1.373291015625,-0.4425048828125
4.069999900000001,9.624691009521484,0.1604115068912506,-2.0254945755004883,0.091552734375,0.762939453125,-0.2288818359375
4.0899999000000005,9.622296333312988,0.1604115068912506,-2.0183119773864746,-0.1220703125,0.6561279296875,0.1220703125
4.1099999,9.622296333312988,0.1843535304069519,-2.0254945755004883,-0.9765625,0.8392333984375,-0.335693359375
4.1299999000000005,9.627084732055664,0.18914192914962769,-2.0374655723571777,-0.1678466796875,0.9918212890625,0.7781982421875
4.1499999,9.624691009521484,0.19153612852096558,-2.0398597717285156,0.5340576171875,1.739501953125,1.0528564453125
4.1699999000000005,9.62947940826416,0.17238251864910126,-2.03507137298584,0.0762939453125,0.823974609375,-0.1678466796875
4.1899999,9.627084732055664,0.15562310814857483,-2.027888774871826,-0.274658203125,0.213623046875,-0.9002685546875
4.209999900000001,9.622296333312988,0.15083470940589905,-2.0231003761291504,0.3509521484375,0.79345703125,0.3509521484375
4.2299999,9.619902610778809,0.16519992053508759,-2.0183119773864746,-0.6256103515625,1.434326171875,-0.06103515625
4.249999900000001,9.622296333312988,0.17477671802043915,-2.0207061767578125,-0.54931640625,0.9307861328125,-0.274658203125
4.2699999,9.624691009521484,0.17956513166427612,-2.0207061767578125,0.1373291015625,0.2593994140625,-0.06103515625
4.289999900000001,9.627084732055664,0.181959331035614,-2.011129379272461,-0.152587890625,1.007080078125,0.1373291015625
4.3099999,9.62947940826416,0.17956513166427612,-2.0207061767578125,0.1373291015625,0.5340576171875,-0.0152587890625
4.329999900000001,9.62947940826416,0.17238251864910126,-2.0231003761291504,-0.3509521484375,0.4425048828125,-0.4119873046875
4.3499999,9.62947940826416,0.17238251864910126,-2.0183119773864746,-1.0986328125,1.5106201171875,-0.54931640625
4.369999900000001,9.627084732055664,0.17238251864910126,-2.0231003761291504,-0.0457763671875,0.6866455078125,0.0152587890625
4.3899999,9.624691009521484,0.181959331035614,-2.027888774871826,-0.213623046875,0.457763671875,0.06103515625
4.409999900000001,9.622296333312988,0.19153612852096558,-2.013523578643799,-0.396728515625,1.8310546875,0.4119873046875
4.4299999,9.619902610778809,0.19871874153614044,-2.032677173614502,-0.1220703125,0.42724609375,0.42724609375
4.449999900000001,9.624691009521484,0.19871874153614044,-2.027888774871826,-0.4119873046875,0.946044921875,0.3814697265625
4.4699999,9.624691009521484,0.1843535304069519,-2.0231003761291504,-0.4730224609375,1.7547607421875,0.4730224609375
4.489999900000001,9.627084732055664,0.181959331035614,-2.027888774871826,-0.579833984375,0.2899169921875,-0.5340576171875
4.5099999,9.62947940826416,0.16519992053508759,-2.0231003761291504,0.18310546875,0.42724609375,0.213623046875
4.529999900000001,9.627084732055664,0.16998831927776337,-2.013523578643799,0.152587890625,1.46484375,0.48828125
4.5499999,9.62947940826416,0.16998831927776337,-2.027888774871826,-0.06103515625,0.091552734375,0.06103515625
4.569999900000001,9.627084732055664,0.17717093229293823,-2.0254945755004883,-0.396728515625,0.91552734375,-0.0762939453125
4.5899999000000005,9.627084732055664,0.17956513166427612,-2.032677173614502,-0.4730224609375,1.708984375,0.3204345703125
4.609999900000001,9.62947940826416,0.17238251864910126,-2.0422539710998535,-0.2593994140625,1.0986328125,0.5950927734375
4.6299999000000005,9.62947940826416,0.16519992053508759,-2.0254945755004883,-0.2593994140625,1.617431640625,-0.30517578125
4.6499999,9.63187313079834,0.16519992053508759,-2.0207061767578125,-0.274658203125,0.732421875,-0.9918212890625
4.6699999000000005,9.634267807006836,0.17477671802043915,-2.0183119773864746,-0.1678466796875,0.1983642578125,-0.1373291015625
4.6899999,9.62947940826416,0.18914192914962769,-2.008735179901123,0.5950927734375,1.1444091796875,1.15966796875
4.709999900000001,9.627084732055664,0.19632454216480255,-2.0159177780151367,0.3814697265625,0.6866455078125,0.579833984375
4.7299999,9.624691009521484,0.17477671802043915,-2.0207061767578125,-0.030517578125,0.2899169921875,-0.2593994140625
4.749999900000001,9.624691009521484,0.14604631066322327,-2.013523578643799,-0.9307861328125,1.068115234375,-1.0833740234375
4.7699999,9.624691009521484,0.1412578970193863,-2.0207061767578125,-1.0986328125,0.5340576171875,-1.6937255859375
4.789999900000001,9.627084732055664,0.16759411990642548,-2.0254945755004883,-0.0152587890625,0.2899169921875,-0.3662109375
4.8099999,9.624691009521484,0.20111294090747833,-2.0254945755004883,0.5645751953125,1.3427734375,1.434326171875
4.829999900000001,9.624691009521484,0.22266076505184174,-2.032677173614502,0,0.823974609375,1.1749267578125
4.8499999,9.622296333312988,0.20350714027881622,-2.027888774871826,0.213623046875,0.6103515625,0.2288818359375
4.869999900000001,9.622296333312988,0.16998831927776337,-2.013523578643799,0.030517578125,0.8544921875,-0.9307861328125
4.8899999,9.627084732055664,0.15322890877723694,-2.011129379272461,-0.732421875,0.2899169921875,-1.2969970703125
4.909999900000001,9.624691009521484,0.16519992053508759,-2.0183119773864746,0.030517578125,0.3662109375,0.030517578125
4.9299999,9.62947940826416,0.19153612852096558,-2.032677173614502,0.518798828125,1.2359619140625,1.3580322265625
4.949999900000001,9.627084732055664,0.20111294090747833,-2.0374655723571777,1.0986328125,1.556396484375,1.4495849609375
4.9699999,9.627084732055664,0.19632454216480255,-2.0422539710998535,0.67138671875,0.6866455078125,-0.0457763671875
4.989999900000001,9.627084732055664,0.17717093229293823,-2.03507137298584,-0.0152587890625,0.5340576171875,-0.30517578125
5.0099999,9.627084732055664,0.16759411990642548,-2.030282974243164,-0.579833984375,1.3427734375,-0.0762939453125
5.029999900000001,9.627084732055664,0.16998831927776337,-2.030282974243164,-0.18310546875,1.129150390625,0.30517578125
5.0499999,9.63187313079834,0.17477671802043915,-2.030282974243164,-0.1373291015625,0.5645751953125,0.2288818359375
5.069999900000001,9.62947940826416,0.17717093229293823,-2.032677173614502,-0.274658203125,0.457763671875,-0.2288818359375
5.0899999000000005,9.62947940826416,0.16998831927776337,-2.027888774871826,-0.396728515625,1.5106201171875,0.06103515625
5.109999900000001,9.63187313079834,0.16519992053508759,-2.0398597717285156,-0.7781982421875,1.28173828125,-0.18310546875
5.1299999000000005,9.63187313079834,0.16759411990642548,-2.0374655723571777,-0.8392333984375,1.3275146484375,-0.732421875
5.1499999,9.63187313079834,0.17477671802043915,-2.030282974243164,-0.0457763671875,1.3427734375,-0.42724609375
5.1699999000000005,9.63187313079834,0.18914192914962769,-2.0254945755004883,0.5340576171875,0.79345703125,0.1220703125
5.1899999,9.62947940826416,0.20350714027881622,-2.0207061767578125,0.3814697265625,0.5035400390625,0.335693359375
5.209999900000001,9.62947940826416,0.20111294090747833,-2.011129379272461,0.244140625,0.9918212890625,0.701904296875
5.2299999,9.62947940826416,0.19153612852096558,-2.013523578643799,-0.091552734375,0.5645751953125,0.1678466796875
5.249999900000001,9.63187313079834,0.18914192914962769,-2.0183119773864746,-0.244140625,0.0457763671875,-0.5340576171875
5.2699999,9.63187313079834,0.19153612852096558,-2.0207061767578125,1.5106201171875,0.5340576171875,0.6256103515625
5.289999900000001,9.634267807006836,0.2106897532939911,-2.032677173614502,3.4027099609375,0.335693359375,1.9378662109375
5.3099999,9.63187313079834,0.21308395266532898,-2.0446481704711914,3.875732421875,0.152587890625,2.50244140625
5.329999900000001,9.63187313079834,0.19632454216480255,-2.03507137298584,2.288818359375,1.4801025390625,1.953125
5.3499999,9.62947940826416,0.1604115068912506,-2.0470423698425293,0.518798828125,0.579833984375,0.3814697265625
5.369999900000001,9.63187313079834,0.11971008777618408,-2.032677173614502,-0.4119873046875,1.1138916015625,0.1220703125
5.3899999,9.62947940826416,0.10295066982507706,-2.027888774871826,-0.7781982421875,1.5411376953125,-0.1678466796875
5.409999900000001,9.62947940826416,0.09576806426048279,-2.032677173614502,-1.2054443359375,0.6866455078125,-0.335693359375
5.4299999,9.627084732055664,0.11013327538967133,-2.027888774871826,-2.01416015625,1.2664794921875,-0.5645751953125
5.449999900000001,9.624691009521484,0.12449848651885986,-2.03507137298584,-1.2664794921875,1.373291015625,-0.4119873046875
5.4699999,9.62947940826416,0.14365209639072418,-2.03507137298584,-0.6866455078125,1.0223388671875,-0.2899169921875
5.489999900000001,9.62947940826416,0.1604115068912506,-2.0231003761291504,0.1068115234375,0.9307861328125,-0.1983642578125
5.5099999,9.63187313079834,0.1843535304069519,-2.0183119773864746,1.5106201171875,0,0.0152587890625
5.529999900000001,9.62947940826416,0.21308395266532898,-2.0254945755004883,2.288818359375,-0.54931640625,0.6561279296875
5.5499999,9.619902610778809,0.2322375625371933,-2.0398597717285156,1.739501953125,1.3885498046875,2.25830078125
5.569999900000001,9.612719535827637,0.23702596127986908,-2.0614075660705566,-0.0152587890625,2.8228759765625,2.8839111328125
5.5899999000000005,9.612719535827637,0.21547815203666687,-2.0661959648132324,-0.457763671875,2.9449462890625,2.227783203125
5.609999900000001,9.617507934570312,0.16519992053508759,-2.051830768585205,-0.3662109375,2.0599365234375,1.4495849609375
5.6299999000000005,9.627084732055664,0.10534487664699554,-2.0183119773864746,-0.54931640625,1.861572265625,0.823974609375
5.6499999,9.63187313079834,0.06464344263076782,-1.9967641830444336,-0.5950927734375,1.03759765625,-0.4425048828125
5.6699999000000005,9.62947940826416,0.05027823522686958,-1.9704279899597168,-0.640869140625,0.8392333984375,-0.701904296875
5.6899999,9.63187313079834,0.06224924325942993,-1.9704279899597168,-0.4730224609375,0.3662109375,0.091552734375
5.709999900000001,9.62947940826416,0.09576806426048279,-1.9800047874450684,-0.518798828125,0.457763671875,0.1068115234375
5.7299999,9.636661529541016,0.12928688526153564,-2.0159177780151367,0.4119873046875,0.5645751953125,-0.213623046875
5.749999900000001,9.634267807006836,0.1364694982767105,-2.0207061767578125,0.0152587890625,0.3814697265625,-0.823974609375
5.7699999,9.63187313079834,0.14365209639072418,-2.027888774871826,0.06103515625,-0.1068115234375,-0.213623046875
5.789999900000001,9.624691009521484,0.1388636976480484,-2.013523578643799,0.244140625,1.1138916015625,0.6103515625
5.8099999,9.619902610778809,0.1412578970193863,-2.008735179901123,-0.79345703125,0.6866455078125,-0.42724609375
5.829999900000001,9.619902610778809,0.15083470940589905,-2.006340980529785,-0.6866455078125,-0.457763671875,-0.9765625
5.8499999,9.617507934570312,0.1604115068912506,-2.013523578643799,1.495361328125,0.0457763671875,1.28173828125
5.869999900000001,9.619902610778809,0.17717093229293823,-2.03507137298584,0.2593994140625,1.2664794921875,1.708984375
5.8899999,9.615114212036133,0.17238251864910126,-2.0470423698425293,-1.068115234375,2.1209716796875,1.4190673828125
5.909999900000001,9.619902610778809,0.1412578970193863,-2.051830768585205,-0.67138671875,1.861572265625,1.3275146484375
5.9299999,9.622296333312988,0.10773907601833344,-2.0422539710998535,0.1068115234375,1.6326904296875,0.396728515625
5.949999900000001,9.63187313079834,0.07182604819536209,-2.0231003761291504,-0.1373291015625,1.9378662109375,-0.0457763671875
5.9699999,9.641449928283691,0.05746084079146385,-2.006340980529785,-0.6256103515625,1.4190673828125,-0.3204345703125
5.989999900000001,9.643844604492188,0.06224924325942993,-1.98958158493042,0.244140625,0.6561279296875,-0.396728515625
6.0099999,9.646238327026367,0.07422025501728058,-1.9776105880737305,0.457763671875,0.732421875,-0.2288818359375
6.029999900000001,9.641449928283691,0.10295066982507706,-1.9728221893310547,-0.3509521484375,0.6256103515625,-0.7476806640625
6.0499999,9.634267807006836,0.12689268589019775,-1.987187385559082,-0.030517578125,0.0457763671875,-0.152587890625
6.069999900000001,9.63187313079834,0.14604631066322327,-1.9943699836730957,0.42724609375,1.0528564453125,0.6103515625
6.0899999000000005,9.627084732055664,0.1364694982767105,-2.0015525817871094,0.0457763671875,1.251220703125,0.5950927734375
6.109999900000001,9.62947940826416,0.13168109953403473,-2.008735179901123,-1.46484375,0.42724609375,-1.03759765625
6.1299999000000005,9.63187313079834,0.10773907601833344,-2.0015525817871094,-0.7171630859375,0.2288818359375,-0.6103515625
6.149999900000001,9.634267807006836,0.10534487664699554,-2.011129379272461,-0.274658203125,0.518798828125,-0.1220703125
6.1699999000000005,9.639056205749512,0.12210428714752197,-2.027888774871826,-2.1514892578125,0.5950927734375,-1.3427734375
6.1899999,9.636661529541016,0.1173158809542656,-2.030282974243164,-0.6561279296875,1.739501953125,0.152587890625
6.209999900000001,9.634267807006836,0.13407529890537262,-2.032677173614502,-0.7476806640625,0.946044921875,-0.6103515625
6.2299999,9.63187313079834,0.13168109953403473,-2.027888774871826,-0.3814697265625,0.244140625,-0.701904296875
6.249999900000001,9.62947940826416,0.13168109953403473,-2.0159177780151367,-0.06103515625,0.9002685546875,-0.4730224609375
6.2699999,9.627084732055664,0.13407529890537262,-2.013523578643799,-0.213623046875,0.8544921875,-0.9307861328125
6.289999900000001,9.624691009521484,0.14365209639072418,-2.0207061767578125,-0.42724609375,0.6103515625,-0.8087158203125
6.3099999,9.617507934570312,0.1604115068912506,-2.0183119773864746,-0.7476806640625,1.1749267578125,-0.396728515625
6.329999900000001,9.615114212036133,0.17956513166427612,-2.0159177780151367,-0.4425048828125,1.2359619140625,0.3662109375
6.3499999,9.612719535827637,0.19153612852096558,-2.0183119773864746,-0.274658203125,0.732421875,0.6103515625
6.369999900000001,9.615114212036133,0.17477671802043915,-2.008735179901123,0.1373291015625,0.9002685546875,0.8392333984375
6.3899999,9.622296333312988,0.15562310814857483,-2.008735179901123,-0.8392333984375,1.2359619140625,-0.42724609375
6.409999900000001,9.627084732055664,0.13168109953403473,-2.006340980529785,-0.823974609375,1.15966796875,-0.9002685546875
6.4299999,9.62947940826416,0.12449848651885986,-1.9967641830444336,0.2288818359375,0.8544921875,-0.30517578125
6.449999900000001,9.62947940826416,0.14604631066322327,-2.0159177780151367,-0.457763671875,-0.1678466796875,-0.30517578125
6.4699999,9.627084732055664,0.16998831927776337,-2.0039467811584473,-0.4730224609375,1.922607421875,0.762939453125
6.489999900000001,9.624691009521484,0.17477671802043915,-2.011129379272461,-0.0762939453125,1.4801025390625,1.190185546875
6.5099999,9.627084732055664,0.17477671802043915,-2.013523578643799,-0.91552734375,-0.1220703125,-0.152587890625
6.529999900000001,9.624691009521484,0.14604631066322327,-1.9967641830444336,-0.8087158203125,1.5411376953125,-0.1220703125
6.5499999,9.62947940826416,0.13407529890537262,-2.011129379272461,-0.7171630859375,1.03759765625,-0.3204345703125
6.569999900000001,9.62947940826416,0.1364694982767105,-2.0159177780151367,-0.8392333984375,1.1444091796875,-0.701904296875
6.5899999000000005,9.62947940826416,0.1412578970193863,-2.008735179901123,-0.091552734375,1.77001953125,0.2288818359375
6.609999900000001,9.62947940826416,0.1628057211637497,-2.0183119773864746,-0.335693359375,0.4425048828125,0.06103515625
6.6299999000000005,9.62947940826416,0.16998831927776337,-2.0039467811584473,-0.30517578125,0.946044921875,0.2593994140625
6.649999900000001,9.63187313079834,0.15562310814857483,-2.0039467811584473,0.213623046875,1.373291015625,0.3814697265625
6.6699999000000005,9.636661529541016,0.14365209639072418,-2.0015525817871094,-0.518798828125,0.335693359375,-0.9002685546875
6.6899999,9.639056205749512,0.13407529890537262,-1.9919757843017578,0.030517578125,0.3509521484375,-1.6326904296875
6.709999900000001,9.639056205749512,0.14365209639072418,-1.9967641830444336,1.800537109375,-0.579833984375,-0.244140625
6.7299999,9.636661529541016,0.17477671802043915,-1.9919757843017578,2.777099609375,-0.1983642578125,0.6103515625
6.749999900000001,9.634267807006836,0.17238251864910126,-1.9967641830444336,3.204345703125,-0.48828125,1.129150390625
6.7699999,9.627084732055664,0.16519992053508759,-2.013523578643799,1.2359619140625,-1.5411376953125,-0.9765625
6.789999900000001,9.624691009521484,0.1388636976480484,-2.0254945755004883,-1.40380859375,0.3662109375,-1.77001953125
6.8099999,9.617507934570312,0.12210428714752197,-2.032677173614502,-2.01416015625,2.3651123046875,-0.701904296875
6.829999900000001,9.617507934570312,0.14844051003456116,-2.054224967956543,-2.4871826171875,0.54931640625,-1.2664794921875
6.8499999,9.619902610778809,0.17956513166427612,-2.0398597717285156,-0.4425048828125,1.3580322265625,0.42724609375
6.869999900000001,9.619902610778809,0.2082955539226532,-2.0422539710998535,0.518798828125,0.640869140625,1.4801025390625
6.8899999,9.622296333312988,0.2082955539226532,-2.030282974243164,-0.518798828125,0.91552734375,0.885009765625
6.909999900000001,9.624691009521484,0.18914192914962769,-2.0183119773864746,-0.3814697265625,0.79345703125,0.0457763671875
6.9299999,9.63187313079834,0.15562310814857483,-2.013523578643799,0.3509521484375,-0.42724609375,-0.6866455078125
6.949999900000001,9.636661529541016,0.13168109953403473,-2.0015525817871094,-0.030517578125,-0.6256103515625,-0.823974609375
6.9699999,9.636661529541016,0.1388636976480484,-2.006340980529785,-1.2664794921875,-0.8392333984375,-1.2969970703125
6.989999900000001,9.634267807006836,0.1412578970193863,-2.0207061767578125,-1.708984375,-1.2359619140625,-0.7781982421875
7.0099999,9.627084732055664,0.14604631066322327,-2.0422539710998535,-1.89208984375,0.3662109375,-0.30517578125
7.029999900000001,9.624691009521484,0.16998831927776337,-2.0661959648132324,-3.0975341796875,2.044677734375,-1.6632080078125
7.0499999,9.622296333312988,0.20350714027881622,-2.099714994430542,-2.7313232421875,1.6937255859375,-0.6866455078125
7.069999900000001,9.624691009521484,0.24420857429504395,-2.1045033931732178,-1.3427734375,2.6397705078125,2.349853515625
7.0899999000000005,9.617507934570312,0.26575639843940735,-2.10210919380188,-1.220703125,2.899169921875,3.0059814453125
7.109999900000001,9.619902610778809,0.2298433631658554,-2.051830768585205,-0.9613037109375,2.655029296875,1.922607421875
7.1299999000000005,9.610325813293457,0.15322890877723694,-2.013523578643799,-0.3814697265625,0.6103515625,0.06103515625
7.149999900000001,9.612719535827637,0.10055647045373917,-1.9704279899597168,-1.190185546875,0.4425048828125,-2.288818359375
7.1699999000000005,9.612719535827637,0.07422025501728058,-1.9704279899597168,-0.06103515625,0.3509521484375,-1.0223388671875
7.1899999,9.619902610778809,0.1149216815829277,-1.9704279899597168,0.457763671875,1.190185546875,-0.030517578125
7.209999900000001,9.619902610778809,0.1604115068912506,-2.027888774871826,0.2288818359375,-0.42724609375,0.3662109375
7.2299999,9.627084732055664,0.19871874153614044,-2.0254945755004883,-1.4495849609375,2.166748046875,0.1220703125
7.249999900000001,9.63187313079834,0.181959331035614,-2.0422539710998535,-1.28173828125,-0.4730224609375,-1.8310546875
7.2699999,9.634267807006836,0.16759411990642548,-2.0183119773864746,-1.1749267578125,1.0986328125,-1.739501953125
7.289999900000001,9.63187313079834,0.18914192914962769,-2.027888774871826,-0.06103515625,0.4730224609375,-0.30517578125
7.3099999,9.62947940826416,0.22026655077934265,-2.03507137298584,0.06103515625,0.946044921875,0.579833984375
7.329999900000001,9.624691009521484,0.23702596127986908,-2.0398597717285156,-0.335693359375,1.8463134765625,1.068115234375
7.3499999,9.624691009521484,0.22744916379451752,-2.0374655723571777,-0.9613037109375,1.40380859375,0.3204345703125
7.369999900000001,9.62947940826416,0.19871874153614044,-2.0183119773864746,-1.2359619140625,1.0223388671875,-0.3204345703125
7.3899999,9.641449928283691,0.181959331035614,-2.0231003761291504,-1.2664794921875,-0.0762939453125,-1.15966796875
7.409999900000001,9.646238327026367,0.17238251864910126,-2.0254945755004883,0.3662109375,1.15966796875,-0.152587890625
7.4299999,9.651026725769043,0.17717093229293823,-2.0374655723571777,0.4425048828125,2.0751953125,0.3204345703125
7.449999900000001,9.646238327026367,0.20350714027881622,-2.0614075660705566,-1.5106201171875,0.7781982421875,-1.129150390625
7.4699999,9.639056205749512,0.20350714027881622,-2.0446481704711914,-0.4425048828125,2.227783203125,0.30517578125
7.489999900000001,9.62947940826416,0.2059013396501541,-2.0422539710998535,-0.244140625,1.617431640625,0.5645751953125
7.5099999,9.619902610778809,0.2059013396501541,-2.0207061767578125,-1.4801025390625,0.8544921875,-0.946044921875
7.529999900000001,9.612719535827637,0.19393034279346466,-1.9991583824157715,-0.7476806640625,1.4801025390625,-0.396728515625
7.5499999,9.607931137084961,0.19632454216480255,-1.9919757843017578,-0.2593994140625,0.8544921875,0
7.569999900000001,9.607931137084961,0.2059013396501541,-1.987187385559082,-0.4425048828125,1.0528564453125,-0.2899169921875
7.5899999000000005,9.607931137084961,0.21308395266532898,-1.9967641830444336,-0.457763671875,0.8392333984375,-0.244140625
7.609999900000001,9.615114212036133,0.22026655077934265,-1.9991583824157715,-0.335693359375,1.220703125,0.0762939453125
7.6299999000000005,9.624691009521484,0.2298433631658554,-2.0039467811584473,-0.579833984375,0.6256103515625,-0.2899169921875
7.649999900000001,9.62947940826416,0.2298433631658554,-2.0015525817871094,0.579833984375,0.1373291015625,0.0457763671875
7.6699999000000005,9.641449928283691,0.21547815203666687,-2.0015525817871094,0.946044921875,0.5035400390625,0.9002685546875
7.6899999,9.641449928283691,0.20111294090747833,-2.0015525817871094,-0.7171630859375,0.7781982421875,-0.4425048828125
7.709999900000001,9.636661529541016,0.18914192914962769,-2.0015525817871094,-0.4119873046875,0.79345703125,-0.885009765625
7.7299999,9.63187313079834,0.19393034279346466,-2.013523578643799,-0.2899169921875,0.579833984375,-0.5645751953125
7.749999900000001,9.627084732055664,0.21547815203666687,-2.0159177780151367,-0.0152587890625,1.2054443359375,0.457763671875
7.7699999,9.624691009521484,0.24181437492370605,-2.0254945755004883,-0.2288818359375,1.40380859375,0.7781982421875
7.789999900000001,9.627084732055664,0.26096799969673157,-2.032677173614502,-1.0833740234375,0.48828125,0.4730224609375
7.8099999,9.624691009521484,0.23942017555236816,-2.0183119773864746,-0.091552734375,1.220703125,1.312255859375
7.829999900000001,9.624691009521484,0.21787235140800476,-2.011129379272461,-0.1220703125,0.640869140625,0.18310546875
7.8499999,9.627084732055664,0.19153612852096558,-2.011129379272461,-0.4425048828125,0.0762939453125,-0.8697509765625
7.869999900000001,9.62947940826416,0.1843535304069519,-2.006340980529785,0.030517578125,0.9918212890625,-0.2899169921875
7.8899999,9.63187313079834,0.19632454216480255,-2.0207061767578125,0.3509521484375,0.8544921875,0.335693359375
7.909999900000001,9.634267807006836,0.2106897532939911,-2.027888774871826,0.030517578125,0.8697509765625,0.6561279296875
7.9299999,9.63187313079834,0.21547815203666687,-2.030282974243164,-0.4425048828125,0.9613037109375,0.06103515625
7.949999900000001,9.627084732055664,0.2106897532939911,-2.0231003761291504,-0.2593994140625,0.885009765625,-0.4119873046875
7.9699999,9.627084732055664,0.2082955539226532,-2.0159177780151367,0.030517578125,0.762939453125,-0.4119873046875
7.989999900000001,9.627084732055664,0.2059013396501541,-2.008735179901123,0.48828125,0.3204345703125,0.2899169921875
8.0099999,9.624691009521484,0.21308395266532898,-2.0039467811584473,0.1220703125,0.8087158203125,0.0762939453125
8.0299999,9.624691009521484,0.21308395266532898,-2.0183119773864746,-0.2899169921875,0.48828125,-0.2288818359375
8.049999900000001,9.624691009521484,0.21787235140800476,-2.0183119773864746,-0.67138671875,1.434326171875,-0.030517578125
8.069999900000001,9.622296333312988,0.2106897532939911,-2.0207061767578125,0.0152587890625,1.5716552734375,0.2288818359375
8.0899999,9.627084732055664,0.22266076505184174,-2.027888774871826,-0.0762939453125,-0.091552734375,-0.4425048828125
8.1099999,9.627084732055664,0.22266076505184174,-2.008735179901123,0.579833984375,1.0223388671875,0.335693359375
8.129999900000001,9.62947940826416,0.21787235140800476,-2.008735179901123,0.8544921875,0.9918212890625,0.9307861328125
8.149999900000001,9.634267807006836,0.21787235140800476,-2.011129379272461,-0.640869140625,0.48828125,-0.3509521484375
8.1699999,9.62947940826416,0.2082955539226532,-2.0015525817871094,-0.4730224609375,1.1138916015625,-0.2593994140625
8.1899999,9.63187313079834,0.20111294090747833,-2.011129379272461,-0.396728515625,0.7171630859375,-0.0152587890625
8.2099999,9.636661529541016,0.2059013396501541,-2.011129379272461,-0.457763671875,0.48828125,-0.335693359375
8.229999900000001,9.63187313079834,0.2082955539226532,-2.0207061767578125,-0.4425048828125,0.946044921875,0.0762939453125
8.2499999,9.62947940826416,0.21787235140800476,-2.0254945755004883,-0.3814697265625,1.28173828125,0.335693359375
8.2699999,9.627084732055664,0.21308395266532898,-2.03507137298584,0,1.1749267578125,0.7171630859375
8.2899999,9.624691009521484,0.21547815203666687,-2.0374655723571777,-0.5340576171875,1.28173828125,-0.1983642578125
8.309999900000001,9.624691009521484,0.21308395266532898,-2.030282974243164,-0.7476806640625,1.4190673828125,-0.4425048828125
8.3299999,9.627084732055664,0.2059013396501541,-2.0231003761291504,0.4119873046875,0.8392333984375,0.4425048828125
8.3499999,9.627084732055664,0.21308395266532898,-2.011129379272461,0.2593994140625,0.3814697265625,0.030517578125
8.3699999,9.627084732055664,0.2059013396501541,-2.011129379272461,-0.5035400390625,0.6866455078125,-0.2899169921875
8.389999900000001,9.63187313079834,0.19632454216480255,-2.008735179901123,-0.244140625,1.3275146484375,-0.1220703125
8.4099999,9.62947940826416,0.19871874153614044,-2.0207061767578125,-0.7781982421875,0.8544921875,-0.91552734375
8.4299999,9.634267807006836,0.2082955539226532,-2.0231003761291504,-1.15966796875,0.91552734375,-0.79345703125
8.4499999,9.63187313079834,0.2346317619085312,-2.0374655723571777,-0.457763671875,0.9613037109375,0.5950927734375
8.469999900000001,9.63187313079834,0.2585737705230713,-2.0422539710998535,-0.6103515625,2.227783203125,1.15966796875
8.4899999,9.63187313079834,0.2561795711517334,-2.0398597717285156,-1.1444091796875,2.3651123046875,1.3275146484375
8.5099999,9.62947940826416,0.2322375625371933,-2.0159177780151367,-1.4190673828125,1.2969970703125,0.3814697265625
8.5299999,9.63187313079834,0.19871874153614044,-1.9823989868164062,-0.9613037109375,0.9613037109375,-0.4730224609375
8.549999900000001,9.634267807006836,0.16759411990642548,-1.968033790588379,-0.8697509765625,0.244140625,-0.640869140625
8.569999900000001,9.63187313079834,0.16519992053508759,-1.9584569931030273,-0.9613037109375,0.6866455078125,-0.701904296875
8.5899999,9.62947940826416,0.19153612852096558,-1.9847931861877441,-0.5035400390625,0.640869140625,-0.42724609375
8.6099999,9.624691009521484,0.21547815203666687,-1.9919757843017578,0.3814697265625,1.40380859375,0.946044921875
8.629999900000001,9.622296333312988,0.24181437492370605,-2.013523578643799,0.1068115234375,0.5340576171875,0.5645751953125
8.649999900000001,9.624691009521484,0.2561795711517334,-2.0159177780151367,-0.9307861328125,0.6103515625,-0.06103515625
8.6699999,9.62947940826416,0.24899697303771973,-2.008735179901123,0.1220703125,1.4190673828125,0.885009765625
8.6899999,9.63187313079834,0.23942017555236816,-2.011129379272461,0.5950927734375,0.2288818359375,0.6866455078125
8.709999900000001,9.634267807006836,0.22744916379451752,-2.0015525817871094,-0.030517578125,0.579833984375,0
8.729999900000001,9.634267807006836,0.2059013396501541,-2.0039467811584473,-0.54931640625,1.068115234375,0.030517578125
8.7499999,9.63187313079834,0.1843535304069519,-1.9967641830444336,-0.0762939453125,1.0528564453125,0.1220703125
8.7699999,9.62947940826416,0.1843535304069519,-1.9967641830444336,-0.1068115234375,0.06103515625,-0.9918212890625
8.7899999,9.627084732055664,0.19632454216480255,-2.0039467811584473,0.3814697265625,1.6326904296875,0.4119873046875
8.809999900000001,9.624691009521484,0.2082955539226532,-2.0207061767578125,0.274658203125,0.9613037109375,0.18310546875
8.8299999,9.624691009521484,0.21547815203666687,-2.0207061767578125,-0.3662109375,0.4730224609375,-0.7171630859375
8.8499999,9.627084732055664,0.21308395266532898,-2.0159177780151367,-0.335693359375,0.7781982421875,-0.5950927734375
8.8699999,9.62947940826416,0.21547815203666687,-2.0183119773864746,0.54931640625,0.8392333984375,-0.1373291015625
8.889999900000001,9.62947940826416,0.22744916379451752,-2.0159177780151367,0.1068115234375,0.6561279296875,-0.42724609375
8.9099999,9.627084732055664,0.22505496442317963,-2.011129379272461,0.1983642578125,1.0833740234375,0.0457763671875
8.9299999,9.624691009521484,0.2298433631658554,-2.0015525817871094,-0.0152587890625,0.9002685546875,-0.18310546875
8.9499999,9.627084732055664,0.24181437492370605,-2.008735179901123,-0.9613037109375,0.4119873046875,-0.7781982421875
8.969999900000001,9.62947940826416,0.23702596127986908,-2.008735179901123,0.3204345703125,1.2054443359375,0.8087158203125
8.9899999,9.63187313079834,0.24181437492370605,-2.008735179901123,0.579833984375,1.434326171875,0.42724609375
9.0099999,9.634267807006836,0.2322375625371933,-2.0159177780151367,0.457763671875,0.152587890625,-0.1373291015625
9.0299999,9.63187313079834,0.2106897532939911,-2.0039467811584473,0.30517578125,0.579833984375,0.1220703125
9.049999900000001,9.627084732055664,0.2059013396501541,-2.006340980529785,-0.06103515625,0.8087158203125,-0.7476806640625
9.069999900000001,9.624691009521484,0.2059013396501541,-2.013523578643799,-0.152587890625,0.3509521484375,-0.8392333984375
9.0899999,9.617507934570312,0.22505496442317963,-2.0231003761291504,0.0152587890625,0.6103515625,-0.1068115234375
9.1099999,9.617507934570312,0.23702596127986908,-2.0159177780151367,1.0223388671875,1.251220703125,0.6561279296875
9.129999900000001,9.617507934570312,0.24181437492370605,-2.0254945755004883,1.7242431640625,0.1678466796875,0.67138671875
9.149999900000001,9.619902610778809,0.2346317619085312,-2.013523578643799,0.2288818359375,0.9307861328125,-0.2593994140625
9.1699999,9.622296333312988,0.22026655077934265,-2.0207061767578125,-0.6103515625,1.0528564453125,-0.2899169921875
9.1899999,9.622296333312988,0.2298433631658554,-2.027888774871826,-0.2899169921875,0.4119873046875,-0.762939453125
9.209999900000001,9.619902610778809,0.24420857429504395,-2.0254945755004883,0.762939453125,1.0986328125,0.3814697265625
9.229999900000001,9.617507934570312,0.2801215946674347,-2.0159177780151367,0.6866455078125,1.1749267578125,1.4190673828125
9.2499999,9.603142738342285,0.36152446269989014,-2.032677173614502,-0.3814697265625,-0.3204345703125,2.105712890625
9.2699999,9.583989143371582,0.4668693244457245,-2.006340980529785,1.8768310546875,1.678466796875,6.927490234375
9.2899999,9.591172218322754,0.6272808313369751,-1.946485996246338,3.72314453125,1.312255859375,12.6953125
9.309999900000001,9.59835433959961,0.8140285611152649,-1.965639591217041,3.84521484375,-6.1492919921875,17.608642578125
9.3299999,9.610325813293457,1.070208191871643,-1.9345149993896484,-0.152587890625,-3.204345703125,23.223876953125
9.3499999,9.586383819580078,1.2689268589019775,-1.8914192914962769,-1.556396484375,2.716064453125,36.651611328125
9.3699999,9.59835433959961,1.158793568611145,-1.764526605606079,0.030517578125,-0.2288818359375,51.81884765625
9.389999900000001,9.588777542114258,0.7398083209991455,-1.6280571222305298,-13.1683349609375,-12.7410888671875,37.4755859375
9.4099999,9.651026725769043,0.1604115068912506,-1.4628572463989258,-31.2347412109375,-12.176513671875,3.2958984375
9.4299999,9.6989107131958,-0.3878606855869293,-1.4963760375976562,-30.2276611328125,-9.9334716796875,-2.532958984375
9.4499999,9.734824180603027,-0.6512228846549988,-1.699883222579956,-18.6920166015625,-7.50732421875,10.589599609375
9.469999900000001,9.720458984375,-0.7398083209991455,-1.9560627937316895,-7.080078125,1.5106201171875,22.6287841796875
9.4899999,9.68933391571045,-0.8595184087753296,-2.2194249629974365,-5.1116943359375,4.3487548828125,19.989013671875
9.5099999,9.684545516967773,-1.173158884048462,-2.473210334777832,-0.5950927734375,-1.5869140625,14.3890380859375
9.5299999,9.75637149810791,-1.6328455209732056,-2.7533318996429443,5.5694580078125,-2.3193359375,6.4849853515625
9.549999900000001,9.8784761428833,-2.22660756111145,-3.1220390796661377,15.2587890625,7.3089599609375,-0.335693359375
9.569999900000001,10.04846477508545,-2.9161376953125,-3.442862033843994,27.5726318359375,24.4598388671875,-8.8958740234375
9.5899999,10.259154319763184,-3.799597978591919,-3.6750996112823486,42.144775390625,32.0281982421875,-25.238037109375
9.6099999,10.563218116760254,-4.948814868927002,-3.708618402481079,66.1773681640625,34.1949462890625,-49.8046875
9.629999900000001,10.831368446350098,-6.509834289550781,-3.3231520652770996,96.4813232421875,52.30712890625,-79.742431640625
9.649999900000001,10.958261489868164,-7.95832633972168,-2.5713725090026855,101.1199951171875,57.861328125,-149.0936279296875
9.6699999,10.730812072753906,-8.576030731201172,-1.8626888990402222,86.883544921875,25.5279541015625,-234.9853515625
9.6899999,9.99339771270752,-7.888894557952881,-1.3431471586227417,92.620849609375,15.07568359375,-263.4735107421875
9.709999900000001,8.674192428588867,-5.365406036376953,-1.094150185585022,95.0164794921875,37.5823974609375,-261.7950439453125
9.729999900000001,6.971915245056152,-1.2306196689605713,-1.1779472827911377,68.450927734375,27.984619140625,-263.702392578125
9.7499999,5.157110691070557,4.1395745277404785,-1.525106430053711,39.8406982421875,-17.2576904296875,-226.5777587890625
9.7699999,3.5913026332855225,10.141838073730469,-2.1356279850006104,20.7977294921875,-28.5491943359375,-126.0528564453125
9.7899999,2.3582887649536133,16.04115104675293,-2.980781078338623,2.8076171875,4.5013427734375,18.7530517578125
9.809999900000001,1.558625340461731,20.66196060180664,-3.5649664402008057,-19.5159912109375,38.3758544921875,178.5888671875
9.8299999,0.9672574996948242,23.175872802734375,-4.003105163574219,-88.3941650390625,-7.5531005859375,293.609619140625
9.8499999,0.5410895943641663,23.190237045288086,-4.0749311447143555,-212.982177734375,-67.7947998046875,340.4693603515625
9.8699999,0.5051765441894531,19.967641830444336,-4.656722068786621,-262.176513671875,-95.428466796875,408.63037109375
9.889999900000001,1.0031704902648926,14.300566673278809,-5.978321552276611,-238.7847900390625,-69.7784423828125,446.929931640625
9.9099999,1.9273324012756348,6.6846113204956055,-7.144298076629639,-178.52783203125,26.5655517578125,424.98779296875
9.9299999,3.426102638244629,-1.6136919260025024,-7.60637903213501,-147.2930908203125,89.8895263671875,354.0496826171875
9.9499999,5.097255229949951,-9.533711433410645,-7.0772600173950195,-122.711181640625,55.3131103515625,269.6685791015625
9.969999900000001,6.722918510437012,-16.369157791137695,-5.475539207458496,-45.5780029296875,53.2684326171875,185.8978271484375
9.9899999,7.994239330291748,-21.904550552368164,-3.3207578659057617,56.9000244140625,94.8944091796875,80.963134765625
10.0099999,8.753201484680176,-26.05609703063965,-1.0869675874710083,117.7978515625,75.8819580078125,-55.5419921875
10.0299999,8.604761123657227,-28.720844268798828,0.5793967843055725,151.6571044921875,-8.0108642578125,-199.737548828125
10.049999900000001,7.534552574157715,-29.261932373046875,1.501164436340332,190.7196044921875,-30.21240234375,-347.442626953125
10.069999900000001,5.559336185455322,-27.473464965820312,1.2641384601593018,220.03173828125,-20.9197998046875,-470.367431640625
10.0899999,2.8179752826690674,-23.116018295288086,0.0694318488240242,232.8643798828125,-52.5360107421875,-500
10.1099999,-0.1604115068912506,-16.225505828857422,-1.6089035272598267,225.5859375,-96.649169921875,-500
10.129999900000001,-2.8227639198303223,-7.556100368499756,-3.4979286193847656,191.40625,-111.38916015625,-500
10.149999900000001,-4.63517427444458,2.1595699787139893,-5.377377033233643,146.7742919921875,-84.259033203125,-473.175048828125
10.1699999,-5.288791656494141,12.00452709197998,-7.108384609222412,103.6376953125,-50.9490966796875,-337.3565673828125
10.1899999,-4.8722004890441895,20.951658248901367,-8.497021675109863,63.7054443359375,-21.820068359375,-140.1519775390625
10.209999900000001,-3.7708675861358643,27.308263778686523,-8.865729331970215,39.5355224609375,43.64013671875,88.470458984375
10.229999900000001,-2.3702597618103027,30.37284278869629,-8.152256965637207,-4.9896240234375,64.5904541015625,224.212646484375
10.2499999,-1.2114660739898682,30.73197364807129,-6.672640323638916,-115.814208984375,-24.0020751953125,231.7352294921875
10.2699999,-0.8547300100326538,29.28826904296875,-5.406107425689697,-238.739013671875,-125.457763671875,291.412353515625
10.2899999,-1.8195933103561401,26.400861740112305,-5.190629482269287,-293.1671142578125,-153.1219482421875,493.2861328125
10.309999900000001,-4.98472785949707,13.728352546691895,-9.828198432922363,-181.304931640625,-93.26171875,499.9847412109375
10.3299999,-5.913678169250488,1.8698714971542358,-11.291055679321289,34.8663330078125,178.52783203125,499.9847412109375
10.3499999,-5.485116004943848,-11.583148002624512,-10.678139686584473,-13.031005859375,257.50732421875,482.48291015625
10.3699999,-3.8115692138671875,-23.846248626708984,-7.575253963470459,-107.147216796875,92.1783447265625,101.1505126953125
10.389999900000001,-1.0534487962722778,-32.22116470336914,-3.339911460876465,-8.6517333984375,-1.3427734375,-71.35009765625
10.4099999,2.030282974243164,-35.55389404296875,-0.002394201699644327,98.6785888671875,11.199951171875,-185.4400634765625
10.4299999,4.242525577545166,-35.07984161376953,0.9744400978088379,127.0751953125,-0.518798828125,-292.78564453125
10.4499999,5.082890033721924,-31.979352951049805,0.8667010068893433,164.00146484375,39.703369140625,-407.073974609375
10.469999900000001,4.28322696685791,-27.238832473754883,-0.18914192914962769,233.2916259765625,31.6314697265625,-500
10.4899999,1.8100165128707886,-21.167137145996094,-1.7477672100067139,272.0947265625,-74.9664306640625,-500
10.5099999,-1.8626888990402222,-12.926295280456543,-3.531447410583496,206.451416015625,-119.5068359375,-500
10.5299999,-5.544970989227295,-2.032677173614502,-5.8203043937683105,106.6436767578125,-71.5789794921875,-500
10.549999900000001,-7.955932140350342,10.319009780883789,-7.5417351722717285,91.9342041015625,50.5218505859375,-500
10.569999900000001,-8.614337921142578,21.006725311279297,-7.790732383728027,156.2652587890625,106.50634765625,-83.3740234375
10.5899999,-7.189787864685059,28.658594131469727,-7.1251444816589355,89.263916015625,5.0048828125,72.0367431640625
10.6099999,-4.726154327392578,32.108638763427734,-5.643133640289307,-24.9786376953125,-31.4178466796875,82.8857421875
10.629999900000001,-2.341529369354248,32.28102111816406,-4.774038314819336,-64.8193359375,-0.7781982421875,224.3194580078125
10.649999900000001,-1.161187767982483,30.875625610351562,-4.496310710906982,-104.43115234375,2.471923828125,414.093017578125
10.6699999,-1.4652514457702637,27.559656143188477,-4.666299343109131,-180.206298828125,-25.421142578125,499.9847412109375
10.6899999,-2.5929205417633057,21.696256637573242,-5.92325496673584,-276.8707275390625,-100.4180908203125,499.9847412109375
10.709999900000001,-4.20421838760376,13.177685737609863,-8.109161376953125,-289.97802734375,-92.620849609375,499.9847412109375
10.729999900000001,-5.262455463409424,2.669534921646118,-9.72285270690918,-100.2197265625,132.598876953125,499.9847412109375
10.7499999,-4.953603267669678,-8.33182144165039,-9.775525093078613,-19.378662109375,290.10009765625,499.9847412109375
10.7699999,-3.488351821899414,-18.854337692260742,-7.738059997558594,-65.7958984375,160.9344482421875,396.42333984375
10.7899999,-0.8786720037460327,-27.806259155273438,-4.271255970001221,-20.5230712890625,61.5234375,141.6778564453125
10.809999900000001,2.099714994430542,-34.33285140991211,-0.8690952062606812,46.5850830078125,109.466552734375,-128.143310546875
10.8299999,4.414907932281494,-37.524322509765625,1.4053963422775269,108.673095703125,117.61474609375,-341.1712646484375
10.8499999,5.1116204261779785,-37.31363296508789,2.296039342880249,182.861328125,38.4063720703125,-461.97509765625
10.8699999,3.7038300037384033,-33.54515838623047,2.1523873805999756,220.947265625,-4.0435791015625,-500
10.889999900000001,0.1843535304069519,-26.78872299194336,1.0438719987869263,202.4078369140625,5.523681640625,-500
10.9099999,-4.750096321105957,-17.709909439086914,-0.6943184733390808,189.6209716796875,-3.8909912109375,-500
10.9299999,-9.952696800231934,-6.567295074462891,-2.367865562438965,164.7796630859375,-45.2728271484375,-500
10.9499999,-13.73074722290039,5.8657941818237305,-3.531447410583496,121.368408203125,-47.8363037109375,-500
10.969999900000001,-15.023615837097168,18.22705841064453,-4.199429988861084,97.747802734375,-17.4560546875,-393.2952880859375
10.9899999,-13.637372970581055,28.213272094726562,-3.9815573692321777,128.082275390625,16.6778564453125,-33.9508056640625
11.0099999,-10.398017883300781,35.10378646850586,-3.375824451446533,86.334228515625,-23.345947265625,170.8984375
11.0299999,-6.921637058258057,38.81240463256836,-3.069366693496704,-38.1011962890625,-88.0889892578125,248.291015625
11.049999900000001,-4.960785865783691,38.6831169128418,-3.40216064453125,-79.1778564453125,-60.7757568359375,482.757568359375
11.069999900000001,-5.027823448181152,35.094207763671875,-4.632780075073242,-74.6002197265625,14.556884765625,499.9847412109375
11.0899999,-6.766014099121094,27.394454956054688,-6.157886981964111,-141.1590576171875,41.93115234375,499.9847412109375
11.1099999,-8.628703117370605,15.787365913391113,-7.151480674743652,-208.1298828125,51.9561767578125,499.9847412109375
11.129999900000001,-9.35654067993164,2.5785553455352783,-7.5632829666137695,-212.982177734375,58.4564208984375,499.9847412109375
11.149999900000001,-8.248024940490723,-9.854534149169922,-6.8593878746032715,-131.9122314453125,114.7918701171875,493.896484375
11.1699999,-5.568912982940674,-19.879056930541992,-5.3127336502075195,-66.7877197265625,158.7677001953125,411.529541015625
11.1899999,-2.3535003662109375,-27.372907638549805,-2.892195701599121,-15.7470703125,136.1846923828125,289.36767578125
11.209999900000001,0.363918662071228,-32.93463897705078,0.4189853072166443,91.36962890625,116.4398193359375,125.8697509765625
11.229999900000001,1.9345149993896484,-36.796485900878906,4.165910720825195,185.7452392578125,60.6842041015625,-101.2420654296875
11.2499999,1.7741034030914307,-38.137237548828125,6.7277069091796875,177.734375,-126.8463134765625,-399.7344970703125
11.2699999,-0.07182604819536209,-36.34158706665039,7.139509677886963,154.541015625,-260.6658935546875,-500
11.2899999,-3.179499864578247,-30.940269470214844,5.137956619262695,148.590087890625,-193.42041015625,-500
11.309999900000001,-7.184999465942383,-22.498313903808594,1.0869675874710083,158.233642578125,-119.964599609375,-500
11.3299999,-11.35809326171875,-11.355698585510254,-3.0765492916107178,118.34716796875,-111.51123046875,-500
11.3499999,-14.43224811553955,2.0183119773864746,-6.086060523986816,31.18896484375,-107.60498046875,-500
11.3699999,-15.476119995117188,16.58463478088379,-7.63989782333374,13.671875,-63.4307861328125,-500
11.389999900000001,-14.369998931884766,29.257144927978516,-7.405265808105469,101.7608642578125,26.06201171875,-159.0423583984375
11.4099999,-11.279084205627441,37.6368522644043,-6.203376770019531,107.9254150390625,24.932861328125,245.6817626953125
11.4299999,-7.819462776184082,41.37419891357422,-4.675876140594482,-47.8057861328125,-46.5850830078125,223.907470703125
11.4499999,-5.252878665924072,39.166744232177734,-3.5673606395721436,-94.8028564453125,-59.2498779296875,376.15966796875
11.469999900000001,-4.228160381317139,33.87077331542969,-3.0837318897247314,-106.0028076171875,-17.8985595703125,499.9847412109375
11.4899999,-4.611232280731201,26.13510513305664,-3.5625722408294678,-219.5587158203125,-59.0057373046875,499.9847412109375
11.5099999,-5.118803024291992,16.77377700805664,-5.044582843780518,-311.553955078125,-139.7857666015625,499.9847412109375
11.5299999,-5.537788391113281,6.754043102264404,-7.2783732414245605,-270.9503173828125,-120.78857421875,499.9847412109375
11.549999900000001,-5.094861030578613,-3.35667085647583,-8.93037223815918,-74.64599609375,88.897705078125,499.9847412109375
11.569999900000001,-3.7469255924224854,-12.914323806762695,-9.188945770263672,20.4010009765625,217.7886962890625,499.9847412109375
11.5899999,-1.8387469053268433,-22.129606246948242,-7.134721279144287,0.79345703125,143.06640625,410.308837890625
11.6099999,0.15322890877723694,-30.097509384155273,-3.488351821899414,52.91748046875,46.630859375,176.4984130859375
11.629999900000001,1.8052281141281128,-35.71430587768555,0.4118026793003082,112.152099609375,32.9742431640625,-102.11181640625
11.649999900000001,2.3127987384796143,-37.55544662475586,3.066972494125366,115.0360107421875,-18.24951171875,-395.538330078125
11.6699999,1.656787633895874,-35.35517501831055,4.101267337799072,134.21630859375,-87.066650390625,-500
11.6899999,0.22026655077934265,-29.554025650024414,3.6080620288848877,200.98876953125,-99.9755859375,-500
11.709999900000001,-1.5729905366897583,-21.63161277770996,1.6543933153152466,245.3155517578125,-113.8458251953125,-500
11.729999900000001,-3.536235809326172,-13.050793647766113,-1.048660397529602,215.240478515625,-139.862060546875,-500
11.7499999,-5.568912982940674,-4.314351558685303,-3.7852327823638916,169.8760986328125,-132.6446533203125,-500
11.7699999,-7.163451671600342,4.7620673179626465,-6.021417140960693,137.6953125,-102.4932861328125,-500
11.7899999,-7.841010570526123,14.183250427246094,-7.608773231506348,120.635986328125,-80.6884765625,-489.288330078125
11.809999900000001,-7.422025203704834,23.45838737487793,-8.422801971435547,75.2105712890625,-40.0848388671875,-204.89501953125
11.8299999,-4.20421838760376,34.75423049926758,-7.371747016906738,5.06591796875,44.6014404296875,330.8258056640625
11.8499999,-2.499546527862549,35.14927673339844,-5.949591159820557,-87.6922607421875,-10.0250244140625,400.2685546875
11.8699999,-1.6687586307525635,31.991323471069336,-5.365406036376953,-252.9144287109375,-101.1505126953125,422.698974609375
11.889999900000001,-1.946485996246338,26.513389587402344,-5.971138954162598,-340.33203125,-120.941162109375,499.9847412109375
11.9099999,-3.2992098331451416,19.7377986907959,-8.015787124633789,-303.4210205078125,-53.2684326171875,499.9847412109375
11.9299999,-5.52821159362793,11.200075149536133,-9.938331604003906,-160.82763671875,55.8013916015625,499.9847412109375
11.9499999,-7.29034423828125,0.8762778043746948,-10.218452453613281,-10.467529296875,180.023193359375,499.9847412109375
11.969999900000001,-7.687781810760498,-10.824186325073242,-8.355764389038086,35.247802734375,201.5533447265625,499.9847412109375
11.9899999,-6.682217121124268,-22.677879333496094,-4.568136692047119,78.7353515625,163.14697265625,421.966552734375
12.0099999,-4.606443881988525,-32.520442962646484,0.004788403399288654,114.1204833984375,108.795166015625,71.197509765625
12.0299999,-2.470816135406494,-37.9289436340332,3.5051112174987793,99.5941162109375,-17.4102783203125,-296.0662841796875
12.049999900000001,-0.9864110946655273,-38.13963317871094,5.477933406829834,142.0135498046875,-87.188720703125,-413.604736328125
12.069999900000001,-0.21308395266532898,-33.76063919067383,5.810727596282959,235.5499267578125,-80.7342529296875,-389.434814453125
12.0899999,-0.14844051003456116,-26.98025894165039,4.1874589920043945,297.5311279296875,-142.608642578125,-411.285400390625
12.1099999,-0.9217676520347595,-19.953277587890625,1.3646949529647827,291.68701171875,-222.564697265625,-500
12.129999900000001,-2.8107926845550537,-12.947842597961426,-1.7549498081207275,215.88134765625,-185.6231689453125,-500
12.149999900000001,-5.398924827575684,-5.2265424728393555,-4.944026470184326,158.50830078125,-145.2484130859375,-500
12.1699999,-7.936778545379639,4.280832767486572,-7.666234016418457,114.166259765625,-174.3316650390625,-500
12.1899999,-9.27034854888916,15.993267059326172,-9.265560150146484,1.3275146484375,-122.5128173828125,-500
12.209999900000001,-8.676587104797363,27.138277053833008,-9.746794700622559,32.9742431640625,20.6298828125,-186.309814453125
12.229999900000001,-6.643909931182861,34.909854888916016,-9.155426979064941,70.9991455078125,58.990478515625,240.1885986328125
12.2499999,-4.065354347229004,38.66875076293945,-7.876923561096191,-86.36474609375,-5.8441162109375,272.3846435546875
12.2699999,-2.5761611461639404,37.24180603027344,-6.22731876373291,-210.87646484375,-41.839599609375,333.1146240234375
12.289999900000002,-2.7054479122161865,32.09427261352539,-4.857835292816162,-226.409912109375,-42.90771484375,499.9847412109375
12.309999900000001,-4.460397720336914,24.47113609313965,-4.1156325340271,-264.5416259765625,-107.391357421875,499.9847412109375
12.3299999,-6.586448669433594,15.174449920654297,-4.611232280731201,-324.920654296875,-205.6121826171875,499.9847412109375
12.3499999,-8.374917984008789,5.22175407409668,-6.033388137817383,-259.8419189453125,-186.1114501953125,499.9847412109375
12.3699999,-8.616731643676758,-4.3191399574279785,-7.441178798675537,-52.001953125,7.4005126953125,499.9847412109375
12.389999900000001,-7.613561630249023,-13.168108940124512,-8.40843677520752,14.2059326171875,89.0045166015625,499.9847412109375
12.4099999,-5.434837818145752,-21.660343170166016,-7.592013359069824,53.5430908203125,85.3424072265625,499.9847412109375
12.4299999,-2.580949544906616,-29.2978458404541,-5.442020416259766,63.0645751953125,73.05908203125,241.0888671875
12.4499999,0.4357447028160095,-35.146881103515625,-2.9496564865112305,79.925537109375,24.444580078125,-58.929443359375
12.469999900000001,2.851494312286377,-38.68551254272461,-1.1994950771331787,170.166015625,-36.80419921875,-222.5494384765625
12.4899999,3.7277719974517822,-39.03746032714844,-0.6392518281936646,219.635009765625,-48.40087890625,-399.200439453125
12.5099999,2.477998733520508,-36.18596267700195,-1.2737152576446533,208.465576171875,-16.876220703125,-500
12.5299999,-0.8882488012313843,-30.207643508911133,-2.6240451335906982,217.3004150390625,-16.2200927734375,-500
12.549999900000001,-5.585672378540039,-21.2485408782959,-4.120420932769775,186.46240234375,-55.0537109375,-500
12.569999900000001,-10.371682167053223,-9.940725326538086,-5.245696067810059,138.85498046875,-56.1676025390625,-500
12.5899999,-13.572729110717773,2.9951462745666504,-5.966350555419922,98.968505859375,-7.3089599609375,-500
12.6099999,-14.391546249389648,16.431406021118164,-6.09324312210083,68.634033203125,28.106689453125,-500
12.629999900000001,-12.876016616821289,27.803863525390625,-5.20978307723999,90.27099609375,60.6689453125,-56.2286376953125
12.649999900000001,-9.591172218322754,34.337642669677734,-3.5051112174987793,111.8316650390625,42.938232421875,322.3876953125
12.6699999,-5.497087001800537,36.43975067138672,-1.3646949529647827,-5.7525634765625,-26.2451171875,312.8814697265625
12.6899999,-2.140416383743286,33.74387741088867,-0.42377370595932007,-138.214111328125,-139.190673828125,311.5234375
12.709999900000001,0.1173158809542656,27.99540138244629,-1.0079588890075684,-152.40478515625,-134.735107421875,499.9847412109375
12.729999900000001,0.8427590131759644,21.071369171142578,-3.378218650817871,-190.948486328125,-64.056396484375,499.9847412109375
12.7499999,0.28730419278144836,12.698845863342285,-6.636727333068848,-221.160888671875,-21.1334228515625,499.9847412109375
12.7699999,-0.7781155705451965,3.3925838470458984,-8.848969459533691,-139.862060546875,63.6749267578125,499.9847412109375
12.789999900000002,-1.4915876388549805,-6.052541732788086,-9.469067573547363,-56.7474365234375,139.617919921875,499.9847412109375
12.809999900000001,-1.659181833267212,-15.320496559143066,-8.058882713317871,18.6767578125,176.7578125,499.9847412109375
12.8299999,-1.158793568611145,-24.028207778930664,-4.613626480102539,141.90673828125,229.3243408203125,386.6119384765625
12.8499999,-0.26096799969673157,-31.450233459472656,0.272938996553421,210.2203369140625,189.6514892578125,98.6480712890625
12.8699999,0.42616790533065796,-36.20272445678711,5.03021764755249,179.13818359375,-25.146484375,-229.79736328125
12.889999900000001,0.47165772318840027,-37.18195343017578,7.888894557952881,163.4368896484375,-212.95166015625,-457.977294921875
12.9099999,-0.38307225704193115,-34.069488525390625,8.209717750549316,184.8907470703125,-190.9637451171875,-500
12.9299999,-2.2361843585968018,-27.672183990478516,5.750872611999512,209.9761962890625,-131.4239501953125,-500
12.9499999,-5.0014872550964355,-19.227834701538086,2.0614075660705566,187.56103515625,-155.2734375,-500
12.969999900000001,-8.044517517089844,-9.48343276977539,-1.3287819623947144,108.123779296875,-181.060791015625,-500
12.9899999,-10.623072624206543,1.1492167711257935,-4.017470359802246,58.380126953125,-176.8341064453125,-500
13.0099999,-11.827356338500977,12.945448875427246,-5.925649166107178,32.65380859375,-143.4783935546875,-500
13.0299999,-11.276689529418945,24.473529815673828,-6.785167694091797,33.8592529296875,-51.5899658203125,-228.424072265625
13.049999900000001,-9.198522567749023,32.90351486206055,-6.543353080749512,114.1815185546875,12.847900390625,239.2425537109375
13.069999900000001,-6.169857978820801,37.56741714477539,-5.518634796142578,28.80859375,-26.8096923828125,364.0899658203125
13.0899999,-3.5913026332855225,36.6719856262207,-4.730942726135254,-125.213623046875,-123.35205078125,397.9644775390625
13.1099999,-1.7812861204147339,31.265880584716797,-4.474762916564941,-184.8907470703125,-117.9046630859375,499.9847412109375
13.129999900000001,-1.0103530883789062,23.03940200805664,-5.384559631347656,-234.5733642578125,-95.5810546875,499.9847412109375
13.149999900000001,-0.9241618514060974,13.21359920501709,-6.933608055114746,-259.5062255859375,-95.5810546875,499.9847412109375
13.1699999,-0.7996633648872375,3.224989652633667,-8.367734909057617,-224.6856689453125,-67.6116943359375,499.9847412109375
13.1899999,-0.2777273952960968,-5.702988624572754,-9.315838813781738,-154.11376953125,-9.979248046875,499.9847412109375
13.209999900000001,0.6775590777397156,-13.26866626739502,-9.284713745117188,-26.7181396484375,84.28955078125,499.9847412109375
13.229999900000001,1.6711528301239014,-19.891027450561523,-7.872135162353516,143.6920166015625,181.1676025390625,499.9847412109375
13.2499999,2.3056161403656006,-26.01060676574707,-4.67827033996582,301.3153076171875,228.790283203125,368.0877685546875
13.2699999,2.31758713722229,-31.47417640686035,-0.13407529890537262,297.0123291015625,129.8980712890625,57.7392578125
13.289999900000002,1.4508862495422363,-34.545936584472656,3.8714241981506348,159.7442626953125,-105.6365966796875,-360.6414794921875
13.309999900000001,0.016759412363171577,-34.1149787902832,6.069301128387451,97.22900390625,-223.1903076171875,-500
13.3299999,-2.0470423698425293,-29.673736572265625,5.564124584197998,179.3365478515625,-171.9970703125,-500
13.3499999,-4.3406877517700195,-21.75371742248535,2.873042106628418,229.1412353515625,-128.7078857421875,-500
13.3699999,-8.08282470703125,-0.47165772318840027,-4.060565948486328,64.483642578125,-200.3173828125,-500
13.389999900000001,-8.513781547546387,11.15697956085205,-6.861782073974609,54.8095703125,-135.406494140625,-500
13.4099999,-7.647080421447754,22.081722259521484,-8.619126319885254,61.431884765625,-0.2899169921875,-240.90576171875
13.4299999,-5.9304375648498535,30.413543701171875,-9.066842079162598,122.61962890625,69.427490234375,107.177734375
13.4499999,-3.88818359375,34.857181549072266,-8.003816604614258,25.5889892578125,46.1883544921875,296.4630126953125
13.469999900000001,-2.2457611560821533,35.008018493652344,-6.289567947387695,-125.823974609375,-36.2548828125,359.4970703125
13.4899999,-1.2545616626739502,31.30179214477539,-4.891354084014893,-214.2333984375,-100.3875732421875,427.2308349609375
13.5099999,-0.6560112833976746,25.03616714477539,-5.147533416748047,-247.1466064453125,-124.6337890625,499.9847412109375
13.5299999,-0.23702596127986908,17.424999237060547,-7.4555439949035645,-271.6827392578125,-98.297119140625,499.9847412109375
13.549999900000001,-0.2992752194404602,8.523358345031738,-10.378864288330078,-170.166015625,55.35888671875,499.9847412109375
13.569999900000001,-0.5746083855628967,-1.0247182846069336,-12.107478141784668,1.3275146484375,269.8822021484375,499.9847412109375
13.5899999,-1.094150185585022,-10.503362655639648,-10.752359390258789,0.5950927734375,340.8203125,499.9847412109375
13.6099999,-1.460463047027588,-19.19431495666504,-6.071695327758789,7.4615478515625,225.6011962890625,337.09716796875
13.629999900000001,-1.2761094570159912,-26.25720977783203,0.05027823522686958,104.5989990234375,39.55078125,180.023193359375
13.649999900000001,-0.7422025203704834,-31.28742790222168,5.102043628692627,193.084716796875,-74.8138427734375,7.354736328125
13.6699999,-0.5291185975074768,-33.58586120605469,7.692570209503174,177.9937744140625,-84.564208984375,-244.964599609375
13.6899999,-0.9169792532920837,-32.42467498779297,7.9415669441223145,135.3607177734375,-69.5037841796875,-461.1663818359375
13.709999900000001,-1.8363527059555054,-28.115110397338867,6.576871871948242,220.2606201171875,-140.56396484375,-478.8055419921875
13.729999900000001,-2.873042106628418,-21.234174728393555,4.402936935424805,291.351318359375,-251.922607421875,-435.2874755859375
13.7499999,-3.4596214294433594,-13.136984825134277,1.479616641998291,248.779296875,-310.72998046875,-471.435546875
13.7699999,-3.4356794357299805,-5.1116204261779785,-2.3582887649536133,191.497802734375,-300.689697265625,-500
13.789999900000002,-2.8179752826690674,2.6024973392486572,-6.646304130554199,192.0318603515625,-227.9052734375,-473.5565185546875
13.809999900000001,-1.6136919260025024,10.426748275756836,-10.69489860534668,121.8414306640625,-133.8043212890625,-410.5682373046875
13.8299999,-0.2944868206977844,18.696321487426758,-13.723564147949219,-24.261474609375,-46.93603515625,-327.667236328125
13.8499999,0.7541735172271729,26.79351043701172,-14.901511192321777,-108.367919921875,59.9517822265625,-76.9805908203125
13.8699999,0.9744400978088379,32.62578582763672,-14.06114673614502,-131.04248046875,104.400634765625,286.8499755859375
13.889999900000001,0.33518823981285095,34.56748580932617,-12.040440559387207,-279.052734375,8.5296630859375,470.3369140625
13.9099999,-1.0055646896362305,31.768661499023438,-10.20648193359375,-481.781005859375,-129.7607421875,451.7059326171875
13.9299999,-2.7030537128448486,24.96912956237793,-9.457097053527832,-500,-162.3992919921875,483.4442138671875
13.9499999,-4.19224739074707,15.813702583312988,-9.792284965515137,-338.1195068359375,-83.6029052734375,499.9847412109375
13.969999900000001,-5.74129581451416,5.714959621429443,-10.158597946166992,-155.5938720703125,1.6937255859375,499.9847412109375
13.9899999,-6.912060260772705,-5.018246650695801,-9.188945770263672,34.942626953125,114.2120361328125,499.9847412109375
14.0099999,-7.2113356590271,-15.799337387084961,-6.469132900238037,120.147705078125,160.797119140625,499.9847412109375
14.0299999,-6.557718276977539,-25.555709838867188,-2.7533318996429443,96.7559814453125,71.533203125,377.99072265625
14.049999900000001,-4.977545261383057,-33.11899185180664,0.5554547905921936,125.732421875,-48.5382080078125,80.26123046875
14.069999900000001,-3.0382418632507324,-37.00957107543945,2.4827871322631836,145.1568603515625,-77.81982421875,-181.0455322265625
14.0899999,-1.53707754611969,-36.83479309082031,2.8131868839263916,131.866455078125,-45.6695556640625,-364.1204833984375
14.1099999,-1.0462661981582642,-33.04716491699219,2.0374655723571777,191.0552978515625,-55.7861328125,-423.187255859375
14.129999900000001,-1.3646949529647827,-26.67140769958496,1.3958195447921753,272.1405029296875,-101.715087890625,-448.73046875
14.149999900000001,-2.1116859912872314,-19.68752098083496,0.667982280254364,329.498291015625,-208.6029052734375,-461.12060546875
14.1699999,-3.179499864578247,-13.290213584899902,-0.6392518281936646,274.139404296875,-326.8585205078125,-500
14.1899999,-4.309563159942627,-7.33583402633667,-2.7437551021575928,141.448974609375,-311.0198974609375,-500
14.209999900000001,-5.1331682205200195,-1.4173674583435059,-5.772420406341553,94.879150390625,-220.1995849609375,-500
14.229999900000001,-5.592854976654053,5.475539207458496,-9.057265281677246,110.16845703125,-153.839111328125,-500
14.2499999,-5.377377033233643,14.051569938659668,-11.250353813171387,-24.4903564453125,-48.675537109375,-489.471435546875
14.2699999,-4.563348293304443,23.417686462402344,-12.078747749328613,-75.958251953125,54.62646484375,-197.93701171875
14.289999900000002,-3.6750996112823486,31.186870574951172,-11.097125053405762,-32.3333740234375,75.7293701171875,197.235107421875
14.309999900000001,-3.3063924312591553,34.65846252441406,-8.87291145324707,-31.8450927734375,33.1268310546875,499.9847412109375
14.3299999,-3.3710360527038574,32.970550537109375,-6.009446144104004,-155.029296875,-21.97265625,499.9847412109375
14.3499999,-3.646369218826294,26.465505599975586,-4.4292731285095215,-335.5712890625,-151.275634765625,458.3892822265625
14.3699999,-3.6343982219696045,18.04749298095703,-5.137956619262695,-416.9464111328125,-253.84521484375,462.4176025390625
14.389999900000001,-3.294421434402466,9.332598686218262,-7.706935405731201,-289.9017333984375,-149.322509765625,499.9847412109375
14.4099999,-2.7293899059295654,0.8690952062606812,-10.551246643066406,-32.3486328125,90.057373046875,499.9847412109375
14.4299999,-2.0015525817871094,-7.501033782958984,-11.906365394592285,56.732177734375,222.7783203125,499.9847412109375
14.4499999,-1.0749965906143188,-16.136919021606445,-10.374075889587402,39.764404296875,207.916259765625,499.9847412109375
14.469999900000001,0,-24.339454650878906,-6.6391215324401855,99.3194580078125,158.5693359375,303.5125732421875
14.4899999,1.091755986213684,-31.10546875,-2.0183119773864746,168.1976318359375,116.1346435546875,67.44384765625
14.5099999,1.6328455209732056,-35.04632568359375,1.9249382019042969,162.04833984375,24.2919921875,-227.4017333984375
14.5299999,1.455674648284912,-35.290531158447266,4.146757125854492,131.9122314453125,-69.2291259765625,-443.023681640625
14.549999900000001,0.6392518281936646,-31.933862686157227,4.460397720336914,191.436767578125,-78.4149169921875,-485.5194091796875
14.569999900000001,-0.629675030708313,-26.041732788085938,3.2106244564056396,268.37158203125,-66.8792724609375,-475.5706787109375
14.5899999,-2.255337953567505,-19.127277374267578,1.0582371950149536,258.5906982421875,-112.579345703125,-500
14.6099999,-4.168305397033691,-12.100295066833496,-1.259350061416626,195.7855224609375,-171.9207763671875,-500
14.629999900000001,-6.258443355560303,-4.8937482833862305,-3.5266590118408203,138.3056640625,-179.8858642578125,-500
14.649999900000001,-8.037335395812988,3.268085241317749,-5.686229228973389,64.9871826171875,-145.2178955078125,-500
14.6699999,-9.030928611755371,13.117831230163574,-7.587224960327148,-31.524658203125,-88.3941650390625,-500
14.6899999,-9.148244857788086,23.992294311523438,-8.42040729522705,-90.087890625,8.453369140625,-284.3170166015625
14.709999900000001,-8.537723541259766,32.67845916748047,-7.920019149780273,22.8424072265625,79.4525146484375,232.086181640625
14.729999900000001,-7.826645374298096,36.916194915771484,-6.234501361846924,43.6553955078125,44.9676513671875,499.9847412109375
14.7499999,-7.242460250854492,35.570655822753906,-3.576937437057495,-111.7095947265625,-34.1949462890625,499.9847412109375
14.7699999,-6.596025466918945,28.886043548583984,-1.9800047874450684,-261.5814208984375,-179.3365478515625,499.9847412109375
14.789999900000002,-5.262455463409424,20.003555297851562,-2.8610711097717285,-296.4324951171875,-276.0162353515625,499.9847412109375
14.809999900000001,-3.56017804145813,10.192116737365723,-5.7125654220581055,-166.839599609375,-134.765625,499.9847412109375
14.8299999,-1.290474772453308,0.4836287498474121,-9.186552047729492,2.9296875,136.016845703125,499.9847412109375
14.8499999,1.036689281463623,-8.638279914855957,-11.037269592285156,-22.88818359375,238.494873046875,495.819091796875
14.8699999,3.141192674636841,-16.76420021057129,-9.885659217834473,-29.0374755859375,188.1866455078125,332.4737548828125
14.889999900000001,5.69580602645874,-28.55803871154785,-2.0231003761291504,191.650390625,142.63916015625,88.8519287109375
14.9099999,5.485116004943848,-31.586702346801758,2.255337953567505,193.0694580078125,97.900390625,-168.7774658203125
14.9299999,4.151545524597168,-31.53642463684082,5.12119722366333,132.110595703125,-50.0946044921875,-424.25537109375
14.9499999,2.248155355453491,-28.56043243408203,6.435614109039307,197.052001953125,-121.124267578125,-458.9385986328125
14.969999900000001,0.3974374830722809,-23.03940200805664,5.861005783081055,282.3944091796875,-116.14990234375,-410.82763671875
14.9899999,-1.3239935636520386,-16.261417388916016,3.6080620288848877,278.7628173828125,-157.470703125,-449.4476318359375
15.0099999,-2.631227731704712,-8.949525833129883,0.6105214357376099,193.66455078125,-201.7059326171875,-500
15.0299999,-3.5218706130981445,-1.1635819673538208,-2.741360902786255,94.8333740234375,-214.1571044921875,-500
15.049999900000001,-3.8379054069519043,7.508216381072998,-6.054935932159424,36.6973876953125,-168.51806640625,-500
15.069999900000001,-3.5889084339141846,16.788143157958984,-8.604761123657227,-7.32421875,-51.8341064453125,-299.835205078125
15.0899999,-3.0190882682800293,25.28755760192871,-9.615114212036133,18.0816650390625,61.370849609375,14.312744140625
15.1099999,-2.607285737991333,31.11504554748535,-8.841787338256836,9.490966796875,60.6842041015625,290.5731201171875
15.129999900000001,-2.7748796939849854,33.1046257019043,-6.5912370681762695,-110.198974609375,-35.2630615234375,442.291259765625
15.149999900000001,-3.1890766620635986,30.583532333374023,-4.517858505249023,-243.34716796875,-153.900146484375,495.361328125
15.1699999,-3.6966474056243896,24.638729095458984,-4.436455726623535,-339.6759033203125,-247.4822998046875,499.9847412109375
15.1899999,-4.022258758544922,16.64927864074707,-6.3733649253845215,-327.301025390625,-194.061279296875,499.9847412109375
15.209999900000001,-3.622427225112915,8.003816604614258,-9.548076629638672,-264.373779296875,-70.159912109375,499.9847412109375
15.229999900000001,-2.853888511657715,-0.38307225704193115,-12.521675109863281,-224.365234375,-22.94921875,499.9847412109375
15.2499999,-1.8387469053268433,-8.808267593383789,-13.342885971069336,-31.402587890625,92.498779296875,499.9847412109375
15.2699999,-0.8044517636299133,-17.264589309692383,-11.793837547302246,182.8460693359375,234.283447265625,499.9847412109375
15.289999900000002,-0.1364694982767105,-25.680208206176758,-7.692570209503174,282.5469970703125,268.24951171875,409.85107421875
15.309999900000001,0.09576806426048279,-32.68085479736328,-2.2409727573394775,204.620361328125,119.62890625,8.23974609375
15.3299999,-0.011971008032560349,-36.03273391723633,2.298433542251587,115.4327392578125,-99.6246337890625,-345.428466796875
15.3499999,-0.2777273952960968,-35.268985748291016,4.8722004890441895,172.3175048828125,-138.24462890625,-416.412353515625
15.3699999,-0.6272808313369751,-30.61944580078125,4.929661273956299,280.4107666015625,-64.0411376953125,-364.3798828125
15.389999900000001,-0.9624691009521484,-23.99708366394043,3.004723072052002,296.0052490234375,-100.921630859375,-409.881591796875
15.4099999,-1.5322890281677246,-17.281347274780273,0.3519476354122162,225.89111328125,-198.028564453125,-500
15.4299999,-2.52109432220459,-10.788272857666016,-2.0805611610412598,164.031982421875,-184.4940185546875,-500
15.4499999,-3.5625722408294678,-4.0533833503723145,-4.323928356170654,119.1253662109375,-137.2528076171875,-500
15.469999900000001,-4.376600742340088,3.3207578659057617,-6.215347766876221,66.46728515625,-148.101806640625,-500
15.4899999,-4.458003520965576,11.760318756103516,-7.481880187988281,-43.1976318359375,-120.8648681640625,-498.504638671875
15.5099999,-3.8355112075805664,20.736181259155273,-8.099584579467773,-94.17724609375,-13.5345458984375,-229.9041748046875
15.5299999,-2.942473888397217,28.218061447143555,-7.785943984985352,-51.849365234375,63.1103515625,135.2386474609375
15.549999900000001,-2.2697031497955322,32.03681182861328,-6.742072105407715,-57.647705078125,31.6162109375,410.186767578125
15.569999900000001,-1.7190368175506592,31.47417640686035,-5.25527286529541,-194.9920654296875,-41.9921875,440.8721923828125
15.5899999,-1.1300631761550903,26.49184226989746,-4.797980308532715,-336.639404296875,-121.2310791015625,410.247802734375
15.6099999,-0.2968810200691223,18.729839324951172,-5.51624059677124,-314.971923828125,-100.40283203125,479.0191650390625
15.629999900000001,0.8690952062606812,9.703699111938477,-6.890512466430664,-197.69287109375,27.8167724609375,499.9847412109375
15.649999900000001,2.0207061767578125,0.40462008118629456,-7.82185697555542,-134.674072265625,124.0997314453125,499.9847412109375
15.6699999,3.134010076522827,-8.44434928894043,-6.861782073974609,-102.3101806640625,156.1431884765625,376.373291015625
15.6899999,4.240131378173828,-15.91425895690918,-4.10366153717041,-53.2379150390625,106.7047119140625,237.4725341796875
15.709999900000001,5.298368453979492,-21.25811767578125,-0.9385270476341248,-8.97216796875,4.9591064453125,127.9449462890625
15.729999900000001,6.248866558074951,-23.800758361816406,1.4891934394836426,3.265380859375,-33.38623046875,-12.7410888671875
15.7499999,6.852205276489258,-23.685836791992188,2.892195701599121,43.609619140625,18.5089111328125,-112.823486328125
15.7699999,6.852205276489258,-21.49753761291504,3.31118106842041,114.1510009765625,8.3160400390625,-122.9095458984375
15.789999900000002,6.4834980964660645,-18.030733108520508,3.488351821899414,171.5240478515625,-69.5953369140625,-122.894287109375
15.809999900000001,5.949591159820557,-14.573505401611328,3.4739866256713867,221.6949462890625,-129.8980712890625,-146.759033203125
15.8299999,5.406107425689697,-11.434707641601562,2.7509377002716064,213.470458984375,-158.1268310546875,-209.2742919921875
15.8499999,4.975151062011719,-7.908048152923584,1.194706678390503,116.424560546875,-176.3763427734375,-311.9964599609375
15.869999900000002,4.98472785949707,-3.8594532012939453,-0.8762778043746948,78.216552734375,-154.571533203125,-295.83740234375
15.889999900000001,5.315127849578857,0.10773907601833344,-3.294421434402466,148.590087890625,-121.4599609375,-138.9007568359375
15.9099999,6.112396717071533,4.134786128997803,-5.171475887298584,108.856201171875,-76.019287109375,-100.1434326171875
15.9299999,7.24485445022583,6.914454460144043,-6.313509941101074,32.4249267578125,-33.447265625,-107.6812744140625
15.9499999,8.29830265045166,7.850587368011475,-6.320692539215088,62.3931884765625,-21.97265625,6.3323974609375
15.969999900000001,9.363722801208496,7.259219646453857,-5.432443618774414,69.2138671875,-37.2772216796875,51.4678955078125
15.9899999,10.18493366241455,5.197812080383301,-4.443638324737549,18.829345703125,-64.0869140625,-21.3470458984375
16.0099999,10.769119262695312,2.9281086921691895,-3.552995204925537,-7.476806640625,-36.6058349609375,-78.2318115234375
16.0299999,11.05402946472168,1.6759412288665771,-3.44765043258667,-7.62939453125,-14.5721435546875,-47.1343994140625
16.0499999,10.958261489868164,1.2761094570159912,-3.576937437057495,11.41357421875,-0.335693359375,47.3785400390625
16.0699999,10.714052200317383,1.316810965538025,-3.5170822143554688,19.7906494140625,27.435302734375,71.044921875
16.089999900000002,10.340557098388672,0.9385270476341248,-3.3854012489318848,-6.500244140625,11.3677978515625,13.702392578125
16.109999900000002,9.95748519897461,0.24899697303771973,-2.9903578758239746,-21.514892578125,-2.0751953125,-19.4854736328125
16.1299999,9.603142738342285,-0.24899697303771973,-2.5498247146606445,-9.002685546875,6.8817138671875,-0.1373291015625
16.1499999,9.39245319366455,-0.3926490843296051,-2.296039342880249,0.6866455078125,6.6070556640625,21.9268798828125
16.1699999,9.3828763961792,-0.5267243981361389,-2.212242364883423,3.60107421875,1.6632080078125,21.209716796875
16.1899999,9.514557838439941,-0.7254431247711182,-2.1954829692840576,-2.838134765625,6.3629150390625,-2.5634765625
16.2099999,9.710882186889648,-0.9624691009521484,-2.2697031497955322,-2.655029296875,11.16943359375,-14.70947265625
16.2299999,9.794678688049316,-0.7661445140838623,-2.3989901542663574,-0.06103515625,7.9498291015625,-8.544921875
16.249999900000002,9.806650161743164,-0.28730419278144836,-2.4660277366638184,2.3345947265625,13.0462646484375,12.5732421875
16.269999900000002,9.713275909423828,0.016759412363171577,-2.4803929328918457,9.2010498046875,16.9677734375,33.8592529296875
16.2899999,9.63187313079834,0.28730419278144836,-2.367865562438965,-9.09423828125,15.350341796875,3.631591796875
16.3099999,9.521739959716797,0.1149216815829277,-2.1954829692840576,-12.5885009765625,7.3699951171875,-7.7972412109375
16.3299999,9.44752025604248,-0.07182604819536209,-1.9177556037902832,0.946044921875,7.4462890625,6.988525390625
16.3499999,9.409213066101074,-0.14844051003456116,-1.8531121015548706,-0.9918212890625,-0.9307861328125,9.7503662109375
16.3699999,9.459490776062012,-0.27054479718208313,-1.845929503440857,-2.5787353515625,2.349853515625,8.4686279296875
16.3899999,9.576807022094727,-0.44771572947502136,-1.9393033981323242,-1.3885498046875,10.6658935546875,4.57763671875
16.4099999,9.727641105651855,-0.6967126727104187,-2.032677173614502,-0.396728515625,7.9345703125,-5.7525634765625
16.429999900000002,9.694122314453125,-0.6224924325942993,-2.0039467811584473,-0.5645751953125,3.021240234375,-0.30517578125
16.4499999,9.648633003234863,-0.45489832758903503,-1.987187385559082,-1.2359619140625,1.9073486328125,4.7454833984375
16.4699999,9.622296333312988,-0.3064578175544739,-1.965639591217041,-0.6866455078125,6.8206787109375,1.5716552734375
16.4899999,9.627084732055664,-0.2801215946674347,-1.9704279899597168,-0.7171630859375,7.5531005859375,-1.9683837890625
16.5099999,9.641449928283691,-0.28730419278144836,-1.922544002532959,-0.1678466796875,5.2490234375,-2.105712890625
16.5299999,9.639056205749512,-0.28969839215278625,-1.8938134908676147,1.495361328125,2.7008056640625,1.4495849609375
16.5499999,9.636661529541016,-0.2585737705230713,-1.8818424940109253,-0.3662109375,2.6092529296875,3.41796875
16.5699999,9.660603523254395,-0.33039984107017517,-1.9297266006469727,-0.79345703125,5.859375,3.143310546875
16.589999900000002,9.677363395690918,-0.38546648621559143,-1.9488801956176758,-2.7008056640625,7.99560546875,-4.608154296875
16.609999900000002,9.672574996948242,-0.4165911078453064,-1.9081788063049316,-2.4566650390625,7.99560546875,-8.7890625
16.6299999,9.636661529541016,-0.35673606395721436,-1.8626888990402222,-2.1514892578125,1.0223388671875,-1.64794921875
16.6499999,9.59835433959961,-0.2585737705230713,-1.7884687185287476,-0.4119873046875,1.007080078125,6.591796875
16.6699999,9.593565940856934,-0.24420857429504395,-1.7908629179000854,-0.54931640625,3.692626953125,4.82177734375
16.6899999,9.622296333312988,-0.2968810200691223,-1.8148049116134644,-3.4027099609375,4.82177734375,-4.0130615234375
16.7099999,9.658209800720215,-0.40701428055763245,-1.8195933103561401,-2.685546875,5.5084228515625,-6.1798095703125
16.7299999,9.672574996948242,-0.4620809257030487,-1.7836803197860718,1.6632080078125,3.0517578125,-1.3275146484375
16.749999900000002,9.667786598205566,-0.44771572947502136,-1.7549498081207275,0.2593994140625,-0.701904296875,-1.9683837890625
16.769999900000002,9.670180320739746,-0.44532153010368347,-1.745373010635376,-2.86865234375,-0.5950927734375,-5.2947998046875
16.7899999,9.679757118225098,-0.40701428055763245,-1.764526605606079,-4.9285888671875,2.044677734375,-9.429931640625
16.8099999,9.694122314453125,-0.31842881441116333,-1.7860745191574097,-0.67138671875,2.960205078125,-6.744384765625
16.8299999,9.694122314453125,-0.22505496442317963,-1.8171991109848022,4.2724609375,1.3885498046875,1.28173828125
16.8499999,9.679757118225098,-0.07182604819536209,-1.8387469053268433,-0.1678466796875,1.1138916015625,0.213623046875
16.8699999,9.660603523254395,0.016759412363171577,-1.86508309841156,-4.119873046875,3.5858154296875,-1.5716552734375
16.8899999,9.641449928283691,0.019153613597154617,-1.8626888990402222,-1.251220703125,4.9591064453125,1.861572265625
16.9099999,9.622296333312988,-0.05746084079146385,-1.8076223134994507,2.6397705078125,3.7994384765625,2.8076171875
16.929999900000002,9.607931137084961,-0.16759411990642548,-1.7310078144073486,1.52587890625,0.823974609375,-1.251220703125
16.9499999,9.59596061706543,-0.30885201692581177,-1.6903064250946045,-0.335693359375,-0.9002685546875,-3.1585693359375
16.9699999,9.59596061706543,-0.395043283700943,-1.647210717201233,1.6937255859375,2.777099609375,-3.2958984375
16.9899999,9.619902610778809,-0.4572925269603729,-1.6496049165725708,5.4779052734375,2.166748046875,-3.5552978515625
17.0099999,9.660603523254395,-0.5363011956214905,-1.6663644313812256,5.9814453125,-1.6326904296875,-6.40869140625
17.0299999,9.68933391571045,-0.4644751250743866,-1.6663644313812256,-1.6021728515625,-0.274658203125,-15.869140625
17.0499999,9.715670585632324,-0.2537853717803955,-1.7812861204147339,-4.7607421875,-0.8544921875,-14.0533447265625
17.0699999,9.727641105651855,-0.009576806798577309,-1.86508309841156,4.791259765625,4.5013427734375,4.6844482421875
17.089999900000002,9.737217903137207,0.17956513166427612,-1.9321208000183105,8.72802734375,9.4757080078125,10.833740234375
17.109999900000002,9.744400978088379,0.23942017555236816,-1.968033790588379,0.640869140625,5.523681640625,-1.46484375
17.1299999,9.734824180603027,0.16998831927776337,-1.8938134908676147,-3.9520263671875,5.218505859375,-6.072998046875
17.1499999,9.715670585632324,0.12449848651885986,-1.8411411046981812,-3.5247802734375,4.608154296875,0.5035400390625
17.1699999,9.694122314453125,0.10295066982507706,-1.7741034030914307,0.579833984375,5.2947998046875,8.3770751953125
17.1899999,9.694122314453125,0.0071826050989329815,-1.7118542194366455,3.1280517578125,7.781982421875,8.4381103515625
17.2099999,9.715670585632324,-0.1388636976480484,-1.6759412288665771,0.2593994140625,5.7525634765625,0.274658203125
17.2299999,9.730035781860352,-0.24899697303771973,-1.6424223184585571,-5.8441162109375,3.4942626953125,-6.500244140625
17.249999900000002,9.725247383117676,-0.27054479718208313,-1.5873557329177856,-4.302978515625,4.5013427734375,-1.678466796875
17.269999900000002,9.706093788146973,-0.22744916379451752,-1.5705963373184204,-0.42724609375,1.4801025390625,4.1656494140625
17.2899999,9.68694019317627,-0.17956513166427612,-1.5729905366897583,-0.579833984375,0.3662109375,1.5106201171875
17.3099999,9.684545516967773,-0.1604115068912506,-1.5442601442337036,-1.46484375,4.9285888671875,-3.5552978515625
17.3299999,9.694122314453125,-0.2106897532939911,-1.5969325304031372,1.3885498046875,2.532958984375,-0.7781982421875
17.3499999,9.691728591918945,-0.18914192914962769,-1.5729905366897583,0.5340576171875,3.1280517578125,-0.42724609375
17.3699999,9.682151794433594,-0.17956513166427612,-1.5610195398330688,-0.54931640625,2.38037109375,-0.7781982421875
17.3899999,9.667786598205566,-0.19632454216480255,-1.522712230682373,3.082275390625,-0.5340576171875,0.7781982421875
17.409999900000003,9.655815124511719,-0.19632454216480255,-1.4891934394836426,3.8909912109375,-1.6632080078125,-1.8463134765625
17.429999900000002,9.646238327026367,-0.181959331035614,-1.4915876388549805,4.638671875,-1.922607421875,-2.3193359375
17.4499999,9.651026725769043,-0.16519992053508759,-1.5179238319396973,8.97216796875,0.2593994140625,2.7923583984375
17.4699999,9.670180320739746,-0.11013327538967133,-1.5849615335464478,5.3863525390625,0.244140625,2.5177001953125
17.4899999,9.706093788146973,-0.0454898327589035,-1.6639702320098877,-1.5716552734375,0.18310546875,-2.1514892578125
17.5099999,9.744400978088379,-0.035913024097681046,-1.723825216293335,-0.30517578125,2.3040771484375,0.2593994140625
17.5299999,9.765948295593262,-0.019153613597154617,-1.745373010635376,1.03759765625,3.875732421875,0.8392333984375
17.5499999,9.770736694335938,-0.033518824726343155,-1.7310078144073486,1.1749267578125,2.7008056640625,0.48828125
17.5699999,9.751583099365234,-0.07661445438861847,-1.6855180263519287,0.18310546875,2.044677734375,1.03759765625
17.589999900000002,9.739612579345703,-0.14365209639072418,-1.625662922859192,0.1068115234375,3.2196044921875,0.946044921875
17.609999900000002,9.732429504394531,-0.20350714027881622,-1.6160861253738403,-0.54931640625,1.4190673828125,-1.556396484375
17.6299999,9.744400978088379,-0.2561795711517334,-1.6041151285171509,-0.3204345703125,3.173828125,-3.448486328125
17.6499999,9.746794700622559,-0.2513911724090576,-1.6112977266311646,0.274658203125,5.31005859375,-3.0059814453125
17.6699999,9.732429504394531,-0.15562310814857483,-1.5921441316604614,-0.885009765625,4.9896240234375,-2.4261474609375
17.6899999,9.703699111938477,-0.07182604819536209,-1.5753847360610962,0.2593994140625,2.38037109375,2.62451171875
17.7099999,9.679757118225098,-0.014365210197865963,-1.522712230682373,1.220703125,2.685546875,3.7384033203125
17.7299999,9.670180320739746,-0.05746084079146385,-1.5107412338256836,0.1983642578125,2.25830078125,-0.5340576171875
17.749999900000002,9.68933391571045,-0.09576806426048279,-1.501164436340332,-1.7547607421875,2.471923828125,-4.974365234375
17.769999900000002,9.706093788146973,-0.13407529890537262,-1.5203180313110352,-1.617431640625,2.6092529296875,-2.0294189453125
17.7899999,9.718064308166504,-0.09576806426048279,-1.522712230682373,0.1983642578125,3.7689208984375,2.685546875
17.8099999,9.710882186889648,-0.06703764945268631,-1.53707754611969,1.861572265625,3.1585693359375,4.150390625
17.8299999,9.710882186889648,-0.05746084079146385,-1.5131354331970215,1.739501953125,3.7841796875,2.0751953125
17.8499999,9.72285270690918,-0.12449848651885986,-1.53707754611969,1.15966796875,2.6702880859375,1.28173828125
17.8699999,9.742006301879883,-0.15562310814857483,-1.5179238319396973,-1.6632080078125,4.9896240234375,-1.708984375
17.8899999,9.751583099365234,-0.16519992053508759,-1.5275006294250488,-5.0811767578125,4.180908203125,-3.11279296875
17.909999900000003,9.742006301879883,-0.17477671802043915,-1.479616641998291,-1.4801025390625,3.326416015625,1.3275146484375
17.929999900000002,9.718064308166504,-0.16759411990642548,-1.4221558570861816,1.739501953125,1.9073486328125,0.7781982421875
17.9499999,9.691728591918945,-0.15322890877723694,-1.3838485479354858,-2.3193359375,0.3662109375,-3.4332275390625
17.9699999,9.6989107131958,-0.11252748221158981,-1.3982137441635132,-1.5716552734375,2.227783203125,-0.9918212890625
17.9899999,9.708487510681152,-0.08140286058187485,-1.4460978507995605,-1.8768310546875,0.06103515625,-0.5645751953125
18.0099999,9.713275909423828,-0.07182604819536209,-1.4389152526855469,-1.15966796875,0.48828125,-1.64794921875
18.0299999,9.710882186889648,-0.1149216815829277,-1.4269442558288574,0.701904296875,0.2593994140625,-2.1209716796875
18.0499999,9.706093788146973,-0.13407529890537262,-1.4269442558288574,-0.0152587890625,-2.349853515625,-3.6773681640625
18.0699999,9.706093788146973,-0.13407529890537262,-1.4389152526855469,-0.1983642578125,-1.495361328125,-3.631591796875
18.089999900000002,9.727641105651855,-0.1173158809542656,-1.4700398445129395,1.495361328125,1.2969970703125,-1.2054443359375
18.109999900000002,9.75397777557373,-0.06224924325942993,-1.522712230682373,0.48828125,0.885009765625,-2.25830078125
18.1299999,9.77791976928711,0.0071826050989329815,-1.558625340461731,-1.922607421875,1.129150390625,-3.265380859375
18.1499999,9.782708168029785,0.047884032130241394,-1.5729905366897583,-0.5645751953125,3.0670166015625,0.5340576171875
18.1699999,9.758766174316406,0.09816227108240128,-1.5610195398330688,-1.2664794921875,3.0670166015625,0.9307861328125
18.1899999,9.72285270690918,0.09816227108240128,-1.4963760375976562,-0.8087158203125,2.960205078125,0.8697509765625
18.2099999,9.703699111938477,0.038307227194309235,-1.4676456451416016,-1.4801025390625,-0.152587890625,1.1138916015625
18.2299999,9.694122314453125,-0.033518824726343155,-1.4101848602294922,-1.922607421875,1.3275146484375,-0.762939453125
18.249999900000002,9.710882186889648,-0.08379705995321274,-1.3934253454208374,-1.1749267578125,2.44140625,-3.1890869140625
18.269999900000002,9.737217903137207,-0.14365209639072418,-1.479616641998291,-1.2359619140625,-1.708984375,-1.15966796875
18.2899999,9.737217903137207,-0.10055647045373917,-1.436521053314209,-1.9683837890625,5.859375,-2.8076171875
18.3099999,9.730035781860352,-0.07422025501728058,-1.4867992401123047,0.030517578125,3.143310546875,-1.251220703125
18.3299999,9.708487510681152,-0.019153613597154617,-1.4508862495422363,0.885009765625,-1.190185546875,0.4119873046875
18.3499999,9.694122314453125,0.040701430290937424,-1.403002142906189,-0.6561279296875,1.5106201171875,-1.373291015625
18.3699999,9.713275909423828,0.031124621629714966,-1.4389152526855469,0.5645751953125,-0.640869140625,0.701904296875
18.3899999,9.758766174316406,0.011971008032560349,-1.460463047027588,0.518798828125,2.8228759765625,-0.42724609375
18.409999900000003,9.801861763000488,-0.040701430290937424,-1.50355863571167,-0.4730224609375,5.06591796875,-2.5787353515625
18.429999900000002,9.816226959228516,-0.07661445438861847,-1.4963760375976562,-0.3662109375,4.4403076171875,-3.2196044921875
18.4499999,9.78989028930664,-0.08140286058187485,-1.4652514457702637,0.54931640625,1.7547607421875,-2.3193359375
18.4699999,9.730035781860352,-0.033518824726343155,-1.3910311460494995,1.52587890625,1.1749267578125,-1.708984375
18.4899999,9.682151794433594,0.011971008032560349,-1.3503297567367554,2.716064453125,1.1444091796875,-0.5035400390625
18.5099999,9.667786598205566,0.08140286058187485,-1.357512354850769,0.701904296875,-0.2593994140625,-1.5716552734375
18.5299999,9.696516990661621,0.12210428714752197,-1.403002142906189,-0.946044921875,2.1209716796875,-1.1749267578125
18.5499999,9.749189376831055,0.15562310814857483,-1.4676456451416016,-2.3345947265625,4.57763671875,-0.152587890625
18.5699999,9.780313491821289,0.1412578970193863,-1.4939818382263184,-2.166748046875,5.9051513671875,0.030517578125
18.589999900000002,9.782708168029785,0.11971008777618408,-1.4700398445129395,-0.244140625,3.9825439453125,-0.6256103515625
18.609999900000002,9.749189376831055,0.05027823522686958,-1.3838485479354858,2.0751953125,2.044677734375,0.6866455078125
18.6299999,9.713275909423828,0.019153613597154617,-1.3215993642807007,-0.457763671875,-0.274658203125,-1.5716552734375
18.6499999,9.696516990661621,-0.002394201699644327,-1.280897855758667,-0.9918212890625,0.2288818359375,-1.983642578125
18.6699999,9.708487510681152,0.0071826050989329815,-1.3024457693099976,-0.762939453125,0.7171630859375,-1.2969970703125
18.6899999,9.734824180603027,0.035913024097681046,-1.3335703611373901,0.457763671875,1.068115234375,-1.0986328125
18.7099999,9.751583099365234,0.05746084079146385,-1.3479355573654175,2.777099609375,0.946044921875,0
18.7299999,9.744400978088379,0.06464344263076782,-1.3407529592514038,3.35693359375,-0.579833984375,-0.1220703125
18.749999900000002,9.734824180603027,0.06224924325942993,-1.3431471586227417,0.9002685546875,-2.960205078125,-2.166748046875
18.769999900000002,9.718064308166504,0.035913024097681046,-1.335964560508728,-1.708984375,-1.6021728515625,-3.6163330078125
18.7899999,9.720458984375,0.021547814831137657,-1.3503297567367554,-2.166748046875,-0.9613037109375,-4.974365234375
18.8099999,9.725247383117676,0.026336219161748886,-1.381454348564148,-1.6021728515625,-2.3651123046875,-5.3863525390625
18.8299999,9.737217903137207,0.05746084079146385,-1.3982137441635132,-0.518798828125,-1.7852783203125,-3.6163330078125
18.8499999,9.744400978088379,0.12210428714752197,-1.4389152526855469,-1.708984375,-1.77001953125,-3.2501220703125
18.8699999,9.751583099365234,0.181959331035614,-1.482010841369629,-0.732421875,-0.6561279296875,-1.739501953125
18.8899999,9.75397777557373,0.24420857429504395,-1.5083470344543457,0,1.5411376953125,-1.03759765625
18.909999900000003,9.751583099365234,0.27054479718208313,-1.5298948287963867,0.5340576171875,1.9683837890625,0.5645751953125
18.929999900000002,9.746794700622559,0.2801215946674347,-1.5179238319396973,-0.67138671875,2.197265625,0.9307861328125
18.9499999,9.739612579345703,0.26815059781074524,-1.4939818382263184,-1.5716552734375,2.0751953125,0.2288818359375
18.9699999,9.742006301879883,0.2346317619085312,-1.4724340438842773,-1.5716552734375,2.3193359375,0.6256103515625
18.9899999,9.749189376831055,0.20111294090747833,-1.4772224426269531,-2.3651123046875,3.0975341796875,0.3662109375
19.0099999,9.751583099365234,0.1628057211637497,-1.4245500564575195,-0.4425048828125,6.5155029296875,0.9307861328125
19.0299999,9.761159896850586,0.090979665517807,-1.4437036514282227,0.518798828125,2.899169921875,1.2359619140625
19.0499999,9.761159896850586,0.05506663769483566,-1.4317326545715332,-2.8839111328125,2.25830078125,-2.838134765625
19.0699999,9.761159896850586,0.040701430290937424,-1.3886369466781616,-2.471923828125,7.354736328125,-4.119873046875
19.089999900000002,9.765948295593262,0.0454898327589035,-1.3934253454208374,1.312255859375,3.875732421875,0.1983642578125
19.109999900000002,9.758766174316406,0.10534487664699554,-1.3479355573654175,1.373291015625,2.716064453125,-0.3509521484375
19.1299999,9.749189376831055,0.16519992053508759,-1.3192051649093628,-0.213623046875,4.119873046875,-1.9683837890625
19.1499999,9.744400978088379,0.2059013396501541,-1.3263877630233765,-0.6103515625,2.471923828125,-0.3814697265625
19.1699999,9.727641105651855,0.2561795711517334,-1.3192051649093628,-0.79345703125,3.3721923828125,-0.762939453125
19.1899999,9.710882186889648,0.31124621629714966,-1.3263877630233765,-2.3040771484375,2.7618408203125,-0.9613037109375
19.2099999,9.694122314453125,0.3208230137825012,-1.3120225667953491,-0.152587890625,2.471923828125,3.692626953125
19.2299999,9.691728591918945,0.30885201692581177,-1.2952631711959839,0.67138671875,2.4261474609375,4.547119140625
19.249999900000002,9.713275909423828,0.2322375625371933,-1.3048399686813354,-0.5035400390625,1.3580322265625,1.52587890625
19.269999900000002,9.742006301879883,0.15801730751991272,-1.2976573705673218,-1.89208984375,2.655029296875,-1.46484375
19.2899999,9.765948295593262,0.0933738648891449,-1.3024457693099976,-0.9613037109375,3.2501220703125,-0.5340576171875
19.3099999,9.773131370544434,0.07422025501728058,-1.2880805730819702,-0.091552734375,1.6937255859375,1.0986328125
19.3299999,9.773131370544434,0.06224924325942993,-1.2856862545013428,0.2288818359375,0.9307861328125,0.7476806640625
19.3499999,9.770736694335938,0.07661445438861847,-1.2641384601593018,-1.1444091796875,2.25830078125,-2.3193359375
19.3699999,9.773131370544434,0.07182604819536209,-1.2761094570159912,-0.7476806640625,1.4495849609375,-2.2125244140625
19.3899999,9.763554573059082,0.1173158809542656,-1.256955862045288,-0.3662109375,0.9307861328125,-1.6632080078125
19.409999900000003,9.746794700622559,0.17717093229293823,-1.2689268589019775,-0.244140625,0.42724609375,-1.0986328125
19.429999900000002,9.730035781860352,0.23702596127986908,-1.2665326595306396,1.15966796875,1.28173828125,1.4495849609375
19.4499999,9.727641105651855,0.26575639843940735,-1.2832920551300049,1.007080078125,2.2430419921875,2.410888671875
19.4699999,9.763554573059082,0.22744916379451752,-1.292868971824646,-1.6937255859375,2.0294189453125,-0.9613037109375
19.4899999,9.765948295593262,0.19153612852096558,-1.2976573705673218,-0.732421875,1.2359619140625,-0.091552734375
19.5099999,9.749189376831055,0.1843535304069519,-1.2617442607879639,0.396728515625,1.800537109375,0.91552734375
19.5299999,9.732429504394531,0.17477671802043915,-1.259350061416626,0.579833984375,0.3509521484375,1.7852783203125
19.5499999,9.734824180603027,0.14604631066322327,-1.2449848651885986,1.6632080078125,0.4425048828125,1.64794921875
19.5699999,9.749189376831055,0.14365209639072418,-1.259350061416626,-0.5645751953125,1.40380859375,-1.6326904296875
19.589999900000002,9.770736694335938,0.1149216815829277,-1.2641384601593018,-0.1220703125,1.9683837890625,-0.1220703125
19.609999900000002,9.775525093078613,0.10055647045373917,-1.2641384601593018,1.3427734375,1.617431640625,1.678466796875
19.6299999,9.758766174316406,0.12449848651885986,-1.2545616626739502,-0.4730224609375,0.1068115234375,-1.77001953125
19.6499999,9.746794700622559,0.1388636976480484,-1.2497732639312744,-0.06103515625,0.30517578125,-1.40380859375
19.6699999,9.749189376831055,0.15801730751991272,-1.259350061416626,0.8544921875,1.2054443359375,1.3885498046875
19.6899999,9.763554573059082,0.19871874153614044,-1.278503656387329,-0.244140625,2.0294189453125,0.4119873046875
19.7099999,9.780313491821289,0.20350714027881622,-1.3000515699386597,-0.0762939453125,2.38037109375,0.1220703125
19.7299999,9.775525093078613,0.19153612852096558,-1.2832920551300049,1.0223388671875,2.8228759765625,0.8392333984375
19.749999900000002,9.749189376831055,0.19153612852096558,-1.2713210582733154,-0.3204345703125,0.640869140625,-0.6103515625
19.769999900000002,9.725247383117676,0.17956513166427612,-1.2449848651885986,0.1220703125,0.0762939453125,0.3509521484375
19.7899999,9.720458984375,0.19393034279346466,-1.235408067703247,0.4119873046875,0.7476806640625,0.579833984375
19.8099999,9.746794700622559,0.21547815203666687,-1.2617442607879639,-1.068115234375,0.885009765625,0.244140625
19.8299999,9.775525093078613,0.21308395266532898,-1.259350061416626,-0.1220703125,2.5634765625,2.1514892578125
19.8499999,9.78989028930664,0.17956513166427612,-1.2545616626739502,1.3885498046875,1.40380859375,2.3651123046875
19.8699999,9.77791976928711,0.12689268589019775,-1.2210428714752197,2.105712890625,-1.2054443359375,-0.091552734375
19.8899999,9.75637149810791,0.05267243832349777,-1.1899182796478271,3.7078857421875,-1.5411376953125,-0.9002685546875
19.909999900000003,9.737217903137207,0.023942016065120697,-1.2018892765045166,2.99072265625,-1.8310546875,-1.983642578125
19.929999900000002,9.746794700622559,0.06464344263076782,-1.2473790645599365,-0.3662109375,-0.3509521484375,-2.899169921875
19.9499999,9.758766174316406,0.12928688526153564,-1.3048399686813354,-0.8087158203125,2.50244140625,0.06103515625
19.9699999,9.765948295593262,0.19393034279346466,-1.338358759880066,-1.220703125,3.2958984375,1.3427734375
19.9899999,9.75637149810791,0.2298433631658554,-1.3215993642807007,-2.3193359375,2.716064453125,-0.9765625
20.0099999,9.744400978088379,0.2059013396501541,-1.2952631711959839,-2.5634765625,0.9307861328125,-1.4495849609375
20.0299999,9.739612579345703,0.16998831927776337,-1.2449848651885986,-2.44140625,1.434326171875,-1.40380859375
20.0499999,9.746794700622559,0.1388636976480484,-1.2306196689605713,-2.99072265625,1.434326171875,-2.197265625
20.0699999,9.751583099365234,0.1412578970193863,-1.213860273361206,-2.655029296875,1.129150390625,-2.50244140625
20.089999900000002,9.744400978088379,0.1604115068912506,-1.192312479019165,0.4730224609375,0.6561279296875,-0.396728515625
20.109999900000002,9.727641105651855,0.20350714027881622,-1.216254472732544,1.7547607421875,-2.2125244140625,0.4119873046875
20.1299999,9.713275909423828,0.2561795711517334,-1.2186486721038818,1.220703125,0.18310546875,0.3204345703125
20.1499999,9.725247383117676,0.24899697303771973,-1.2473790645599365,1.8463134765625,1.5716552734375,2.655029296875
20.1699999,9.751583099365234,0.24899697303771973,-1.292868971824646,-0.701904296875,-0.5950927734375,0.48828125
20.1899999,9.780313491821289,0.23702596127986908,-1.292868971824646,-2.0904541015625,1.678466796875,-1.3275146484375
20.2099999,9.794678688049316,0.19871874153614044,-1.3096283674240112,0.48828125,1.861572265625,2.1820068359375
20.2299999,9.78989028930664,0.1867477297782898,-1.2952631711959839,0.30517578125,1.0528564453125,1.2664794921875
20.249999900000002,9.775525093078613,0.15801730751991272,-1.280897855758667,-0.6256103515625,0.2593994140625,-0.8392333984375
20.269999900000002,9.773131370544434,0.11013327538967133,-1.2713210582733154,0.0152587890625,0.335693359375,-0.5340576171875
20.2899999,9.782708168029785,0.11252748221158981,-1.278503656387329,-1.2054443359375,1.617431640625,-2.38037109375
20.3099999,9.78989028930664,0.12689268589019775,-1.2976573705673218,-1.40380859375,2.3956298828125,-1.495361328125
20.3299999,9.782708168029785,0.16759411990642548,-1.2952631711959839,0.5340576171875,3.5247802734375,0.6256103515625
20.3499999,9.75397777557373,0.22026655077934265,-1.280897855758667,0.1983642578125,2.6702880859375,0.3509521484375
20.3699999,9.730035781860352,0.26575639843940735,-1.2641384601593018,-2.166748046875,0.8087158203125,-0.67138671875
20.3899999,9.710882186889648,0.26575639843940735,-1.237802267074585,-1.3580322265625,1.7547607421875,1.15966796875
20.409999900000003,9.720458984375,0.2537853717803955,-1.2282254695892334,-1.617431640625,2.8533935546875,0.9613037109375
