# Time (seconds),Accel_X,Accel_Y,Accel_Z,Gyro_X,Gyro_Y,Gyro_Z
0.0099999,1.968033790588379,0.09816227108240128,9.600749015808105,-0.3204345703125,0.7476806640625,-0.1373291015625
0.029999900000000003,1.965639591217041,0.08858546614646912,9.603142738342285,-0.1373291015625,0.885009765625,0.1678466796875
0.0499999,1.9632453918457031,0.08140286058187485,9.603142738342285,-0.1220703125,0.762939453125,0.1373291015625
0.0699999,1.9608511924743652,0.07900865375995636,9.591172218322754,0.274658203125,0.6256103515625,-0.030517578125
0.08999990000000001,1.9608511924743652,0.06464344263076782,9.586383819580078,0.640869140625,1.1749267578125,0.3814697265625
0.10999990000000001,1.9584569931030273,0.06703764945268631,9.581595420837402,0.48828125,1.190185546875,0.0762939453125
0.1299999,1.9584569931030273,0.0694318488240242,9.579200744628906,0.1983642578125,0.67138671875,-0.1983642578125
0.14999990000000002,1.9560627937316895,0.08379705995321274,9.581595420837402,0.7476806640625,1.0833740234375,0.457763671875
0.1699999,1.9560627937316895,0.09576806426048279,9.583989143371582,1.2359619140625,1.373291015625,1.5411376953125
0.1899999,1.9560627937316895,0.10295066982507706,9.586383819580078,0.732421875,1.2359619140625,1.3427734375
0.20999990000000002,1.9584569931030273,0.09816227108240128,9.588777542114258,-0.1220703125,0.7781982421875,0.335693359375
0.2299999,1.9584569931030273,0.08379705995321274,9.600749015808105,-0.1983642578125,1.1444091796875,0.274658203125
0.2499999,1.9608511924743652,0.07900865375995636,9.603142738342285,-0.6256103515625,0.7781982421875,0.244140625
0.2699999,1.9584569931030273,0.07661445438861847,9.607931137084961,-1.007080078125,0.6866455078125,0.3509521484375
0.28999990000000003,1.9608511924743652,0.07422025501728058,9.605537414550781,-0.885009765625,0.8544921875,0.335693359375
0.3099999,1.9584569931030273,0.07182604819536209,9.607931137084961,-0.54931640625,1.0528564453125,-0.244140625
0.3299999,1.9584569931030273,0.07422025501728058,9.600749015808105,-1.0833740234375,0.6256103515625,-0.396728515625
0.34999990000000003,1.9584569931030273,0.06464344263076782,9.59835433959961,-1.068115234375,0.4730224609375,0.2899169921875
0.3699999,1.9584569931030273,0.05985504388809204,9.593565940856934,-0.6256103515625,0.79345703125,-0.0152587890625
0.3899999,1.9608511924743652,0.043095629662275314,9.583989143371582,0.1220703125,0.8697509765625,-0.640869140625
0.40999990000000003,1.9608511924743652,0.040701430290937424,9.579200744628906,0.9918212890625,0.9613037109375,-0.8697509765625
0.4299999,1.9608511924743652,0.043095629662275314,9.581595420837402,0.9613037109375,1.0223388671875,-0.4119873046875
0.4499999,1.9608511924743652,0.07182604819536209,9.586383819580078,0.42724609375,0.7171630859375,-0.2288818359375
0.4699999,1.9584569931030273,0.09816227108240128,9.586383819580078,-0.396728515625,0.3204345703125,0.2288818359375
0.4899999,1.9560627937316895,0.10295066982507706,9.593565940856934,0.1678466796875,1.15966796875,1.068115234375
0.5099999,1.9560627937316895,0.10773907601833344,9.586383819580078,0.3204345703125,0.762939453125,0.0152587890625
0.5299999,1.9560627937316895,0.0933738648891449,9.591172218322754,1.0528564453125,0.8697509765625,0.6561279296875
0.5499999,1.9560627937316895,0.10055647045373917,9.59835433959961,0.8392333984375,0.8544921875,1.312255859375
0.5699999,1.9584569931030273,0.09816227108240128,9.591172218322754,0.823974609375,0.885009765625,1.129150390625
0.5899998999999999,1.9608511924743652,0.08140286058187485,9.59596061706543,1.556396484375,1.52587890625,0.4730224609375
0.6099998999999999,1.9608511924743652,0.07182604819536209,9.591172218322754,1.556396484375,1.2664794921875,-0.4730224609375
0.6299999,1.9608511924743652,0.07422025501728058,9.59835433959961,1.28173828125,0.9307861328125,-0.18310546875
0.6499999,1.9560627937316895,0.08619125932455063,9.600749015808105,0.8087158203125,0.9765625,0.9613037109375
0.6699999,1.9560627937316895,0.10773907601833344,9.600749015808105,0.3509521484375,1.03759765625,0.518798828125
0.6899999,1.9536685943603516,0.12449848651885986,9.593565940856934,0.3204345703125,0.8697509765625,-0.030517578125
0.7099999,1.9512743949890137,0.13168109953403473,9.593565940856934,1.1444091796875,1.2359619140625,0.54931640625
0.7299998999999999,1.9512743949890137,0.1388636976480484,9.586383819580078,1.15966796875,1.129150390625,1.007080078125
0.7499998999999999,1.9512743949890137,0.1364694982767105,9.591172218322754,0.8087158203125,1.0833740234375,0.9307861328125
0.7699999,1.9512743949890137,0.12928688526153564,9.59596061706543,0.54931640625,1.2054443359375,0.30517578125
0.7899999,1.9536685943603516,0.12449848651885986,9.593565940856934,0.0762939453125,0.6103515625,0.1373291015625
0.8099999,1.9512743949890137,0.12689268589019775,9.59835433959961,0.30517578125,1.1138916015625,0.457763671875
0.8299999,1.9512743949890137,0.1364694982767105,9.591172218322754,0.18310546875,1.1444091796875,0.762939453125
0.8499998999999999,1.9488801956176758,0.14365209639072418,9.593565940856934,-0.244140625,0.9002685546875,0.732421875
0.8699998999999999,1.946485996246338,0.1412578970193863,9.593565940856934,-0.0457763671875,1.1749267578125,0.5645751953125
0.8899999,1.944091796875,0.12689268589019775,9.593565940856934,0.152587890625,1.0986328125,0.3662109375
0.9099999,1.944091796875,0.12689268589019775,9.593565940856934,0.701904296875,1.0223388671875,-0.1373291015625
0.9299999,1.944091796875,0.11971008777618408,9.591172218322754,0.946044921875,0.9918212890625,0.2899169921875
0.9499999,1.944091796875,0.12210428714752197,9.591172218322754,1.007080078125,1.2969970703125,0.4730224609375
0.9699998999999999,1.941697597503662,0.13407529890537262,9.588777542114258,0.4730224609375,0.9613037109375,0.0152587890625
0.9899998999999999,1.941697597503662,0.13407529890537262,9.593565940856934,0.579833984375,1.190185546875,0.2288818359375
1.0099999,1.941697597503662,0.13407529890537262,9.59835433959961,0.18310546875,1.0833740234375,0.1373291015625
1.0299999,1.941697597503662,0.14365209639072418,9.600749015808105,-0.2288818359375,0.732421875,-0.6561279296875
1.0499999,1.941697597503662,0.14844051003456116,9.600749015808105,-0.0457763671875,0.9002685546875,-0.0457763671875
1.0699999,1.9393033981323242,0.15322890877723694,9.603142738342285,-0.0762939453125,1.0986328125,0.4425048828125
1.0899999,1.9393033981323242,0.16519992053508759,9.59835433959961,-0.79345703125,0.5645751953125,-0.091552734375
1.1099999,1.9369091987609863,0.1604115068912506,9.603142738342285,-0.4730224609375,0.8544921875,-0.1068115234375
1.1299999,1.9393033981323242,0.15562310814857483,9.59835433959961,-0.244140625,0.8392333984375,0.1220703125
1.1499999,1.9393033981323242,0.15322890877723694,9.59596061706543,-0.3814697265625,0.701904296875,-0.1068115234375
1.1699998999999999,1.941697597503662,0.14844051003456116,9.593565940856934,-0.4730224609375,0.7781982421875,-0.1983642578125
1.1899998999999999,1.9393033981323242,0.1412578970193863,9.59835433959961,-0.1678466796875,0.7476806640625,0.1678466796875
1.2099999,1.9393033981323242,0.1388636976480484,9.600749015808105,0.274658203125,0.30517578125,0.0457763671875
1.2299999,1.9393033981323242,0.13168109953403473,9.600749015808105,-0.1983642578125,0.1220703125,-0.4425048828125
1.2499999,1.941697597503662,0.12689268589019775,9.603142738342285,-0.8544921875,0.6866455078125,-0.8697509765625
1.2699999,1.946485996246338,0.13407529890537262,9.591172218322754,-1.190185546875,0.5645751953125,-0.8544921875
1.2899999,1.9488801956176758,0.13168109953403473,9.591172218322754,-0.3509521484375,0.9613037109375,-0.18310546875
1.3099999,1.9512743949890137,0.1412578970193863,9.583989143371582,0,0.7781982421875,-0.48828125
1.3299999,1.9512743949890137,0.1412578970193863,9.581595420837402,0.1678466796875,0.457763671875,-0.8392333984375
1.3499999,1.9512743949890137,0.14844051003456116,9.583989143371582,0.3509521484375,1.03759765625,-0.396728515625
1.3699999,1.9512743949890137,0.1604115068912506,9.581595420837402,-0.3509521484375,0.8544921875,-0.091552734375
1.3899999,1.9536685943603516,0.16759411990642548,9.588777542114258,0.030517578125,1.068115234375,0.1068115234375
1.4099999,1.9536685943603516,0.17238251864910126,9.588777542114258,-0.48828125,0.6866455078125,0.030517578125
1.4299998999999999,1.9512743949890137,0.17238251864910126,9.591172218322754,-0.732421875,0.7781982421875,-0.0152587890625
1.4499999,1.9488801956176758,0.1604115068912506,9.59596061706543,-0.6866455078125,0.9918212890625,0.54931640625
1.4699999,1.946485996246338,0.14604631066322327,9.588777542114258,-0.4730224609375,0.5340576171875,0.3204345703125
1.4899999,1.9488801956176758,0.12449848651885986,9.591172218322754,0.3509521484375,1.007080078125,-0.152587890625
1.5099999,1.9512743949890137,0.10773907601833344,9.583989143371582,1.0833740234375,0.9918212890625,-0.3662109375
1.5299999,1.9536685943603516,0.11252748221158981,9.583989143371582,0.762939453125,0.8697509765625,-0.6256103515625
1.5499999,1.9512743949890137,0.12210428714752197,9.588777542114258,0.1220703125,0.91552734375,-0.0457763671875
1.5699999,1.9512743949890137,0.14604631066322327,9.593565940856934,-0.6256103515625,0.91552734375,0.213623046875
1.5899999,1.9488801956176758,0.1604115068912506,9.59835433959961,-0.67138671875,0.732421875,0.0457763671875
1.6099999,1.9488801956176758,0.16519992053508759,9.59835433959961,-0.2899169921875,0.6256103515625,0.18310546875
1.6299999,1.9488801956176758,0.1604115068912506,9.59835433959961,0.1373291015625,0.9613037109375,0.2899169921875
1.6499999,1.9488801956176758,0.15562310814857483,9.593565940856934,-0.030517578125,0.823974609375,0.06103515625
1.6699999,1.9488801956176758,0.14604631066322327,9.593565940856934,0.030517578125,0.7781982421875,0
1.6899998999999999,1.9512743949890137,0.14365209639072418,9.591172218322754,0.1373291015625,0.701904296875,-0.18310546875
1.7099999,1.9536685943603516,0.1412578970193863,9.586383819580078,0.5035400390625,0.9918212890625,-0.1678466796875
1.7299999,1.9560627937316895,0.14604631066322327,9.586383819580078,0.244140625,1.190185546875,0.0152587890625
1.7499999,1.9536685943603516,0.15322890877723694,9.588777542114258,-0.3814697265625,1.007080078125,-0.1678466796875
1.7699999,1.9512743949890137,0.16519992053508759,9.591172218322754,-0.7781982421875,0.5340576171875,-0.1678466796875
1.7899999,1.946485996246338,0.16519992053508759,9.600749015808105,-0.4119873046875,0.8544921875,0.640869140625
1.8099999,1.9488801956176758,0.16519992053508759,9.593565940856934,-0.6561279296875,0.8087158203125,0.5340576171875
1.8299999,1.9512743949890137,0.1628057211637497,9.59596061706543,-0.518798828125,0.9918212890625,-0.1220703125
1.8499999,1.9536685943603516,0.14844051003456116,9.593565940856934,-0.457763671875,0.885009765625,0.3814697265625
1.8699999,1.9584569931030273,0.14844051003456116,9.59835433959961,-0.2899169921875,0.823974609375,0.518798828125
1.8899999,1.9584569931030273,0.1412578970193863,9.59835433959961,-0.5035400390625,0.4425048828125,0.3662109375
1.9099999,1.9584569931030273,0.13407529890537262,9.59835433959961,-0.5035400390625,0.640869140625,0.0152587890625
1.9299998999999999,1.9536685943603516,0.13168109953403473,9.591172218322754,-0.6103515625,0.8544921875,-0.1220703125
1.9499999,1.9512743949890137,0.13168109953403473,9.593565940856934,-0.732421875,0.9613037109375,0.2593994140625
1.9699999,1.946485996246338,0.1388636976480484,9.586383819580078,-0.9613037109375,0.6561279296875,0.3204345703125
1.9899999,1.944091796875,0.1364694982767105,9.593565940856934,-0.67138671875,0.7171630859375,0.3662109375
2.0099999,1.941697597503662,0.13407529890537262,9.593565940856934,-0.2899169921875,0.885009765625,0.2288818359375
2.0299999,1.941697597503662,0.13168109953403473,9.591172218322754,-0.79345703125,0.54931640625,0.1678466796875
2.0499999,1.944091796875,0.12210428714752197,9.59596061706543,-0.4425048828125,1.0223388671875,0.518798828125
2.0699999,1.9560627937316895,0.11971008777618408,9.593565940856934,-0.8697509765625,0.7476806640625,-0.1220703125
2.0899999,1.9608511924743652,0.1149216815829277,9.588777542114258,-0.946044921875,0.8697509765625,0.091552734375
2.1099999,1.9632453918457031,0.11013327538967133,9.591172218322754,-0.54931640625,1.1444091796875,0.1068115234375
2.1299999,1.965639591217041,0.1173158809542656,9.591172218322754,-0.1373291015625,1.0528564453125,-0.0457763671875
2.1499999,1.9632453918457031,0.1149216815829277,9.59835433959961,-0.2593994140625,0.67138671875,0.30517578125
2.1699999,1.9608511924743652,0.12210428714752197,9.59835433959961,-0.396728515625,0.6561279296875,0.3509521484375
2.1899999,1.9608511924743652,0.12449848651885986,9.59835433959961,-0.4425048828125,0.823974609375,0.0457763671875
2.2099999,1.9584569931030273,0.11971008777618408,9.59596061706543,-0.4730224609375,1.0528564453125,0.0762939453125
2.2299999,1.9560627937316895,0.1173158809542656,9.593565940856934,-0.5035400390625,0.823974609375,-0.030517578125
2.2499999,1.9560627937316895,0.12210428714752197,9.59835433959961,-0.4119873046875,0.7476806640625,-0.0762939453125
2.2699999,1.9536685943603516,0.11971008777618408,9.59835433959961,-0.6256103515625,0.640869140625,0.2593994140625
2.2899999,1.9536685943603516,0.11971008777618408,9.600749015808105,-0.4730224609375,0.9765625,0.4425048828125
2.3099999,1.9560627937316895,0.1149216815829277,9.59596061706543,-0.335693359375,0.946044921875,-0.0152587890625
2.3299999,1.9584569931030273,0.11252748221158981,9.59835433959961,-0.4730224609375,0.8087158203125,-0.2288818359375
2.3499999,1.9608511924743652,0.11013327538967133,9.59835433959961,-0.732421875,0.5950927734375,0.1373291015625
2.3699999,1.9608511924743652,0.1149216815829277,9.603142738342285,-0.7171630859375,0.48828125,0.6103515625
2.3899999,1.9632453918457031,0.11013327538967133,9.600749015808105,-0.3509521484375,0.4425048828125,0.762939453125
2.4099999,1.9632453918457031,0.09576806426048279,9.600749015808105,0.0152587890625,0.4119873046875,0.2899169921875
2.4299999,1.9632453918457031,0.08379705995321274,9.59596061706543,0,0.4119873046875,-0.579833984375
2.4499999,1.9608511924743652,0.07182604819536209,9.59596061706543,-0.1983642578125,0.42724609375,-0.3814697265625
2.4699999,1.9560627937316895,0.07422025501728058,9.588777542114258,-0.18310546875,0.7171630859375,-0.274658203125
2.4899999,1.9584569931030273,0.08379705995321274,9.588777542114258,-0.0457763671875,1.1749267578125,-0.244140625
2.5099999,1.9584569931030273,0.09576806426048279,9.583989143371582,-0.4425048828125,0.7476806640625,-0.1983642578125
2.5299999,1.9608511924743652,0.10534487664699554,9.591172218322754,-0.3204345703125,0.9613037109375,0.1983642578125
2.5499999,1.9608511924743652,0.10534487664699554,9.59596061706543,-0.0762939453125,1.03759765625,0.3204345703125
2.5699999,1.9608511924743652,0.10295066982507706,9.59835433959961,-0.274658203125,0.6256103515625,-0.1373291015625
2.5899999,1.9608511924743652,0.09576806426048279,9.600749015808105,-0.335693359375,0.732421875,-0.2593994140625
2.6099999,1.9632453918457031,0.08858546614646912,9.59596061706543,-0.152587890625,0.9613037109375,0.0762939453125
2.6299999,1.9632453918457031,0.0933738648891449,9.593565940856934,-0.091552734375,1.1138916015625,-0.213623046875
2.6499999,1.9632453918457031,0.08858546614646912,9.586383819580078,-0.335693359375,1.1138916015625,-0.1373291015625
2.6699999,1.965639591217041,0.0933738648891449,9.591172218322754,0.030517578125,1.03759765625,-0.274658203125
2.6899999,1.965639591217041,0.09576806426048279,9.586383819580078,0.1068115234375,0.7781982421875,-0.1373291015625
2.7099999,1.965639591217041,0.10055647045373917,9.593565940856934,0.030517578125,1.1138916015625,0.1220703125
2.7299999,1.965639591217041,0.09816227108240128,9.588777542114258,-0.67138671875,0.6103515625,0.1373291015625
2.7499999,1.965639591217041,0.0933738648891449,9.593565940856934,-0.0152587890625,0.885009765625,-0.244140625
2.7699999,1.9632453918457031,0.090979665517807,9.591172218322754,0.6103515625,0.885009765625,-0.3814697265625
2.7899999,1.9632453918457031,0.08619125932455063,9.59596061706543,0.3814697265625,0.79345703125,0.0152587890625
2.8099999,1.9584569931030273,0.090979665517807,9.593565940856934,-0.1373291015625,0.8392333984375,-0.18310546875
2.8299999,1.9560627937316895,0.10055647045373917,9.59835433959961,-0.152587890625,0.7171630859375,-0.640869140625
2.8499999,1.9536685943603516,0.11013327538967133,9.59596061706543,0.1678466796875,0.8544921875,-0.030517578125
2.8699999,1.9512743949890137,0.11252748221158981,9.59596061706543,-0.30517578125,0.9002685546875,0.2593994140625
2.8899999,1.9536685943603516,0.1173158809542656,9.59596061706543,-0.457763671875,0.946044921875,-0.18310546875
2.9099999,1.9560627937316895,0.11013327538967133,9.59596061706543,-0.244140625,0.732421875,-0.3204345703125
2.9299999,1.9608511924743652,0.10534487664699554,9.59596061706543,0.1678466796875,0.8697509765625,-0.1220703125
2.9499999,1.9608511924743652,0.10773907601833344,9.593565940856934,0.152587890625,0.823974609375,-0.1068115234375
2.9699999,1.9632453918457031,0.10773907601833344,9.591172218322754,-0.3814697265625,0.701904296875,-0.030517578125
2.9899999,1.9632453918457031,0.11013327538967133,9.59596061706543,-0.274658203125,1.0986328125,0.213623046875
3.0099999,1.9608511924743652,0.11013327538967133,9.588777542114258,-0.213623046875,0.6103515625,-0.1373291015625
3.0299999,1.9608511924743652,0.10534487664699554,9.593565940856934,-0.1983642578125,0.8697509765625,-0.1068115234375
3.0499999,1.9608511924743652,0.10055647045373917,9.588777542114258,-0.42724609375,0.8697509765625,-0.0762939453125
3.0699999,1.9584569931030273,0.09816227108240128,9.588777542114258,-0.3509521484375,0.9918212890625,-0.0762939453125
3.0899999,1.9584569931030273,0.090979665517807,9.588777542114258,0,1.129150390625,0.18310546875
3.1099999,1.9584569931030273,0.0933738648891449,9.59596061706543,-0.1068115234375,0.9765625,-0.335693359375
3.1299999,1.9584569931030273,0.09816227108240128,9.59596061706543,-0.18310546875,0.7171630859375,-0.396728515625
3.1499999,1.9608511924743652,0.10055647045373917,9.59835433959961,-0.48828125,0.8697509765625,0.2899169921875
3.1699999,1.9608511924743652,0.11013327538967133,9.59596061706543,-0.5645751953125,1.1138916015625,-0.0457763671875
3.1899999,1.9608511924743652,0.11252748221158981,9.593565940856934,-0.2288818359375,0.91552734375,-0.1373291015625
3.2099999,1.9608511924743652,0.10534487664699554,9.59596061706543,0.18310546875,0.9765625,0.244140625
3.2299999,1.9608511924743652,0.10534487664699554,9.59596061706543,-0.18310546875,0.8087158203125,-0.1983642578125
3.2499999,1.9632453918457031,0.10295066982507706,9.59835433959961,-0.18310546875,0.9002685546875,-0.3662109375
3.2699999,1.9608511924743652,0.10534487664699554,9.600749015808105,0.0457763671875,1.0528564453125,-0.091552734375
3.2899999,1.9608511924743652,0.1149216815829277,9.600749015808105,0.0457763671875,0.9002685546875,0.091552734375
3.3099999,1.9584569931030273,0.1173158809542656,9.605537414550781,-0.6256103515625,0.762939453125,0.3509521484375
3.3299999000000002,1.9584569931030273,0.1173158809542656,9.603142738342285,-0.762939453125,0.8392333984375,0.2288818359375
3.3499999,1.9584569931030273,0.11252748221158981,9.600749015808105,-0.3814697265625,0.8697509765625,0
3.3699999,1.9584569931030273,0.10295066982507706,9.59596061706543,0.152587890625,1.068115234375,-0.0762939453125
3.3899999,1.9584569931030273,0.09816227108240128,9.593565940856934,-0.0762939453125,0.91552734375,-0.1068115234375
3.4099999,1.9584569931030273,0.09816227108240128,9.591172218322754,-0.335693359375,0.640869140625,-0.06103515625
3.4299999,1.9560627937316895,0.10055647045373917,9.593565940856934,-0.0457763671875,0.7171630859375,0.1220703125
3.4499999,1.9536685943603516,0.0933738648891449,9.593565940856934,0.244140625,0.7476806640625,0.3204345703125
3.4699999,1.9512743949890137,0.0933738648891449,9.59596061706543,0.4119873046875,0.885009765625,-0.18310546875
3.4899999,1.9512743949890137,0.090979665517807,9.59835433959961,0.274658203125,0.946044921875,-0.3662109375
3.5099999,1.9512743949890137,0.09816227108240128,9.59835433959961,0.1220703125,0.8087158203125,0.0457763671875
3.5299999,1.9512743949890137,0.11013327538967133,9.603142738342285,-0.0762939453125,0.885009765625,0.1068115234375
3.5499999,1.9536685943603516,0.1149216815829277,9.59835433959961,-0.335693359375,0.5340576171875,0.274658203125
3.5699999,1.9536685943603516,0.11971008777618408,9.59835433959961,-0.030517578125,0.5645751953125,0.3204345703125
3.5899999,1.9560627937316895,0.11252748221158981,9.591172218322754,0.1678466796875,0.5340576171875,0.30517578125
3.6099999,1.9584569931030273,0.08140286058187485,9.579200744628906,-0.1373291015625,0.9613037109375,-0.732421875
3.6299999,1.9584569931030273,0.07422025501728058,9.579200744628906,0.06103515625,1.15966796875,-0.9918212890625
3.6499999,1.9584569931030273,0.07422025501728058,9.583989143371582,-0.091552734375,1.0223388671875,-0.518798828125
3.6699999,1.9584569931030273,0.090979665517807,9.591172218322754,-0.1220703125,0.8544921875,-0.7171630859375
3.6899999,1.9560627937316895,0.10534487664699554,9.59596061706543,-0.518798828125,0.762939453125,-0.9307861328125
3.7099999,1.9560627937316895,0.1173158809542656,9.59835433959961,-0.7781982421875,0.7781982421875,-0.4730224609375
3.7299999,1.9560627937316895,0.12210428714752197,9.593565940856934,-0.42724609375,1.1138916015625,-0.244140625
3.7499999,1.9560627937316895,0.1173158809542656,9.591172218322754,-0.1678466796875,1.2359619140625,-0.4425048828125
3.7699999,1.9584569931030273,0.11252748221158981,9.586383819580078,-0.0457763671875,1.03759765625,-0.579833984375
3.7899999,1.9584569931030273,0.10534487664699554,9.588777542114258,0.2288818359375,1.129150390625,-0.2288818359375
3.8099999,1.9608511924743652,0.10773907601833344,9.593565940856934,0.18310546875,0.91552734375,-0.1373291015625
3.8299999000000002,1.9584569931030273,0.1149216815829277,9.59835433959961,-0.1220703125,0.7476806640625,-0.3814697265625
3.8499999,1.9584569931030273,0.11971008777618408,9.593565940856934,-0.3204345703125,0.8544921875,0.1373291015625
3.8699999,1.9560627937316895,0.12449848651885986,9.59596061706543,-0.0762939453125,1.15966796875,0.3204345703125
3.8899999,1.9536685943603516,0.12449848651885986,9.586383819580078,-0.1678466796875,0.885009765625,-0.0762939453125
3.9099999,1.9512743949890137,0.1173158809542656,9.591172218322754,-0.335693359375,0.8697509765625,0.152587890625
3.9299999,1.9488801956176758,0.1149216815829277,9.591172218322754,-0.213623046875,1.1138916015625,0.518798828125
3.9499999,1.9488801956176758,0.1149216815829277,9.59596061706543,-0.396728515625,0.8544921875,0.54931640625
3.9699999,1.9488801956176758,0.11252748221158981,9.59835433959961,-0.3814697265625,0.762939453125,0.5645751953125
3.9899999,1.9488801956176758,0.10534487664699554,9.600749015808105,-0.1068115234375,0.6256103515625,0.5645751953125
4.0099999,1.9512743949890137,0.090979665517807,9.59596061706543,0.1373291015625,0.6866455078125,0.152587890625
4.029999900000001,1.9512743949890137,0.08140286058187485,9.593565940856934,0.1983642578125,1.1138916015625,-0.3204345703125
4.0499999,1.9512743949890137,0.07182604819536209,9.586383819580078,-0.0457763671875,1.007080078125,-0.48828125
4.069999900000001,1.9536685943603516,0.07900865375995636,9.581595420837402,0.06103515625,0.8087158203125,-0.6256103515625
4.0899999000000005,1.9536685943603516,0.0933738648891449,9.581595420837402,0.274658203125,1.03759765625,-0.2899169921875
4.1099999,1.9560627937316895,0.11013327538967133,9.583989143371582,-0.1068115234375,1.220703125,0.030517578125
4.1299999000000005,1.9560627937316895,0.12210428714752197,9.588777542114258,-0.579833984375,1.0986328125,0.030517578125
4.1499999,1.9560627937316895,0.12449848651885986,9.59596061706543,-0.6561279296875,0.701904296875,-0.0762939453125
4.1699999000000005,1.9536685943603516,0.1149216815829277,9.600749015808105,-0.1068115234375,0.79345703125,-0.091552734375
4.1899999,1.9536685943603516,0.1173158809542656,9.603142738342285,-0.1983642578125,0.8697509765625,-0.3662109375
4.209999900000001,1.9536685943603516,0.1149216815829277,9.59596061706543,-0.5035400390625,0.79345703125,0.091552734375
4.2299999,1.9584569931030273,0.11971008777618408,9.593565940856934,-0.3814697265625,1.1444091796875,0.4425048828125
4.249999900000001,1.9608511924743652,0.1149216815829277,9.583989143371582,-0.4730224609375,1.007080078125,0.396728515625
4.2699999,1.9608511924743652,0.10773907601833344,9.588777542114258,-0.518798828125,1.007080078125,0.0762939453125
4.289999900000001,1.9584569931030273,0.10055647045373917,9.591172218322754,-0.5950927734375,0.8087158203125,-0.244140625
4.3099999,1.9560627937316895,0.0933738648891449,9.591172218322754,-0.6256103515625,0.48828125,0.0152587890625
4.329999900000001,1.9536685943603516,0.090979665517807,9.59596061706543,-0.0457763671875,1.0223388671875,0.335693359375
4.3499999,1.9512743949890137,0.08619125932455063,9.593565940856934,-0.0762939453125,0.8392333984375,0.1068115234375
4.369999900000001,1.9536685943603516,0.08858546614646912,9.59835433959961,-0.0762939453125,0.732421875,-0.213623046875
4.3899999,1.9536685943603516,0.090979665517807,9.600749015808105,-0.213623046875,0.579833984375,-0.06103515625
4.409999900000001,1.9560627937316895,0.10295066982507706,9.605537414550781,-0.7476806640625,0.5340576171875,0.42724609375
4.4299999,1.9584569931030273,0.1149216815829277,9.603142738342285,-0.9918212890625,0.54931640625,0.8087158203125
4.449999900000001,1.9584569931030273,0.1173158809542656,9.605537414550781,-1.1749267578125,0.42724609375,0.67138671875
4.4699999,1.9608511924743652,0.10773907601833344,9.593565940856934,-0.3509521484375,0.396728515625,0.4425048828125
4.489999900000001,1.9608511924743652,0.08379705995321274,9.583989143371582,0.579833984375,0.9765625,0.0762939453125
4.5099999,1.9632453918457031,0.05506663769483566,9.57441234588623,1.0986328125,1.220703125,-0.79345703125
4.529999900000001,1.9632453918457031,0.05027823522686958,9.569623947143555,1.5716552734375,1.1749267578125,-1.64794921875
4.5499999,1.9608511924743652,0.05746084079146385,9.576807022094727,1.495361328125,1.220703125,-0.885009765625
4.569999900000001,1.9608511924743652,0.09576806426048279,9.588777542114258,0.396728515625,0.9918212890625,-0.1220703125
4.5899999000000005,1.9584569931030273,0.13407529890537262,9.59596061706543,-0.9307861328125,0.5645751953125,0.1983642578125
4.609999900000001,1.9584569931030273,0.14844051003456116,9.607931137084961,-0.54931640625,1.068115234375,0.640869140625
4.6299999000000005,1.9584569931030273,0.14365209639072418,9.59835433959961,-0.274658203125,0.7476806640625,0.244140625
4.6499999,1.9584569931030273,0.11971008777618408,9.59835433959961,0.457763671875,0.9613037109375,-0.1983642578125
4.6699999000000005,1.9560627937316895,0.0933738648891449,9.591172218322754,0.457763671875,0.9613037109375,-0.244140625
4.6899999,1.9560627937316895,0.08619125932455063,9.593565940856934,-0.0152587890625,0.823974609375,-0.518798828125
4.709999900000001,1.9560627937316895,0.09816227108240128,9.593565940856934,-0.3814697265625,0.9002685546875,-0.30517578125
4.7299999,1.9584569931030273,0.1173158809542656,9.588777542114258,-0.7476806640625,0.762939453125,0.457763671875
4.749999900000001,1.9584569931030273,0.12449848651885986,9.588777542114258,-0.213623046875,1.2969970703125,0.8697509765625
4.7699999,1.9584569931030273,0.1173158809542656,9.579200744628906,-0.030517578125,0.732421875,0.1220703125
4.789999900000001,1.9560627937316895,0.10295066982507706,9.583989143371582,0.6866455078125,1.007080078125,-0.579833984375
4.8099999,1.9536685943603516,0.0933738648891449,9.583989143371582,0.6103515625,1.007080078125,-0.4425048828125
4.829999900000001,1.9512743949890137,0.10055647045373917,9.591172218322754,0.1678466796875,1.0833740234375,-0.0152587890625
4.8499999,1.9488801956176758,0.11971008777618408,9.593565940856934,-0.5035400390625,0.7476806640625,0.30517578125
4.869999900000001,1.9488801956176758,0.13407529890537262,9.59835433959961,-0.579833984375,0.823974609375,0.335693359375
4.8899999,1.9488801956176758,0.12689268589019775,9.59835433959961,-0.213623046875,1.0833740234375,0.4425048828125
4.909999900000001,1.9536685943603516,0.12210428714752197,9.59596061706543,0.091552734375,1.0528564453125,-0.1983642578125
4.9299999,1.9584569931030273,0.10055647045373917,9.593565940856934,0.1678466796875,0.9002685546875,-0.1373291015625
4.949999900000001,1.9608511924743652,0.09576806426048279,9.59596061706543,0.244140625,0.9307861328125,-0.091552734375
4.9699999,1.9608511924743652,0.10055647045373917,9.593565940856934,0.396728515625,1.0223388671875,-0.3204345703125
4.989999900000001,1.9584569931030273,0.10534487664699554,9.593565940856934,0.1373291015625,0.9765625,0.06103515625
5.0099999,1.9536685943603516,0.1149216815829277,9.593565940856934,-0.06103515625,0.9918212890625,0.06103515625
5.029999900000001,1.9512743949890137,0.12210428714752197,9.593565940856934,0.0152587890625,1.007080078125,-0.244140625
5.0499999,1.946485996246338,0.12449848651885986,9.588777542114258,0.091552734375,0.9918212890625,-0.152587890625
5.069999900000001,1.946485996246338,0.12449848651885986,9.59596061706543,0.3662109375,1.129150390625,0.244140625
5.0899999000000005,1.946485996246338,0.12928688526153564,9.588777542114258,0.152587890625,0.7171630859375,0.0762939453125
5.109999900000001,1.9488801956176758,0.11971008777618408,9.591172218322754,0,0.7781982421875,0.0762939453125
5.1299999000000005,1.9536685943603516,0.1149216815829277,9.591172218322754,0.1068115234375,0.946044921875,-0.3662109375
5.1499999,1.9536685943603516,0.1173158809542656,9.593565940856934,0.4119873046875,0.91552734375,0.0152587890625
5.1699999000000005,1.9536685943603516,0.12210428714752197,9.59835433959961,0.3204345703125,0.9918212890625,0
5.1899999,1.9512743949890137,0.11971008777618408,9.59596061706543,0.1678466796875,1.0986328125,0.0152587890625
5.209999900000001,1.9512743949890137,0.12449848651885986,9.59835433959961,0.2288818359375,1.0833740234375,-0.3509521484375
5.2299999,1.9488801956176758,0.11971008777618408,9.59835433959961,0.732421875,0.9765625,-0.2899169921875
5.249999900000001,1.9488801956176758,0.12210428714752197,9.59835433959961,0.79345703125,0.8544921875,-0.18310546875
5.2699999,1.946485996246338,0.12689268589019775,9.59596061706543,0.946044921875,1.007080078125,-0.4425048828125
5.289999900000001,1.944091796875,0.13168109953403473,9.59596061706543,0.9307861328125,1.129150390625,-0.4730224609375
5.3099999,1.944091796875,0.1412578970193863,9.591172218322754,0.457763671875,0.8087158203125,-0.42724609375
5.329999900000001,1.944091796875,0.14844051003456116,9.59596061706543,0.579833984375,1.0986328125,-0.244140625
5.3499999,1.944091796875,0.15083470940589905,9.59596061706543,0.8544921875,1.068115234375,-0.2288818359375
5.369999900000001,1.946485996246338,0.15083470940589905,9.600749015808105,0.6866455078125,1.03759765625,-0.6561279296875
5.3899999,1.946485996246338,0.15562310814857483,9.600749015808105,0.42724609375,0.7781982421875,-0.7171630859375
5.409999900000001,1.9488801956176758,0.1628057211637497,9.603142738342285,0.18310546875,0.732421875,-0.1983642578125
5.4299999,1.9488801956176758,0.16519992053508759,9.59835433959961,0.274658203125,0.91552734375,0
5.449999900000001,1.946485996246338,0.16759411990642548,9.59835433959961,0.4425048828125,1.220703125,-0.457763671875
5.4699999,1.944091796875,0.16519992053508759,9.59835433959961,0.579833984375,1.0986328125,-0.5035400390625
5.489999900000001,1.941697597503662,0.16519992053508759,9.600749015808105,-0.518798828125,0.48828125,-0.30517578125
5.5099999,1.941697597503662,0.16998831927776337,9.603142738342285,-0.1068115234375,0.7781982421875,-0.1678466796875
5.529999900000001,1.944091796875,0.16759411990642548,9.600749015808105,0.54931640625,0.946044921875,-0.1220703125
5.5499999,1.944091796875,0.16998831927776337,9.59596061706543,0.6256103515625,1.03759765625,-0.6256103515625
5.569999900000001,1.944091796875,0.16519992053508759,9.59596061706543,0.152587890625,0.9765625,-0.67138671875
5.5899999000000005,1.9393033981323242,0.1628057211637497,9.59596061706543,-0.4425048828125,0.640869140625,-0.3662109375
5.609999900000001,1.9369091987609863,0.16998831927776337,9.600749015808105,-0.244140625,0.7171630859375,-0.79345703125
5.6299999000000005,1.9345149993896484,0.16519992053508759,9.59596061706543,0.1373291015625,0.823974609375,-0.5340576171875
5.6499999,1.9345149993896484,0.16519992053508759,9.59596061706543,1.0223388671875,1.0833740234375,-0.4119873046875
5.6699999000000005,1.9393033981323242,0.17477671802043915,9.593565940856934,1.5106201171875,0.9307861328125,-0.91552734375
5.6899999,1.944091796875,0.19393034279346466,9.59596061706543,1.3885498046875,0.640869140625,-0.3204345703125
5.709999900000001,1.946485996246338,0.2298433631658554,9.59596061706543,0.4425048828125,0.7476806640625,0.732421875
5.7299999,1.946485996246338,0.24181437492370605,9.593565940856934,-0.6866455078125,0.9307861328125,1.7852783203125
5.749999900000001,1.946485996246338,0.2322375625371933,9.593565940856934,-1.0986328125,1.0833740234375,0.9918212890625
5.7699999,1.946485996246338,0.2059013396501541,9.581595420837402,-0.8392333984375,0.6103515625,-0.9002685546875
5.789999900000001,1.944091796875,0.17238251864910126,9.581595420837402,0.335693359375,1.03759765625,-0.42724609375
5.8099999,1.944091796875,0.15083470940589905,9.576807022094727,0.54931640625,1.190185546875,0.30517578125
5.829999900000001,1.944091796875,0.1604115068912506,9.579200744628906,-0.213623046875,0.7171630859375,-0.48828125
5.8499999,1.944091796875,0.15801730751991272,9.583989143371582,-0.2288818359375,0.79345703125,-0.3204345703125
5.869999900000001,1.944091796875,0.1628057211637497,9.588777542114258,0.518798828125,1.2054443359375,-0.0762939453125
5.8899999,1.941697597503662,0.15801730751991272,9.583989143371582,0.8087158203125,1.1138916015625,-0.4119873046875
5.909999900000001,1.9393033981323242,0.15322890877723694,9.591172218322754,1.28173828125,1.251220703125,-1.190185546875
5.9299999,1.9369091987609863,0.14604631066322327,9.588777542114258,1.1444091796875,1.190185546875,-1.251220703125
5.949999900000001,1.9393033981323242,0.1412578970193863,9.586383819580078,1.7242431640625,1.2054443359375,-1.40380859375
5.9699999,1.946485996246338,0.14365209639072418,9.593565940856934,1.9073486328125,1.7852783203125,-1.7547607421875
5.989999900000001,1.944091796875,0.12210428714752197,9.57441234588623,2.01416015625,1.2359619140625,-2.4261474609375
6.0099999,1.946485996246338,0.090979665517807,9.591172218322754,4.6539306640625,2.7008056640625,-3.4027099609375
6.029999900000001,1.941697597503662,0.05506663769483566,9.583989143371582,4.638671875,2.5177001953125,-5.096435546875
6.0499999,1.9273324012756348,0.05506663769483566,9.600749015808105,5.859375,1.373291015625,-6.744384765625
6.069999900000001,1.9129672050476074,0.06703764945268631,9.593565940856934,6.8206787109375,1.2969970703125,-5.6304931640625
6.0899999000000005,1.889025092124939,0.13407529890537262,9.581595420837402,8.0108642578125,3.326416015625,-5.18798828125
6.109999900000001,1.8698714971542358,0.21547815203666687,9.5408935546875,8.0108642578125,5.79833984375,-4.7149658203125
6.1299999000000005,1.867477297782898,0.2944868206977844,9.490615844726562,8.0718994140625,7.0343017578125,-3.5247802734375
6.149999900000001,1.9249382019042969,0.35913026332855225,9.418789863586426,11.7034912109375,9.70458984375,-3.2806396484375
6.1699999000000005,2.051830768585205,0.40462008118629456,9.318233489990234,18.3258056640625,12.0849609375,-5.0201416015625
6.1899999,2.2697031497955322,0.3998316824436188,9.27034854888916,19.4854736328125,17.8375244140625,-5.279541015625
6.209999900000001,2.5258827209472656,0.3663128614425659,9.289502143859863,0.335693359375,19.134521484375,-4.69970703125
6.2299999,2.7269957065582275,0.3471592366695404,9.344569206237793,-20.233154296875,14.495849609375,-7.6446533203125
6.249999900000001,2.806004285812378,0.3447650372982025,9.454702377319336,-24.505615234375,15.716552734375,-9.613037109375
6.2699999,2.719813108444214,0.4118026793003082,9.5408935546875,-22.0489501953125,18.2952880859375,-8.392333984375
6.289999900000001,2.5019407272338867,0.5410895943641663,9.646238327026367,-14.2822265625,18.768310546875,-7.0648193359375
6.3099999,2.22660756111145,0.6488286852836609,9.813833236694336,-8.48388671875,16.9525146484375,-2.9449462890625
6.329999900000001,1.9393033981323242,0.7134721279144287,10.005369186401367,-11.2152099609375,11.8560791015625,0.8087158203125
6.3499999,1.678335428237915,0.7541735172271729,10.228029251098633,-16.2811279296875,8.7432861328125,1.0528564453125
6.369999900000001,1.4460978507995605,0.7709329724311829,10.450690269470215,-20.08056640625,6.2255859375,6.1492919921875
6.3899999,1.2545616626739502,0.8307880163192749,10.63743782043457,-21.2554931640625,-1.3580322265625,12.3291015625
6.409999900000001,1.0989385843276978,0.9217676520347595,10.771512985229492,-15.167236328125,-9.7503662109375,17.1966552734375
6.4299999,0.9696516990661621,1.0247182846069336,10.72602367401123,-8.4991455078125,-15.5792236328125,21.1639404296875
6.449999900000001,0.8643068075180054,1.2641384601593018,10.5344877243042,-6.0272216796875,-14.984130859375,25.7110595703125
6.4699999,0.7589619159698486,1.4197616577148438,10.218452453613281,-11.8560791015625,-12.7105712890625,40.9393310546875
6.489999900000001,0.6727706789970398,1.5514427423477173,9.871294021606445,-19.683837890625,-13.0615234375,51.5594482421875
6.5099999,0.608127236366272,1.5849615335464478,9.653421401977539,-16.021728515625,-9.8114013671875,50.262451171875
6.529999900000001,0.5746083855628967,1.460463047027588,9.48343276977539,-12.603759765625,-10.1470947265625,54.5501708984375
6.5499999,0.5626373887062073,1.292868971824646,9.44752025604248,-11.9171142578125,-9.2315673828125,63.0645751953125
6.569999900000001,0.5506663918495178,1.0223240852355957,9.440337181091309,-13.0462646484375,-9.063720703125,68.29833984375
6.5899999000000005,0.5554547905921936,0.5506663918495178,9.493009567260742,-10.3759765625,-9.735107421875,66.4825439453125
6.609999900000001,0.5746083855628967,-0.06703764945268631,9.581595420837402,3.11279296875,-9.918212890625,55.0689697265625
6.6299999000000005,0.6177040338516235,-0.6967126727104187,9.600749015808105,8.6517333984375,-16.1285400390625,41.6259765625
6.649999900000001,0.8140285611152649,-1.501164436340332,9.337387084960938,-0.1373291015625,-9.765625,34.24072265625
6.6699999000000005,0.9409212470054626,-1.5969325304031372,9.078812599182129,-6.988525390625,-4.608154296875,28.656005859375
6.6899999,1.0749965906143188,-1.5466543436050415,8.87291145324707,-10.6964111328125,-1.3885498046875,23.2696533203125
6.709999900000001,1.2066776752471924,-1.4389152526855469,8.793902397155762,-5.7373046875,1.556396484375,21.759033203125
6.7299999,1.3024457693099976,-1.3958195447921753,8.868123054504395,0.48828125,3.7078857421875,23.223876953125
6.749999900000001,1.3646949529647827,-1.4293384552001953,9.057265281677246,1.6021728515625,2.3040771484375,17.486572265625
6.7699999,1.3982137441635132,-1.6280571222305298,9.244012832641602,-1.3427734375,-0.7171630859375,8.8043212890625
6.789999900000001,1.3958195447921753,-1.9297266006469727,9.406818389892578,-1.6937255859375,0.9002685546875,3.387451171875
6.8099999,1.3958195447921753,-2.190694570541382,9.469067573547363,-2.7008056640625,4.486083984375,-4.9896240234375
6.829999900000001,1.4245500564575195,-2.360682964324951,9.44991397857666,2.5482177734375,5.279541015625,-13.6871337890625
6.8499999,1.4628572463989258,-2.3750481605529785,9.421183586120605,11.505126953125,5.1422119140625,-19.622802734375
6.869999900000001,1.522712230682373,-2.1164743900299072,9.44991397857666,13.9312744140625,7.1868896484375,-25.238037109375
6.8899999,1.6089035272598267,-1.778891921043396,9.466673851013184,4.82177734375,5.340576171875,-22.430419921875
6.909999900000001,1.6711528301239014,-1.5322890281677246,9.473855972290039,2.5634765625,5.126953125,-17.5323486328125
6.9299999,1.7405846118927002,-1.4963760375976562,9.550470352172852,24.7650146484375,10.986328125,-25.8026123046875
6.949999900000001,1.8171991109848022,-1.5275006294250488,9.615114212036133,37.3077392578125,10.9100341796875,-44.8760986328125
6.9699999,1.8722656965255737,-1.4508862495422363,9.751583099365234,22.3236083984375,5.523681640625,-50.872802734375
6.989999900000001,1.9081788063049316,-1.161187767982483,9.923966407775879,15.2130126953125,4.0740966796875,-39.1693115234375
7.0099999,1.922544002532959,-0.8020575642585754,9.981427192687988,18.7225341796875,1.129150390625,-31.79931640625
7.029999900000001,1.9129672050476074,-0.6655880808830261,9.926360130310059,30.7159423828125,0.4730224609375,-37.90283203125
7.0499999,1.886630892753601,-0.7589619159698486,9.823410034179688,32.9437255859375,4.2724609375,-50.1708984375
7.069999900000001,1.8794482946395874,-0.9050082564353943,9.718064308166504,23.1781005859375,3.570556640625,-56.57958984375
7.0899999000000005,1.9057846069335938,-0.9600749015808105,9.641449928283691,20.44677734375,-1.6021728515625,-52.5970458984375
7.109999900000001,1.9632453918457031,-0.9624691009521484,9.593565940856934,23.6663818359375,-3.1280517578125,-48.2940673828125
7.1299999000000005,2.0422539710998535,-0.8140285611152649,9.593565940856934,20.263671875,2.4871826171875,-56.915283203125
7.149999900000001,2.1547815799713135,-0.4836287498474121,9.648633003234863,-1.617431640625,4.9285888671875,-65.3076171875
7.1699999000000005,2.27209734916687,-0.028730420395731926,9.785101890563965,-17.1966552734375,1.52587890625,-51.5594482421875
7.1899999,2.3942017555236816,0.4812345504760742,9.952696800231934,-7.5836181640625,-3.082275390625,-37.322998046875
7.209999900000001,2.497152328491211,0.8188169598579407,10.065223693847656,11.53564453125,-5.1422119140625,-38.63525390625
7.2299999,2.5737667083740234,0.9576807022094727,10.072406768798828,7.7056884765625,-6.0882568359375,-46.112060546875
7.249999900000001,2.5953147411346436,0.9481038451194763,9.983820915222168,-13.4124755859375,-6.591796875,-40.2069091796875
7.2699999,2.5761611461639404,0.9433154463768005,9.794678688049316,-26.0009765625,-7.0953369140625,-29.4952392578125
7.289999900000001,2.535459518432617,0.8882488012313843,9.560047149658203,-17.5628662109375,-4.6844482421875,-24.810791015625
7.3099999,2.4827871322631836,0.751779317855835,9.334992408752441,3.570556640625,-0.9613037109375,-28.5797119140625
7.329999900000001,2.4396915435791016,0.646434485912323,9.126696586608887,5.2947998046875,-1.800537109375,-32.3944091796875
7.3499999,2.410961151123047,0.7206547260284424,8.990227699279785,-6.5155029296875,-0.6561279296875,-29.571533203125
7.369999900000001,2.406172752380371,0.9888052940368652,8.860940933227539,-12.8326416015625,3.0517578125,-19.012451171875
7.3899999,2.4013843536376953,1.3263877630233765,8.755595207214355,-11.6729736328125,7.415771484375,-8.056640625
7.409999900000001,2.389413356781006,1.6184803247451782,8.731653213500977,0.0762939453125,11.5966796875,-6.256103515625
7.4299999,2.343923568725586,1.7477672100067139,8.834604263305664,2.62451171875,11.7645263671875,-6.2713623046875
7.449999900000001,2.2625205516815186,1.7525556087493896,9.07641887664795,-17.7764892578125,9.46044921875,0.2288818359375
7.4699999,2.164358377456665,1.6543933153152466,9.430760383605957,-39.2913818359375,7.5836181640625,8.4381103515625
7.489999900000001,2.0901381969451904,1.3527239561080933,9.763554573059082,-31.67724609375,2.8076171875,12.725830078125
7.5099999,2.070984363555908,1.0055646896362305,10.122684478759766,8.5296630859375,1.251220703125,1.40380859375
7.529999900000001,2.0614075660705566,0.6919242739677429,10.261548042297363,22.5067138671875,-6.4849853515625,-7.6141357421875
7.5499999,2.054224967956543,0.7589619159698486,10.189722061157227,9.5062255859375,-7.2174072265625,-5.8135986328125
7.569999900000001,2.0207061767578125,1.1037269830703735,10.022128105163574,0.396728515625,8.2244873046875,9.368896484375
7.5899999000000005,1.9393033981323242,1.623268723487854,9.81143856048584,-14.5263671875,12.8631591796875,25.1922607421875
7.609999900000001,1.8291701078414917,2.0183119773864746,9.785101890563965,-29.1900634765625,3.326416015625,29.1900634765625
7.6299999000000005,1.6855180263519287,2.140416383743286,9.86889934539795,-34.637451171875,-6.9427490234375,31.0821533203125
7.649999900000001,1.50355863571167,2.1332337856292725,9.911994934082031,-36.7584228515625,-10.1776123046875,33.0047607421875
7.6699999000000005,1.290474772453308,2.094926595687866,9.904812812805176,-39.7796630859375,-0.79345703125,41.6259765625
7.6899999,1.036689281463623,2.0422539710998535,9.828198432922363,-57.525634765625,2.5634765625,54.7943115234375
7.709999900000001,0.7493851184844971,1.8818424940109253,9.835380554199219,-66.40625,-3.6468505859375,65.887451171875
7.7299999,0.47165772318840027,1.501164436340332,9.84256362915039,-45.4864501953125,-9.1705322265625,66.40625
7.749999900000001,0.22505496442317963,0.9457096457481384,9.962273597717285,-14.8468017578125,-3.9825439453125,61.981201171875
7.7699999,0.033518824726343155,0.3974374830722809,9.981427192687988,-10.223388671875,-2.8228759765625,58.65478515625
7.789999900000001,-0.07900865375995636,0.05506663769483566,9.99339771270752,-21.6064453125,-4.0435791015625,62.3626708984375
7.8099999,-0.1388636976480484,-0.0933738648891449,10.000580787658691,-17.2576904296875,-0.0457763671875,71.83837890625
7.829999900000001,-0.17477671802043915,-0.24420857429504395,10.002974510192871,3.4027099609375,-1.678466796875,77.45361328125
7.8499999,-0.20350714027881622,-0.44532153010368347,10.002974510192871,21.484375,-9.5062255859375,65.5670166015625
7.869999900000001,-0.2322375625371933,-0.7206547260284424,9.983820915222168,18.7225341796875,-14.892578125,52.18505859375
7.8899999,-0.26096799969673157,-1.0630255937576294,9.849745750427246,1.46484375,-15.0909423828125,56.976318359375
7.909999900000001,-0.2513911724090576,-1.2617442607879639,9.591172218322754,-4.39453125,-11.3677978515625,57.1746826171875
7.9299999,-0.1867477297782898,-1.3838485479354858,9.227252960205078,5.889892578125,-9.21630859375,51.0406494140625
7.949999900000001,-0.040701430290937424,-1.522712230682373,8.860940933227539,15.2435302734375,-6.591796875,49.01123046875
7.9699999,0.12689268589019775,-1.5658079385757446,8.571242332458496,14.6636962890625,-0.946044921875,46.051025390625
7.989999900000001,0.2753331959247589,-1.5394717454910278,8.453926086425781,9.674072265625,5.7373046875,43.8385009765625
8.0099999,0.40940847992897034,-1.5179238319396973,8.49941635131836,6.6375732421875,8.30078125,47.4853515625
8.0299999,0.524330198764801,-1.5849615335464478,8.655038833618164,9.368896484375,6.4697265625,47.4853515625
8.049999900000001,0.608127236366272,-1.7693150043487549,8.911218643188477,19.9737548828125,8.5296630859375,38.1622314453125
8.069999900000001,0.689530074596405,-2.013523578643799,9.17697525024414,18.6614990234375,11.810302734375,26.0009765625
8.0899999,0.7541735172271729,-2.2625205516815186,9.433155059814453,7.720947265625,10.528564453125,22.3541259765625
8.1099999,0.8044517636299133,-2.3750481605529785,9.6989107131958,9.2315673828125,7.6751708984375,19.95849609375
8.129999900000001,0.8403648138046265,-2.5234885215759277,10.005369186401367,21.392822265625,7.0953369140625,15.2130126953125
8.149999900000001,0.9050082564353943,-2.6886885166168213,10.27591323852539,19.3939208984375,1.40380859375,4.2877197265625
8.1699999,0.9744400978088379,-2.9544448852539062,10.393229484558105,8.3770751953125,-8.4686279296875,-10.2386474609375
8.1899999,1.1180921792984009,-3.4524388313293457,10.144232749938965,27.34375,-2.2735595703125,-38.0859375
8.2099999,1.2210428714752197,-3.3446998596191406,9.938331604003906,16.2506103515625,1.6632080078125,-49.468994140625
8.229999900000001,1.3623007535934448,-3.0142998695373535,9.854534149169922,-2.1514892578125,0.0762939453125,-44.7998046875
8.2499999,1.5442601442337036,-2.5306711196899414,9.931148529052734,-2.5177001953125,-4.3487548828125,-45.22705078125
8.2699999,1.7262194156646729,-2.142810583114624,10.046070098876953,11.29150390625,-7.293701171875,-53.009033203125
8.2899999,1.8746598958969116,-1.9297266006469727,10.072406768798828,14.739990234375,-9.94873046875,-58.685302734375
8.309999900000001,1.9776105880737305,-1.6855180263519287,10.036493301391602,5.126953125,-4.0283203125,-62.3931884765625
8.3299999,2.0829553604125977,-1.3910311460494995,9.971850395202637,-3.997802734375,0.6103515625,-58.7005615234375
8.3499999,2.1978771686553955,-1.0295066833496094,9.876082420349121,-1.4801025390625,-5.31005859375,-52.1240234375
8.3699999,2.298433542251587,-0.7733271718025208,9.706093788146973,6.072998046875,-11.2762451171875,-48.2025146484375
8.389999900000001,2.3582887649536133,-0.7445967197418213,9.38048267364502,4.9285888671875,-7.6141357421875,-48.4619140625
8.4099999,2.360682964324951,-0.8068459630012512,9.05247688293457,-2.25830078125,7.50732421875,-54.9163818359375
8.4299999,2.33913516998291,-0.8427590131759644,8.81784439086914,-11.749267578125,14.6484375,-55.17578125
8.4499999,2.322375535964966,-0.8427590131759644,8.825027465820312,-14.984130859375,9.918212890625,-45.440673828125
8.469999900000001,2.31758713722229,-0.7829039692878723,9.074024200439453,-5.7830810546875,4.1656494140625,-42.022705078125
8.4899999,2.315192937850952,-0.7781155705451965,9.35654067993164,5.6915283203125,1.46484375,-48.065185546875
8.5099999,2.31758713722229,-0.7733271718025208,9.533711433410645,3.7689208984375,-0.6256103515625,-51.6510009765625
8.5299999,2.3247697353363037,-0.6200982332229614,9.593565940856934,2.1209716796875,3.1890869140625,-49.072265625
8.549999900000001,2.3702597618103027,-0.31364041566848755,9.519346237182617,0.1068115234375,5.2032470703125,-40.6951904296875
8.569999900000001,2.4588451385498047,0.10055647045373917,9.387664794921875,2.227783203125,4.8370361328125,-33.0963134765625
8.5899999,2.5713725090026855,0.4908113479614258,9.232041358947754,7.4005126953125,3.84521484375,-29.2205810546875
8.6099999,2.676717519760132,0.7924807667732239,9.062053680419922,0.48828125,6.6680908203125,-24.200439453125
8.629999900000001,2.738966703414917,1.0342950820922852,8.999804496765137,-14.2059326171875,14.8162841796875,-16.5557861328125
8.649999900000001,2.7533318996429443,1.1204863786697388,9.14345645904541,-20.7672119140625,18.6004638671875,-7.232666015625
8.6699999,2.715024709701538,1.0678139925003052,9.485827445983887,-7.0953369140625,10.040283203125,-3.0517578125
8.6899999,2.609679937362671,0.8236053586006165,9.861717224121094,3.11279296875,-2.0904541015625,-4.94384765625
8.709999900000001,2.451662540435791,0.3998316824436188,10.11789608001709,-10.4217529296875,0.6256103515625,-4.241943359375
8.729999900000001,2.2409727573394775,-0.08379705995321274,10.158597946166992,-27.9693603515625,11.6119384765625,-4.7607421875
8.7499999,2.03507137298584,-0.44532153010368347,10.041281700134277,-26.85546875,15.167236328125,-9.82666015625
8.7699999,1.8602946996688843,-0.5770025849342346,9.895236015319824,-8.8348388671875,10.040283203125,-13.824462890625
8.7899999,1.6974890232086182,-0.3758896589279175,9.672574996948242,0.762939453125,4.730224609375,-9.2926025390625
8.809999900000001,1.5155296325683594,-0.040701430290937424,9.387664794921875,-26.611328125,12.20703125,4.7607421875
8.8299999,1.3096283674240112,0.2106897532939911,9.21288776397705,-52.093505859375,29.7088623046875,16.082763671875
8.8499999,1.1085153818130493,0.2561795711517334,9.272743225097656,-32.135009765625,31.463623046875,11.2152099609375
8.8699999,0.9289502501487732,0.20350714027881622,9.579200744628906,3.997802734375,15.2740478515625,1.0528564453125
8.889999900000001,0.7996633648872375,0.16759411990642548,10.04846477508545,13.0157470703125,6.3629150390625,6.2103271484375
8.9099999,0.7254431247711182,0.2059013396501541,10.450690269470215,-12.542724609375,11.4288330078125,21.514892578125
8.9299999,0.7038952708244324,0.2944868206977844,10.709263801574707,-30.120849609375,13.1683349609375,24.200439453125
8.9499999,0.7350199222564697,0.3663128614425659,10.879252433776855,-15.167236328125,6.1187744140625,18.8751220703125
8.969999900000001,0.7972691655158997,0.5147533416748047,10.931924819946289,7.9193115234375,-6.3629150390625,19.5770263671875
8.9899999,0.8212111592292786,0.7541735172271729,10.812214851379395,7.8125,-12.2528076171875,32.3028564453125
9.0099999,0.7876923680305481,0.9576807022094727,10.563218116760254,-25.8026123046875,-5.79833984375,48.4771728515625
9.0299999,0.6991068720817566,0.9193734526634216,10.307038307189941,-50.10986328125,0.885009765625,53.375244140625
9.049999900000001,0.5841852426528931,0.5913678407669067,10.132261276245117,-38.665771484375,-7.6141357421875,46.1883544921875
9.069999900000001,0.45250412821769714,0.21308395266532898,10.031704902648926,-9.7503662109375,-21.087646484375,37.3687744140625
9.0899999,0.33997663855552673,-0.11971008777618408,9.888052940368652,-2.044677734375,-21.4080810546875,45.1507568359375
9.1099999,0.24420857429504395,-0.28969839215278625,9.720458984375,-7.110595703125,-10.3302001953125,56.3812255859375
9.129999900000001,0.16759411990642548,-0.35673606395721436,9.435548782348633,-15.533447265625,-9.979248046875,55.6182861328125
9.149999900000001,0.08858546614646912,-0.3878606855869293,9.208099365234375,-9.1400146484375,-13.4735107421875,53.52783203125
9.1699999,0.004788403399288654,-0.4118026793003082,9.040505409240723,-4.0130615234375,-9.4146728515625,58.990478515625
9.1899999,-0.1149216815829277,-0.38307225704193115,8.954314231872559,-9.796142578125,-3.8909912109375,66.6961669921875
9.209999900000001,-0.2513911724090576,-0.4405331015586853,9.004592895507812,-9.6893310546875,-2.105712890625,70.4193115234375
9.229999900000001,-0.363918662071228,-0.6177040338516235,9.191340446472168,-14.7857666015625,-5.8441162109375,67.19970703125
9.2499999,-0.45489832758903503,-0.8164227604866028,9.466673851013184,-18.280029296875,-11.6729736328125,60.760498046875
9.2699999,-0.5003881454467773,-0.9433154463768005,9.68694019317627,-17.9443359375,-19.9432373046875,58.89892578125
9.2899999,-0.5027823448181152,-1.0678139925003052,9.773131370544434,-13.0157470703125,-22.2625732421875,68.4051513671875
9.309999900000001,-0.47644615173339844,-1.2425906658172607,9.605537414550781,-12.237548828125,-23.4375,68.5882568359375
9.3299999,-0.4381389021873474,-1.5658079385757446,9.342175483703613,-7.2479248046875,-13.702392578125,60.2569580078125
9.3499999,-0.395043283700943,-2.0661959648132324,9.035717010498047,-13.6566162109375,-3.7841796875,54.7637939453125
9.3699999,-0.33518823981285095,-2.6192567348480225,8.96149730682373,-11.1083984375,2.7618408203125,53.802490234375
9.389999900000001,-0.22505496442317963,-3.0789434909820557,9.105149269104004,6.8359375,-0.7781982421875,42.4041748046875
9.4099999,-0.023942016065120697,-3.375824451446533,9.411606788635254,20.93505859375,-5.79833984375,26.214599609375
9.4299999,0.2106897532939911,-3.3854012489318848,9.612719535827637,10.8184814453125,-10.6353759765625,17.6544189453125
9.4499999,0.43095630407333374,-3.136404275894165,9.624691009521484,-2.6702880859375,-5.126953125,19.256591796875
9.469999900000001,0.5410895943641663,-2.784456491470337,9.50498104095459,-12.5579833984375,5.2337646484375,28.472900390625
9.4899999,0.5339069962501526,-2.5234885215759277,9.375694274902344,-10.4217529296875,6.9427490234375,27.3590087890625
9.5099999,0.4836287498474121,-2.647987127304077,9.315838813781738,-4.2724609375,-0.1220703125,21.1181640625
9.5299999,0.42377370595932007,-3.0119056701660156,9.255983352661133,10.284423828125,-5.7373046875,6.8817138671875
9.549999900000001,0.3902548849582672,-3.450044631958008,9.097966194152832,25.6500244140625,-2.50244140625,-8.1024169921875
9.569999900000001,0.3734954595565796,-3.8355112075805664,8.904036521911621,14.7705078125,10.162353515625,-9.1400146484375
9.5899999,0.363918662071228,-4.027047157287598,8.87051773071289,-2.1514892578125,17.8985595703125,-11.90185546875
9.6099999,0.3711012601852417,-4.228160381317139,9.126696586608887,7.87353515625,9.521484375,-20.4925537109375
9.629999900000001,0.3902548849582672,-4.412513732910156,9.524134635925293,24.444580078125,-7.2174072265625,-36.9720458984375
9.649999900000001,0.43335050344467163,-4.520252704620361,9.804255485534668,27.40478515625,-15.625,-52.67333984375
9.6699999,0.49799394607543945,-4.4077253341674805,9.854534149169922,17.6849365234375,-3.5552978515625,-57.6629638671875
9.6899999,0.5889736413955688,-4.0533833503723145,9.667786598205566,10.6048583984375,7.0953369140625,-56.884765625
9.709999900000001,0.7206547260284424,-3.584120035171509,9.493009567260742,17.39501953125,8.270263671875,-55.7403564453125
9.729999900000001,1.1180921792984009,-2.849100112915039,9.440337181091309,21.2249755859375,-1.800537109375,-62.591552734375
9.7499999,1.314416766166687,-2.58813214302063,9.409213066101074,20.7366943359375,-1.953125,-67.108154296875
9.7699999,1.4939818382263184,-2.4157495498657227,9.258378028869629,15.2130126953125,2.685546875,-65.093994140625
9.7899999,1.6496049165725708,-2.1739351749420166,9.138668060302734,7.8125,13.0767822265625,-62.744140625
9.809999900000001,1.766920804977417,-1.965639591217041,9.10993766784668,5.401611328125,16.4947509765625,-61.553955078125
9.8299999,1.8579005002975464,-1.8195933103561401,9.217676162719727,4.1351318359375,9.8114013671875,-59.6160888671875
9.8499999,1.922544002532959,-1.7573440074920654,9.47146224975586,7.38525390625,8.1787109375,-60.546875
9.8699999,1.941697597503662,-1.7501614093780518,9.706093788146973,5.9661865234375,8.2550048828125,-64.605712890625
9.889999900000001,1.9249382019042969,-1.7693150043487549,9.871294021606445,3.1280517578125,7.4462890625,-64.6514892578125
9.9099999,1.8962076902389526,-1.7381904125213623,10.036493301391602,5.3253173828125,8.1634521484375,-64.6820068359375
9.9299999,1.867477297782898,-1.6184803247451782,10.137049674987793,7.62939453125,3.387451171875,-64.0716552734375
9.9499999,1.8626888990402222,-1.4101848602294922,10.26394271850586,9.4146728515625,-1.2969970703125,-64.239501953125
9.969999900000001,1.8722656965255737,-1.1420341730117798,10.299856185913086,7.1563720703125,-5.828857421875,-59.6923828125
9.9899999,1.900996208190918,-0.7948749661445618,10.220847129821777,3.4637451171875,-9.2010498046875,-57.2052001953125
10.0099999,1.944091796875,-0.4836287498474121,10.034099578857422,3.4027099609375,-5.828857421875,-52.764892578125
10.0299999,1.987187385559082,-0.181959331035614,9.765948295593262,3.0517578125,-4.33349609375,-49.0264892578125
10.049999900000001,2.03507137298584,0.028730420395731926,9.514557838439941,2.716064453125,-3.326416015625,-43.6553955078125
10.069999900000001,2.0661959648132324,0.15083470940589905,9.351752281188965,-2.8076171875,-1.0528564453125,-37.78076171875
10.0899999,2.078166961669922,0.2513911724090576,9.35654067993164,-4.5013427734375,1.9989013671875,-35.308837890625
10.1099999,2.0638017654418945,0.2944868206977844,9.473855972290039,-3.2501220703125,-1.068115234375,-31.1431884765625
10.129999900000001,2.0446481704711914,0.4141969084739685,9.622296333312988,0.9307861328125,-6.8817138671875,-27.1148681640625
10.149999900000001,2.0470423698425293,0.5195417404174805,9.696516990661621,3.631591796875,-6.40869140625,-20.8282470703125
10.1699999,2.0638017654418945,0.6009446382522583,9.603142738342285,-1.0986328125,-1.8768310546875,-13.6566162109375
10.1899999,2.0805611610412598,0.6919242739677429,9.44991397857666,-11.23046875,3.9215087890625,-10.2996826171875
10.209999900000001,2.051830768585205,0.7230489253997803,9.370905876159668,-18.06640625,6.744384765625,-2.2430419921875
10.229999900000001,1.9776105880737305,0.6224924325942993,9.545681953430176,-9.063720703125,5.126953125,7.38525390625
10.2499999,1.8363527059555054,0.40701428055763245,9.785101890563965,0.5340576171875,-5.950927734375,5.4931640625
10.2699999,1.6543933153152466,0.033518824726343155,9.981427192687988,2.593994140625,-11.8560791015625,-2.4871826171875
10.2899999,1.45806884765625,-0.22505496442317963,10.019734382629395,-1.03759765625,-3.631591796875,-5.9661865234375
10.309999900000001,1.278503656387329,-0.2801215946674347,9.847352027893066,-0.885009765625,0.9918212890625,-1.4801025390625
10.3299999,1.1228805780410767,0.028730420395731926,9.617507934570312,9.1552734375,-1.6326904296875,6.988525390625
10.3499999,0.9983820915222168,0.6991068720817566,9.437943458557129,9.4757080078125,-3.173828125,12.63427734375
10.3699999,0.8906430602073669,1.45806884765625,9.399636268615723,-4.2724609375,0.946044921875,30.2581787109375
10.389999900000001,0.7781155705451965,2.22660756111145,9.476250648498535,-14.22119140625,0.48828125,44.586181640625
10.4099999,0.6703764796257019,2.7964274883270264,9.617507934570312,-15.8233642578125,-5.7830810546875,54.779052734375
10.4299999,0.5746083855628967,3.1914708614349365,9.849745750427246,-8.514404296875,-3.3111572265625,60.8367919921875
10.4499999,0.4812345504760742,3.318363666534424,9.955090522766113,-23.1475830078125,-5.55419921875,78.8421630859375
10.469999900000001,0.40940847992897034,3.222595453262329,10.132261276245117,-32.2265625,-1.9989013671875,95.6573486328125
10.4899999,0.36152446269989014,2.9233202934265137,10.302249908447266,-40.069580078125,-5.279541015625,102.264404296875
10.5099999,0.3687070608139038,2.4468741416931152,10.558429718017578,-44.5098876953125,-14.4500732421875,106.7962646484375
10.5299999,0.395043283700943,1.7980455160140991,10.714052200317383,-47.4090576171875,-25.177001953125,116.455078125
10.549999900000001,0.43095630407333374,1.0773907899856567,10.678139686584473,-47.698974609375,-31.55517578125,122.3297119140625
10.569999900000001,0.45010992884635925,0.11971008777618408,10.448296546936035,-37.9180908203125,-26.4892578125,124.1455078125
10.5899999,0.43335050344467163,-0.8810662031173706,9.988609313964844,-34.3475341796875,-29.693603515625,120.1934814453125
10.6099999,0.40462008118629456,-2.1068975925445557,9.430760383605957,-34.2559814453125,-31.1279296875,120.1171875
10.629999900000001,0.3495534360408783,-3.378218650817871,8.911218643188477,-36.4990234375,-23.712158203125,112.60986328125
10.649999900000001,0.2537853717803955,-4.824316501617432,8.413225173950195,-28.1982421875,-19.59228515625,96.8170166015625
10.6699999,0.12689268589019775,-6.435614109039307,8.04930591583252,-7.0648193359375,-19.4854736328125,70.9228515625
10.6899999,-0.033518824726343155,-8.164227485656738,7.754819393157959,14.373779296875,-20.44677734375,36.3922119140625
10.709999900000001,-0.22744916379451752,-9.830592155456543,7.491456985473633,39.4287109375,-14.0838623046875,-8.85009765625
10.729999900000001,-0.40940847992897034,-11.195286750793457,7.184999465942383,55.6182861328125,-2.6397705078125,-57.586669921875
10.7499999,-0.586579442024231,-12.349292755126953,6.9695210456848145,57.4188232421875,18.8446044921875,-104.9346923828125
10.7699999,-0.8236053586006165,-13.2710599899292,6.691793918609619,41.015625,30.4718017578125,-163.75732421875
10.7899999,-1.161187767982483,-13.48414421081543,6.6846113204956055,34.210205078125,53.40576171875,-255.5084228515625
10.809999900000001,-1.6496049165725708,-12.653355598449707,6.955155849456787,-0.1373291015625,73.4405517578125,-318.4356689453125
10.8299999,-2.1164743900299072,-10.35252857208252,7.491456985473633,-46.3104248046875,72.4029541015625,-319.2291259765625
10.8499999,-2.4181437492370605,-6.809109687805176,8.339004516601562,-39.8406982421875,65.0177001953125,-279.2205810546875
10.8699999,-2.3104045391082764,-2.3942017555236816,9.332598686218262,9.5672607421875,59.0362548828125,-243.9117431640625
10.889999900000001,-1.766920804977417,1.4173674583435059,10.134655952453613,33.9813232421875,40.6646728515625,-180.2520751953125
10.9099999,-0.9744400978088379,4.127603530883789,10.733205795288086,29.2205810546875,26.5350341796875,-116.69921875
10.9299999,-0.15322890877723694,5.504269599914551,11.130643844604492,9.063720703125,22.430419921875,-102.203369140625
10.9499999,0.5291185975074768,6.141127586364746,11.492168426513672,-12.1612548828125,17.822265625,-95.3216552734375
10.969999900000001,0.9600749015808105,6.701370716094971,11.911153793334961,-20.4620361328125,-3.1585693359375,-45.1812744140625
10.9899999,1.139639973640442,7.627926826477051,12.334927558898926,-17.51708984375,-27.313232421875,32.9742431640625
11.0099999,1.1492167711257935,8.71728801727295,12.811373710632324,-24.23095703125,-36.43798828125,93.2769775390625
11.0299999,0.993593692779541,9.86650562286377,13.206416130065918,-41.168212890625,-49.3011474609375,124.4964599609375
11.049999900000001,0.6392518281936646,10.20887565612793,13.21359920501709,-71.8841552734375,-87.5091552734375,186.5234375
11.069999900000001,0.18914192914962769,9.81143856048584,12.880805015563965,-78.155517578125,-108.5357666015625,243.7286376953125
11.0899999,-0.35434186458587646,8.595184326171875,12.09311294555664,-45.7611083984375,-99.1973876953125,258.1939697265625
11.1099999,-0.933738648891449,5.990292549133301,10.769119262695312,-34.454345703125,-100.09765625,276.031494140625
11.129999900000001,-1.41257905960083,2.6431987285614014,9.215282440185547,-54.901123046875,-94.4366455078125,275.9246826171875
11.149999900000001,-1.7166426181793213,-1.0965443849563599,7.771578788757324,-69.366455078125,-64.6209716796875,239.898681640625
11.1699999,-1.7836803197860718,-4.821922302246094,6.675034523010254,-59.6923828125,-41.6107177734375,205.963134765625
11.1899999,-1.6184803247451782,-8.22887134552002,6.155492782592773,-18.3258056640625,-45.2880859375,172.6837158203125
11.209999900000001,-1.3431471586227417,-11.070788383483887,5.805939197540283,25.0396728515625,-61.737060546875,115.509033203125
11.229999900000001,-1.05105459690094,-13.295001983642578,5.52821159362793,43.853759765625,-38.75732421875,49.713134765625
11.2499999,-0.8619126081466675,-15.073893547058105,4.948814868927002,23.3306884765625,9.82666015625,0.4730224609375
11.2699999,-0.9050082564353943,-17.096994400024414,3.9887399673461914,49.1180419921875,60.7757568359375,-130.4168701171875
11.2899999,-1.280897855758667,-17.355567932128906,3.823540210723877,86.2884521484375,77.056884765625,-224.945068359375
11.309999900000001,-1.9033904075622559,-16.424222946166992,4.225766181945801,91.156005859375,115.4937744140625,-314.2547607421875
11.3299999,-2.6839001178741455,-14.121001243591309,4.898536682128906,43.701171875,128.8909912109375,-346.5728759765625
11.3499999,-3.3207578659057617,-10.005369186401367,6.2201361656188965,0.54931640625,120.4071044921875,-337.371826171875
11.3699999,-3.5913026332855225,-5.130774021148682,7.47230339050293,15.1519775390625,103.668212890625,-290.313720703125
11.389999900000001,-3.445256233215332,-0.6272808313369751,8.655038833618164,51.9866943359375,103.515625,-229.7210693359375
11.4099999,-2.985569477081299,2.7126305103302,9.86650562286377,57.281494140625,124.1912841796875,-209.1522216796875
11.4299999,-2.3511061668395996,5.480327606201172,11.379640579223633,25.0701904296875,98.0377197265625,-219.3450927734375
11.4499999,-1.699883222579956,7.929595947265625,13.072340965270996,10.4827880859375,29.4189453125,-160.33935546875
11.469999900000001,-1.094150185585022,10.220847129821777,14.875175476074219,5.18798828125,-24.7344970703125,-8.36181640625
11.4899999,-0.5913678407669067,12.263101577758789,16.031574249267578,4.608154296875,-42.327880859375,79.8187255859375
11.5099999,-0.2801215946674347,12.847286224365234,16.46731948852539,-18.2647705078125,-81.4056396484375,130.7525634765625
11.5299999,-0.24420857429504395,12.442666053771973,16.199169158935547,-47.8363037109375,-126.4801025390625,171.38671875
11.549999900000001,-0.5171475410461426,10.924742698669434,15.059528350830078,-55.9539794921875,-169.952392578125,242.218017578125
11.569999900000001,-1.0055646896362305,8.918401718139648,13.330915451049805,-2.86865234375,-163.116455078125,290.9393310546875
11.5899999,-1.5849615335464478,6.335057735443115,11.334151268005371,40.34423828125,-126.52587890625,304.473876953125
11.6099999,-2.0829553604125977,3.3662476539611816,9.253589630126953,10.0555419921875,-118.9727783203125,300.10986328125
11.629999900000001,-2.3511061668395996,0.009576806798577309,7.46033239364624,-31.92138671875,-110.1531982421875,299.072265625
11.649999900000001,-2.279279947280884,-3.600879430770874,6.088454723358154,-29.876708984375,-65.3839111328125,273.8800048828125
11.6699999,-1.9153614044189453,-7.0557122230529785,5.061342239379883,-9.94873046875,-29.022216796875,198.1048583984375
11.6899999,-1.3215993642807007,-10.043676376342773,4.592078685760498,-8.36181640625,-15.0299072265625,122.6348876953125
11.709999900000001,-0.6727706789970398,-11.999738693237305,4.606443881988525,-4.9896240234375,-7.0648193359375,77.3468017578125
11.729999900000001,-0.181959331035614,-13.110648155212402,4.72376012802124,8.758544921875,6.866455078125,48.126220703125
11.7499999,-0.009576806798577309,-13.967772483825684,4.537012100219727,39.97802734375,35.0189208984375,-3.9215087890625
11.7699999,-0.12928688526153564,-14.415488243103027,4.699818134307861,85.693359375,94.512939453125,-98.9837646484375
11.7899999,-0.545877993106842,-15.131354331970215,4.707000732421875,59.356689453125,104.4769287109375,-170.562744140625
11.809999900000001,-1.3000515699386597,-15.164873123168945,4.977545261383057,24.47509765625,99.3804931640625,-233.7799072265625
11.8299999,-2.274491548538208,-14.24071216583252,5.623979568481445,33.6151123046875,138.8092041015625,-309.051513671875
11.8499999,-3.332728862762451,-12.231976509094238,6.557718276977539,39.0167236328125,171.4935302734375,-346.160888671875
11.8699999,-4.218583583831787,-9.107542991638184,7.862558364868164,8.9569091796875,139.9993896484375,-339.569091796875
11.889999900000001,-4.587290287017822,-4.778826713562012,9.84495735168457,9.918212890625,108.7799072265625,-324.127197265625
11.9099999,-4.2544965744018555,0.3064578175544739,11.73398208618164,34.72900390625,70.8160400390625,-277.557373046875
11.9299999,-3.40216064453125,4.388571739196777,13.127408027648926,49.0570068359375,27.5115966796875,-150.32958984375
11.9499999,-2.276885747909546,7.479485988616943,14.171279907226562,61.0809326171875,19.989013671875,-95.7794189453125
11.969999900000001,-1.1851298809051514,9.3828763961792,14.848838806152344,34.3780517578125,-4.608154296875,-106.1248779296875
11.9899999,-0.37828385829925537,10.843339920043945,15.655684471130371,-4.39453125,-53.1768798828125,-45.95947265625
12.0099999,-0.05267243832349777,12.239158630371094,16.191986083984375,-3.1585693359375,-118.3929443359375,88.92822265625
12.0299999,-0.047884032130241394,13.151350021362305,16.299724578857422,-5.2642822265625,-155.8380126953125,195.6787109375
12.049999900000001,-0.3519476354122162,13.196839332580566,15.5311861038208,-18.5699462890625,-160.919189453125,199.03564453125
12.069999900000001,-0.8762778043746948,11.942277908325195,13.690045356750488,-4.1656494140625,-173.370361328125,220.6268310546875
12.0899999,-1.3862427473068237,9.524134635925293,11.216835021972656,32.2418212890625,-154.1748046875,294.9066162109375
12.1099999,-1.8148049116134644,6.593631267547607,8.456320762634277,29.083251953125,-100.28076171875,311.82861328125
12.129999900000001,-2.0685901641845703,3.047818660736084,5.813121795654297,-3.35693359375,-55.7708740234375,280.8380126953125
12.149999900000001,-2.0685901641845703,-0.9983820915222168,3.914519786834717,0.9613037109375,-6.2408447265625,252.5787353515625
12.1699999,-1.7621324062347412,-4.903325080871582,3.335123062133789,20.44677734375,40.802001953125,224.30419921875
12.1899999,-1.2952631711959839,-8.245630264282227,3.773261785507202,-9.82666015625,40.496826171875,161.3311767578125
12.209999900000001,-0.7972691655158997,-11.025299072265625,4.977545261383057,-27.6336669921875,16.6778564453125,101.6387939453125
12.229999900000001,-0.44532153010368347,-13.347674369812012,6.050147533416748,12.603759765625,19.8211669921875,50.5828857421875
12.2499999,-0.3423708379268646,-15.310919761657715,6.629544734954834,51.6815185546875,52.2308349609375,-21.514892578125
12.2699999,-0.5099649429321289,-17.118541717529297,6.904877662658691,42.8924560546875,94.42138671875,-126.5869140625
12.289999900000002,-1.0654197931289673,-18.41141128540039,6.586448669433594,9.5977783203125,87.7532958984375,-230.77392578125
12.309999900000001,-1.8794482946395874,-18.420988082885742,6.687005519866943,24.139404296875,107.7728271484375,-331.6497802734375
12.3299999,-2.956839084625244,-16.936582565307617,7.029376029968262,18.4173583984375,138.5345458984375,-386.8408203125
12.3499999,-4.137180328369141,-13.84566879272461,7.735665798187256,-19.5770263671875,112.9608154296875,-411.224365234375
12.3699999,-5.073313236236572,-9.232041358947754,9.059659004211426,-12.8631591796875,93.26171875,-426.910400390625
12.389999900000001,-5.47075080871582,-3.272873640060425,10.512939453125,21.209716796875,70.6939697265625,-396.0113525390625
12.4099999,-5.149928092956543,3.090914487838745,11.597513198852539,30.2886962890625,36.7279052734375,-276.3824462890625
12.4299999,-4.213795185089111,8.746018409729004,12.595894813537598,39.7491455078125,36.1480712890625,-123.4893798828125
12.4499999,-2.9041666984558105,12.691662788391113,13.184868812561035,29.5867919921875,13.2598876953125,-48.0194091796875
12.469999900000001,-1.6424223184585571,14.757859230041504,13.706804275512695,8.453369140625,-28.6102294921875,-4.6234130859375
12.4899999,-0.7805097699165344,15.234305381774902,14.099453926086426,-9.796142578125,-67.4285888671875,91.6290283203125
12.5099999,-0.49320554733276367,14.85123348236084,14.116212844848633,-11.810302734375,-99.12109375,201.263427734375
12.5299999,-0.7398083209991455,13.400346755981445,13.527239799499512,-28.13720703125,-123.8555908203125,270.81298828125
12.549999900000001,-1.2952631711959839,10.910377502441406,12.476184844970703,-49.13330078125,-117.5994873046875,283.9202880859375
12.569999900000001,-1.9105730056762695,7.747636795043945,11.0300874710083,-34.4696044921875,-105.3009033203125,279.388427734375
12.5899999,-2.33913516998291,4.144362926483154,9.394847869873047,-24.6124267578125,-98.1597900390625,303.3447265625
12.6099999,-2.4588451385498047,0.8690952062606812,7.994239330291748,-29.388427734375,-70.281982421875,304.74853515625
12.629999900000001,-2.3295583724975586,-2.073378562927246,7.017405033111572,-30.8380126953125,-38.7420654296875,272.8424072265625
12.649999900000001,-2.0015525817871094,-4.922478675842285,6.57926607131958,-9.9334716796875,-30.670166015625,248.931884765625
12.6699999,-1.4867992401123047,-7.60637903213501,6.854599475860596,-1.1138916015625,-24.505615234375,212.158203125
12.6899999,-0.9002198576927185,-10.06043529510498,7.38132381439209,-13.7176513671875,-31.4483642578125,140.7623291015625
12.709999900000001,-0.363918662071228,-12.12902545928955,7.826645374298096,-18.49365234375,-36.0107421875,68.9697265625
12.729999900000001,0.0454898327589035,-13.620613098144531,7.73087739944458,3.6773681640625,-27.0538330078125,17.1966552734375
12.7499999,0.26815059781074524,-14.54956340789795,7.287950038909912,39.1387939453125,3.7689208984375,-27.374267578125
12.7699999,0.2537853717803955,-15.363592147827148,6.433219909667969,48.431396484375,24.84130859375,-88.5009765625
12.789999900000002,-0.8355764150619507,-17.20473289489746,5.023035049438477,4.1656494140625,72.4029541015625,-287.0330810546875
12.809999900000001,-1.98958158493042,-16.910245895385742,4.9583916664123535,-25.848388671875,108.2916259765625,-387.8631591796875
12.8299999,-3.3494882583618164,-14.994885444641113,5.427655220031738,-39.7491455078125,122.1771240234375,-416.2445068359375
12.8499999,-4.613626480102539,-11.312602996826172,6.469132900238037,-31.6925048828125,114.501953125,-405.0750732421875
12.8699999,-5.319916248321533,-6.0621185302734375,8.003816604614258,-7.6904296875,114.92919921875,-390.9454345703125
12.889999900000001,-5.284003257751465,-0.5123591423034668,9.651026725769043,23.101806640625,102.3101806640625,-331.9091796875
12.9099999,-4.608838081359863,4.778826713562012,11.264719009399414,36.1785888671875,70.8465576171875,-233.428955078125
12.9299999,-3.445256233215332,9.519346237182617,12.847286224365234,32.0892333984375,44.1741943359375,-161.651611328125
12.9499999,-2.1954829692840576,13.223176002502441,14.18803882598877,24.993896484375,8.97216796875,-71.9146728515625
12.969999900000001,-1.2234370708465576,15.988478660583496,15.251065254211426,19.2413330078125,-34.0118408203125,55.23681640625
12.9899999,-0.7038952708244324,17.228675842285156,15.76581859588623,-2.01416015625,-78.0792236328125,185.0128173828125
13.0099999,-0.7398083209991455,16.9581298828125,15.524003982543945,-18.3868408203125,-111.4959716796875,259.0179443359375
13.0299999,-1.216254472732544,14.508862495422363,14.286201477050781,-45.166015625,-135.8642578125,310.5010986328125
13.049999900000001,-1.8986018896102905,10.649409294128418,12.222399711608887,-37.353515625,-129.1351318359375,323.2269287109375
13.069999900000001,-2.5546131134033203,6.1315507888793945,9.794678688049316,0.732421875,-91.583251953125,315.7501220703125
13.0899999,-2.9903578758239746,1.6184803247451782,7.50582218170166,7.5836181640625,-53.2684326171875,317.1844482421875
13.1099999,-3.1004912853240967,-2.537853717803955,6.088454723358154,-8.544921875,-18.2037353515625,313.5528564453125
13.129999900000001,-2.8227639198303223,-6.236895561218262,5.671864032745361,-28.1982421875,-6.744384765625,272.2320556640625
13.149999900000001,-2.2242133617401123,-9.404424667358398,6.138733386993408,-32.684326171875,-16.815185546875,191.9403076171875
13.1699999,-1.414973258972168,-11.690886497497559,6.976703643798828,-24.658203125,-28.25927734375,121.1090087890625
13.1899999,-0.5961562395095825,-13.005303382873535,7.647080421447754,-12.5579833984375,-29.2816162109375,80.87158203125
13.209999900000001,0.05267243832349777,-13.503297805786133,7.7883381843566895,11.8865966796875,-17.7459716796875,46.8902587890625
13.229999900000001,0.40222588181495667,-14.159308433532715,7.275979042053223,35.980224609375,3.5400390625,-5.126953125
13.2499999,0.3878606855869293,-15.176844596862793,6.428431510925293,58.929443359375,33.50830078125,-98.541259765625
13.2699999,-0.12210428714752197,-16.924612045288086,5.17626428604126,53.8177490234375,61.309814453125,-223.388671875
13.289999900000002,-1.161187767982483,-17.86313819885254,4.4723687171936035,42.144775390625,108.8409423828125,-339.90478515625
13.309999900000001,-2.477998733520508,-17.056293487548828,4.5825018882751465,14.4195556640625,141.326904296875,-421.1883544921875
13.3299999,-3.7229835987091064,-13.740324020385742,5.559336185455322,-39.8101806640625,113.1134033203125,-410.3851318359375
13.3499999,-4.424484729766846,-8.398859977722168,7.259219646453857,-39.0167236328125,87.799072265625,-348.57177734375
13.3699999,-4.292803764343262,-1.766920804977417,9.153033256530762,25.482177734375,87.5701904296875,-295.0439453125
13.389999900000001,-3.469198226928711,4.19224739074707,10.737994194030762,55.2978515625,70.8770751953125,-198.638916015625
13.4099999,-2.250549554824829,8.669404029846191,12.066776275634766,32.3333740234375,44.8150634765625,-102.2491455078125
13.4299999,-1.0271124839782715,11.264719009399414,13.225569725036621,8.392333984375,14.373779296875,-44.6319580078125
13.4499999,-0.08619125932455063,12.4785795211792,14.147337913513184,5.3253173828125,-18.0511474609375,-1.0986328125
13.469999900000001,0.3663128614425659,12.555193901062012,14.664484977722168,3.6773681640625,-54.840087890625,89.84375
13.4899999,0.3423708379268646,12.169727325439453,14.894329071044922,0.7476806640625,-78.033447265625,184.7381591796875
13.5099999,-0.11252748221158981,11.240777015686035,14.571111679077148,-21.759033203125,-103.7445068359375,234.375
13.5299999,-0.8259995579719543,9.545681953430176,13.747506141662598,-42.266845703125,-128.9215087890625,273.25439453125
13.549999900000001,-1.6352397203445435,7.340622425079346,12.409147262573242,-17.1051025390625,-130.401611328125,302.18505859375
13.569999900000001,-2.322375535964966,4.630385875701904,10.828974723815918,29.7698974609375,-104.156494140625,322.3876953125
13.5899999,-2.7246015071868896,1.558625340461731,9.320627212524414,38.9404296875,-73.7152099609375,319.8394775390625
13.6099999,-2.7461493015289307,-1.7812861204147339,8.106766700744629,4.8675537109375,-66.7877197265625,284.423828125
13.629999900000001,-2.3750481605529785,-5.03021764755249,7.340622425079346,-11.6729736328125,-58.349609375,231.3079833984375
13.649999900000001,-1.7262194156646729,-7.9415669441223145,6.864176273345947,-4.119873046875,-42.266845703125,183.1207275390625
13.6699999,-0.9792284965515137,-10.431536674499512,6.478709697723389,6.9427490234375,-27.8167724609375,142.578125
13.6899999,-0.31124621629714966,-12.509703636169434,6.167463779449463,23.1781005859375,-11.7645263671875,79.3914794921875
13.709999900000001,0.11252748221158981,-14.362815856933594,5.717353820800781,27.7557373046875,8.48388671875,-1.03759765625
13.729999900000001,0.21547815203666687,-15.897499084472656,5.0685248374938965,31.951904296875,36.07177734375,-80.0933837890625
13.7499999,-0.004788403399288654,-17.027563095092773,4.651933670043945,51.1322021484375,84.41162109375,-162.5823974609375
13.7699999,-0.569819986820221,-17.762582778930664,4.81473970413208,40.130615234375,110.687255859375,-241.0736083984375
13.789999900000002,-1.5203180313110352,-17.50161361694336,5.518634796142578,10.345458984375,82.6263427734375,-349.9298095703125
13.809999900000001,-2.7461493015289307,-15.787365913391113,6.607996463775635,-7.659912109375,60.333251953125,-425.8575439453125
13.8299999,-3.9863457679748535,-12.246341705322266,7.5417351722717285,-14.83154296875,83.6944580078125,-432.7392578125
13.8499999,-4.812345504760742,-6.943184852600098,8.001421928405762,-18.646240234375,108.88671875,-376.5106201171875
13.8699999,-4.8722004890441895,-0.9433154463768005,8.628703117370605,29.4647216796875,131.744384765625,-301.5289306640625
13.889999900000001,-4.213795185089111,4.1395745277404785,9.440337181091309,42.90771484375,98.6480712890625,-205.3680419921875
13.9099999,-3.1052796840667725,7.833827972412109,10.747570991516113,26.6876220703125,61.187744140625,-164.9627685546875
13.9299999,-1.9823989868164062,10.211270332336426,12.33013916015625,21.0723876953125,33.203125,-133.7738037109375
13.9499999,-1.113303780555725,12.023680686950684,13.792996406555176,21.331787109375,-3.9215087890625,-56.671142578125
13.969999900000001,-0.689530074596405,13.658920288085938,14.872780799865723,16.29638671875,-49.6063232421875,72.3419189453125
13.9899999,-0.6560112833976746,14.326903343200684,15.614983558654785,-0.7171630859375,-80.26123046875,200.0274658203125
14.0099999,-0.9409212470054626,13.838485717773438,15.674838066101074,-36.07177734375,-121.3531494140625,231.8267822265625
14.0299999,-1.37906014919281,11.75792407989502,15.06671142578125,-68.29833984375,-167.8924560546875,239.3341064453125
14.049999900000001,-1.8483237028121948,9.334992408752441,13.66610336303711,-55.9844970703125,-185.0433349609375,256.7596435546875
14.069999900000001,-2.279279947280884,6.4595561027526855,11.322179794311523,-16.2353515625,-169.00634765625,315.5670166015625
14.0899999,-2.5689783096313477,3.643975019454956,8.815450668334961,36.590576171875,-98.1903076171875,338.8519287109375
14.1099999,-2.6216509342193604,0.3687070608139038,6.586448669433594,27.6947021484375,-40.679931640625,307.861328125
14.129999900000001,-2.346317768096924,-3.248931646347046,5.262455463409424,-25.6805419921875,-29.1900634765625,266.7083740234375
14.149999900000001,-1.7693150043487549,-6.878541469573975,4.95120906829834,-39.031982421875,-26.9012451171875,231.597900390625
14.1699999,-1.039083480834961,-10.055646896362305,5.348646640777588,6.7901611328125,-15.2587890625,177.3681640625
14.1899999,-0.304063618183136,-13.084312438964844,5.92325496673584,33.8592529296875,-9.2315673828125,112.457275390625
14.209999900000001,0.29209262132644653,-15.648502349853516,6.366182327270508,36.6363525390625,-5.4473876953125,24.200439453125
14.229999900000001,0.6105214357376099,-17.827226638793945,6.258443355560303,41.7633056640625,6.5155029296875,-81.329345703125
14.2499999,0.49559974670410156,-19.56541633605957,5.403713226318359,57.31201171875,41.1376953125,-167.8314208984375
14.2699999,-0.10295066982507706,-20.22142791748047,4.829104900360107,70.00732421875,117.034912109375,-278.13720703125
14.289999900000002,-1.1994950771331787,-19.68273162841797,4.817133903503418,38.1011962890625,138.8092041015625,-374.847412109375
14.309999900000001,-3.7852327823638916,-12.449849128723145,7.38132381439209,-38.5894775390625,70.1141357421875,-430.938720703125
14.3299999,-4.527435302734375,-6.1530985832214355,8.899248123168945,-4.058837890625,79.4830322265625,-371.856689453125
14.3499999,-4.481945514678955,0.7134721279144287,10.091560363769531,34.027099609375,83.740234375,-291.4581298828125
14.3699999,-3.734954595565796,6.576871871948242,11.015722274780273,40.1763916015625,63.8427734375,-191.71142578125
14.389999900000001,-2.5689783096313477,10.613495826721191,11.875240325927734,18.0511474609375,33.7066650390625,-114.0594482421875
14.4099999,-1.3742717504501343,12.904747009277344,12.696451187133789,4.119873046875,3.7994384765625,-65.6585693359375
14.4299999,-0.4812345504760742,14.156914710998535,13.366827964782715,14.5111083984375,-26.2298583984375,-4.6234130859375
14.4499999,-0.10773907601833344,15.00925064086914,13.737929344177246,27.5421142578125,-57.1746826171875,104.3853759765625
14.469999900000001,-0.26575639843940735,14.947001457214355,13.718775749206543,1.6326904296875,-81.3751220703125,243.4539794921875
14.4899999,-0.7781155705451965,14.03959846496582,13.184868812561035,-44.8455810546875,-98.3123779296875,291.68701171875
14.5099999,-1.4867992401123047,11.678915977478027,12.112266540527344,-47.210693359375,-111.2060546875,298.736572265625
14.5299999,-2.1332337856292725,8.233659744262695,10.644620895385742,-0.701904296875,-102.5238037109375,328.2012939453125
14.549999900000001,-2.5522189140319824,4.491522312164307,9.253589630126953,14.5111083984375,-68.4051513671875,348.0072021484375
14.569999900000001,-2.7246015071868896,0.6177040338516235,7.982268333435059,-22.0184326171875,-52.825927734375,340.39306640625
14.5899999,-2.564189910888672,-3.2824504375457764,7.204153060913086,-48.4619140625,-43.51806640625,310.516357421875
14.6099999,-2.0590133666992188,-7.070077419281006,6.878541469573975,-29.937744140625,-24.3988037109375,254.9285888671875
14.629999900000001,-1.2641384601593018,-10.522516250610352,6.983886241912842,5.7220458984375,-11.3983154296875,173.88916015625
14.649999900000001,-0.37828385829925537,-13.627796173095703,7.273584842681885,16.6168212890625,-19.7296142578125,91.7816162109375
14.6699999,0.3878606855869293,-16.486473083496094,7.3023152351379395,16.29638671875,-29.7698974609375,0.79345703125
14.6899999,0.6967126727104187,-18.52872657775879,6.866570472717285,43.27392578125,0.7476806640625,-125.213623046875
14.709999900000001,0.5027823448181152,-19.668367385864258,5.853823184967041,56.9610595703125,56.243896484375,-243.408203125
14.729999900000001,-0.2849099934101105,-19.56541633605957,5.082890033721924,45.196533203125,107.7728271484375,-305.0079345703125
14.7499999,-1.4748282432556152,-17.73863983154297,4.922478675842285,14.251708984375,116.058349609375,-373.687744140625
14.7699999,-2.786850690841675,-14.279019355773926,5.748478412628174,-5.767822265625,101.5625,-419.403076171875
14.789999900000002,-3.890577793121338,-9.516951560974121,7.082048416137695,-7.3089599609375,85.174560546875,-406.1737060546875
14.809999900000001,-4.4532151222229,-3.711012601852417,8.516175270080566,20.172119140625,81.97021484375,-357.2845458984375
14.8299999,-4.3191399574279785,2.1332337856292725,9.579200744628906,49.468994140625,75.68359375,-285.0494384765625
14.8499999,-3.576937437057495,7.175422668457031,10.426748275756836,52.8411865234375,67.5201416015625,-194.4580078125
14.8699999,-2.5234885215759277,10.740388870239258,11.140220642089844,31.7535400390625,50.10986328125,-111.0076904296875
14.889999900000001,-1.482010841369629,12.983756065368652,11.91354751586914,10.4827880859375,22.2320556640625,-47.210693359375
14.9099999,-0.727837324142456,14.173673629760742,12.679692268371582,-3.326416015625,-10.650634765625,23.529052734375
14.9299999,-0.3902548849582672,14.595053672790527,13.254301071166992,-20.111083984375,-44.647216796875,120.147705078125
14.9499999,-0.45250412821769714,14.281413078308105,13.290213584899902,-52.42919921875,-74.7833251953125,206.4056396484375
14.969999900000001,-0.8092401623725891,12.892776489257812,12.557587623596191,-76.11083984375,-89.66064453125,259.94873046875
14.9899999,-1.2832920551300049,10.69489860534668,11.32457447052002,-39.9932861328125,-70.831298828125,278.86962890625
15.0099999,-1.7741034030914307,7.970297336578369,9.914389610290527,10.833740234375,-41.1376953125,297.5311279296875
15.0299999,-2.183511972427368,4.850652694702148,8.688557624816895,9.0789794921875,-30.4412841796875,336.578369140625
15.049999900000001,-2.4181437492370605,1.4508862495422363,8.020575523376465,-12.847900390625,-15.472412109375,342.376708984375
15.069999900000001,-2.3750481605529785,-2.5665841102600098,7.924807548522949,-17.0745849609375,-0.2899169921875,293.45703125
15.0899999,-1.987187385559082,-7.1706342697143555,8.283937454223633,-9.429931640625,-4.180908203125,215.087890625
15.1099999,-1.2880805730819702,-11.987768173217773,8.956708908081055,5.43212890625,-20.904541015625,115.9515380859375
15.129999900000001,-0.5027823448181152,-16.15128517150879,9.579200744628906,22.3236083984375,-35.3851318359375,-6.591796875
15.149999900000001,0.12689268589019775,-18.677167892456055,9.780313491821289,31.3720703125,-36.1480712890625,-127.6092529296875
15.1699999,0.4357447028160095,-19.239805221557617,9.370905876159668,37.0635986328125,-23.223876953125,-197.357177734375
15.1899999,0.3734954595565796,-17.55189323425293,8.403648376464844,36.834716796875,-3.204345703125,-240.1275634765625
15.209999900000001,0.011971008032560349,-14.322114944458008,7.228095054626465,24.749755859375,21.8963623046875,-271.4996337890625
15.229999900000001,-0.5315127968788147,-10.383652687072754,6.332663536071777,8.9111328125,48.919677734375,-287.7044677734375
15.2499999,-1.1348515748977661,-6.2847795486450195,5.995080947875977,-0.030517578125,59.5550537109375,-296.4630126953125
15.2699999,-1.6855180263519287,-2.3247697353363037,6.22731876373291,7.293701171875,55.511474609375,-293.6859130859375
15.289999900000002,-2.1164743900299072,1.292868971824646,6.746860504150391,21.392822265625,55.1910400390625,-263.3056640625
15.309999900000001,-2.296039342880249,4.668693542480469,7.42681360244751,27.40478515625,73.3489990234375,-214.90478515625
15.3299999,-2.188300371170044,7.491456985473633,8.276755332946777,40.283203125,88.7451171875,-145.843505859375
15.3499999,-1.8100165128707886,9.576807022094727,9.21288776397705,35.064697265625,61.859130859375,-69.6563720703125
15.3699999,-1.278503656387329,10.60152530670166,10.232817649841309,11.2762451171875,30.1055908203125,-3.875732421875
15.389999900000001,-0.7493851184844971,10.591948509216309,10.931924819946289,-13.00048828125,14.16015625,41.50390625
15.4099999,-0.31842881441116333,9.557653427124023,10.994174003601074,-26.7181396484375,10.68115234375,77.606201171875
15.4299999,-0.019153613597154617,7.893682956695557,10.63743782043457,-11.23046875,26.7486572265625,105.377197265625
15.4499999,0.19871874153614044,5.815515995025635,10.122684478759766,-1.46484375,39.9627685546875,124.8931884765625
15.469999900000001,0.40222588181495667,3.864241600036621,9.864110946655273,-9.0484619140625,36.92626953125,130.5389404296875
15.4899999,0.5746083855628967,2.2433669567108154,10.002974510192871,-16.815185546875,26.824951171875,141.0064697265625
15.5099999,0.7134721279144287,1.2066776752471924,10.414777755737305,-20.7672119140625,13.5498046875,164.9627685546875
15.5299999,0.7637503147125244,0.6655880808830261,10.833763122558594,-11.383056640625,6.7901611328125,185.8673095703125
15.549999900000001,0.7254431247711182,0.2082955539226532,11.077971458435059,-4.180908203125,5.615234375,200.8514404296875
15.569999900000001,0.6440402865409851,-0.5003881454467773,11.262324333190918,11.138916015625,12.4664306640625,198.1353759765625
15.5899999,0.6153098344802856,-1.5514427423477173,11.355698585510254,8.8348388671875,2.655029296875,175.9796142578125
15.6099999,0.689530074596405,-2.7964274883270264,11.422736167907715,-9.307861328125,-17.1051025390625,148.3306884765625
15.629999900000001,0.8595184087753296,-3.6727054119110107,11.310209274291992,-16.937255859375,-28.1524658203125,124.5269775390625
15.649999900000001,1.0749965906143188,-4.156333923339844,10.90798282623291,-11.322021484375,-26.0772705078125,116.943359375
15.6699999,1.316810965538025,-4.261679172515869,10.414777755737305,-1.617431640625,-12.847900390625,111.1907958984375
15.6899999,1.5634137392044067,-4.173093795776367,9.940725326538086,-9.1400146484375,-13.7481689453125,80.7952880859375
15.709999900000001,1.7764976024627686,-3.9671921730041504,9.703699111938477,-26.3824462890625,-21.392822265625,52.703857421875
15.729999900000001,1.922544002532959,-3.56017804145813,9.66539192199707,-35.9039306640625,-24.9786376953125,45.3643798828125
15.7499999,1.9536685943603516,-3.201047658920288,9.63187313079834,-28.289794921875,-25.8331298828125,53.6346435546875
15.7699999,1.8794482946395874,-2.779668092727661,9.68933391571045,-1.007080078125,-20.4925537109375,37.7655029296875
15.789999900000002,1.7286136150360107,-2.473210334777832,9.804255485534668,17.364501953125,-20.538330078125,18.2037353515625
15.809999900000001,1.5394717454910278,-2.647987127304077,9.847352027893066,13.1072998046875,-35.46142578125,30.426025390625
15.8299999,1.3527239561080933,-2.808398485183716,9.892841339111328,15.6402587890625,-34.027099609375,21.91162109375
15.8499999,1.0606313943862915,-3.1938650608062744,9.605537414550781,2.2125244140625,-25.08544921875,-17.4560546875
15.869999900000002,0.9720458984375,-3.1268274784088135,9.342175483703613,-4.82177734375,-25.32958984375,-16.8609619140625
15.889999900000001,0.8882488012313843,-2.8993782997131348,9.026140213012695,-9.185791015625,-15.8843994140625,-24.5819091796875
15.9099999,0.8068459630012512,-2.650381326675415,8.779537200927734,-21.7132568359375,-3.8909912109375,-38.4063720703125
15.9299999,0.7230489253997803,-2.454056739807129,8.681375503540039,-31.6619873046875,0.2899169921875,-48.8739013671875
15.9499999,0.6607996821403503,-2.3774423599243164,8.779537200927734,-26.275634765625,-2.838134765625,-53.863525390625
15.969999900000001,0.6177040338516235,-2.4684219360351562,9.047688484191895,-2.5482177734375,-3.2196044921875,-66.864013671875
15.9899999,0.5650315880775452,-2.6144683361053467,9.229647636413574,4.7149658203125,-3.204345703125,-87.310791015625
16.0099999,0.5027823448181152,-2.693476915359497,9.390059471130371,-9.5977783203125,4.180908203125,-101.654052734375
16.0299999,0.42377370595932007,-2.492363929748535,9.5408935546875,-13.9617919921875,13.3056640625,-103.759765625
16.0499999,0.31124621629714966,-2.1356279850006104,9.667786598205566,-17.730712890625,5.126953125,-97.8851318359375
16.0699999,0.19393034279346466,-1.6160861253738403,9.945513725280762,-9.0179443359375,0.9307861328125,-100.7843017578125
16.089999900000002,0.05746084079146385,-1.2401964664459229,10.213664054870605,0.2288818359375,-4.4708251953125,-103.45458984375
16.109999900000002,-0.07661445438861847,-1.0247182846069336,10.311826705932617,0.8392333984375,-14.9383544921875,-100.28076171875
16.1299999,-0.19393034279346466,-0.9600749015808105,10.163386344909668,2.0904541015625,-17.8680419921875,-102.1575927734375
16.1499999,-0.30885201692581177,-0.8044517636299133,9.765948295593262,8.9874267578125,-8.85009765625,-110.015869140625
16.1699999,-0.4141969084739685,-0.4357447028160095,9.253589630126953,16.4642333984375,0.1068115234375,-106.201171875
16.1899999,-0.45250412821769714,0.090979665517807,8.96389102935791,26.42822265625,8.2244873046875,-81.8328857421875
16.2099999,-0.4189853072166443,0.6129156351089478,8.875306129455566,31.8756103515625,1.190185546875,-64.8651123046875
16.2299999,-0.31364041566848755,0.9600749015808105,9.016563415527344,27.0233154296875,-7.14111328125,-66.5740966796875
16.249999900000002,-0.14604631066322327,1.072602391242981,9.117119789123535,19.1650390625,-4.2724609375,-71.59423828125
16.269999900000002,0.031124621629714966,1.1300631761550903,8.992621421813965,14.34326171875,2.5177001953125,-68.4661865234375
16.2899999,0.21547815203666687,1.3670891523361206,8.87051773071289,17.1051025390625,20.5535888671875,-64.5599365234375
16.3099999,0.42616790533065796,1.7357962131500244,8.81784439086914,15.0299072265625,29.571533203125,-59.6466064453125
16.3299999,0.6488286852836609,2.22660756111145,8.920795440673828,8.11767578125,19.3939208984375,-51.9561767578125
16.3499999,0.8786720037460327,2.6839001178741455,9.074024200439453,-2.9296875,13.519287109375,-40.4052734375
16.3699999,1.1037269830703735,3.0526070594787598,9.064447402954102,-5.828857421875,22.7508544921875,-30.3955078125
16.3899999,1.3096283674240112,3.227383852005005,9.064447402954102,5.767822265625,45.7763671875,-20.233154296875
16.4099999,1.4700398445129395,3.1507694721221924,9.105149269104004,9.2926025390625,48.5992431640625,-11.7340087890625
16.429999900000002,1.5969325304031372,2.956839084625244,9.387664794921875,2.0751953125,35.0494384765625,-9.429931640625
16.4499999,1.6855180263519287,2.6575639247894287,9.703699111938477,0.1983642578125,26.4739990234375,-7.568359375
16.4699999,1.745373010635376,2.449268341064453,9.943120002746582,5.55419921875,30.1666259765625,-3.692626953125
16.4899999,1.7836803197860718,2.3798365592956543,10.108319282531738,12.1307373046875,38.8641357421875,4.425048828125
16.5099999,1.8100165128707886,2.346317768096924,10.201693534851074,6.0577392578125,31.005859375,16.8914794921875
16.5299999,1.8171991109848022,2.3774423599243164,10.29746150970459,3.2501220703125,19.59228515625,21.0418701171875
16.5499999,1.8195933103561401,2.47560453414917,10.27591323852539,6.4697265625,17.303466796875,22.3236083984375
16.5699999,1.821987509727478,2.542642116546631,10.08437728881836,9.33837890625,22.1099853515625,36.7889404296875
16.589999900000002,1.8315643072128296,2.5977089405059814,9.849745750427246,11.4898681640625,26.4739990234375,50.3387451171875
16.609999900000002,1.8411411046981812,2.580949544906616,9.612719535827637,8.1787109375,21.2249755859375,51.8951416015625
16.6299999,1.8555063009262085,2.5043349266052246,9.442731857299805,2.8076171875,16.2506103515625,51.7120361328125
16.6499999,1.8579005002975464,2.3487119674682617,9.315838813781738,-3.387451171875,18.4783935546875,63.65966796875
16.6699999,1.8387469053268433,2.183511972427368,9.258378028869629,-9.124755859375,22.8424072265625,77.7130126953125
16.6899999,1.8076223134994507,1.8794482946395874,9.32541561126709,-18.49365234375,20.08056640625,84.6099853515625
16.7099999,1.7525556087493896,1.434126853942871,9.555258750915527,-23.6968994140625,12.7716064453125,84.3658447265625
16.7299999,1.6950948238372803,0.8451532125473022,9.806650161743164,-24.9481201171875,4.638671875,83.0841064453125
16.749999900000002,1.6328455209732056,0.2825157940387726,10.055646896362305,-25.69580078125,4.5166015625,82.489013671875
16.769999900000002,1.580173134803772,-0.22744916379451752,10.146626472473145,-33.4014892578125,3.5247802734375,82.8857421875
16.7899999,1.558625340461731,-0.5841852426528931,10.201693534851074,-37.78076171875,2.86865234375,80.26123046875
16.8099999,1.5634137392044067,-0.8259995579719543,10.165780067443848,-36.2396240234375,-1.5716552734375,78.6590576171875
16.8299999,1.5897499322891235,-0.9792284965515137,10.146626472473145,-29.9072265625,-4.1656494140625,77.45361328125
16.8499999,1.5945383310317993,-1.1324573755264282,10.158597946166992,-23.9410400390625,-4.94384765625,75.042724609375
16.8699999,1.5418659448623657,-1.3335703611373901,9.988609313964844,-27.1453857421875,-11.444091796875,69.2596435546875
16.8899999,1.4484920501708984,-1.4077905416488647,9.95748519897461,-18.7530517578125,-3.143310546875,59.051513671875
16.9099999,1.3072341680526733,-1.4077905416488647,9.849745750427246,-5.340576171875,2.8839111328125,61.8743896484375
16.929999900000002,1.1635819673538208,-1.4269442558288574,9.849745750427246,-5.706787109375,-4.608154296875,71.3653564453125
16.9499999,1.01753568649292,-1.522712230682373,9.926360130310059,-11.1846923828125,-5.4168701171875,64.9871826171875
16.9699999,0.849941611289978,-1.5658079385757446,9.945513725280762,-17.7764892578125,-5.279541015625,46.2188720703125
16.9899999,0.6919242739677429,-1.5107412338256836,10.101137161254883,-14.678955078125,7.5531005859375,46.1578369140625
17.0099999,0.5147533416748047,-1.3982137441635132,10.299856185913086,-11.7340087890625,3.7841796875,65.7501220703125
17.0299999,0.35913026332855225,-1.3958195447921753,10.647014617919922,-12.5274658203125,-8.72802734375,66.375732421875
17.0499999,0.23702596127986908,-1.8579005002975464,10.90798282623291,-20.782470703125,-22.0947265625,46.844482421875
17.0699999,0.1628057211637497,-2.671929121017456,10.917559623718262,-15.19775390625,-23.345947265625,23.1475830078125
17.089999900000002,0.1149216815829277,-3.5410242080688477,10.606313705444336,-13.0615234375,-17.15087890625,5.462646484375
17.109999900000002,0.0933738648891449,-4.0964789390563965,10.091560363769531,-22.7508544921875,-10.009765625,-6.805419921875
17.1299999,0.08619125932455063,-4.331110954284668,9.615114212036133,-34.5458984375,-5.31005859375,-14.1754150390625
17.1499999,0.05267243832349777,-4.376600742340088,9.320627212524414,-27.7252197265625,-4.3487548828125,-22.979736328125
17.1699999,0.014365210197865963,-4.299986362457275,9.260771751403809,-11.1541748046875,-6.0272216796875,-40.83251953125
17.1899999,-0.047884032130241394,-4.113238334655762,9.41639518737793,-6.1187744140625,-9.0484619140625,-57.0068359375
17.2099999,-0.1412578970193863,-3.8738183975219727,9.622296333312988,-6.6680908203125,-13.5040283203125,-60.546875
17.2299999,-0.23942017555236816,-3.49314022064209,9.816226959228516,-3.0670166015625,-14.2669677734375,-65.12451171875
17.249999900000002,-0.3471592366695404,-3.1220390796661377,9.84495735168457,-0.5950927734375,-15.167236328125,-74.951171875
17.269999900000002,-0.5003881454467773,-2.6455929279327393,9.63187313079834,-0.1220703125,-15.6097412109375,-86.578369140625
17.2899999,-0.667982280254364,-1.9823989868164062,9.346963882446289,2.2430419921875,-7.080078125,-86.36474609375
17.3099999,-0.8547300100326538,-1.316810965538025,9.150638580322266,2.0751953125,1.9378662109375,-65.6585693359375
17.3299999,-0.9983820915222168,-0.7158663272857666,9.071630477905273,-4.425048828125,-7.293701171875,-59.08203125
17.3499999,-1.072602391242981,-0.5195417404174805,9.071630477905273,-4.180908203125,-17.76123046875,-67.962646484375
17.3699999,-1.0558429956436157,-0.8259995579719543,8.810662269592285,11.016845703125,-3.3416748046875,-87.4786376953125
17.3899999,-1.015141487121582,-0.9840168952941895,8.525752067565918,18.9971923828125,7.62939453125,-87.677001953125
17.409999900000003,-0.9792284965515137,-0.9528923034667969,8.458714485168457,25.2227783203125,21.3470458984375,-93.8873291015625
17.429999900000002,-0.9217676520347595,-0.8140285611152649,8.681375503540039,1.495361328125,19.9737548828125,-97.3052978515625
17.4499999,-0.8547300100326538,-0.5219359993934631,9.071630477905273,-18.524169921875,7.843017578125,-98.907470703125
17.4699999,-0.7565677165985107,-0.20350714027881622,9.469067573547363,-7.415771484375,9.002685546875,-98.876953125
17.4899999,-0.5985504388809204,0.038307227194309235,9.727641105651855,21.392822265625,23.74267578125,-100.8758544921875
17.5099999,-0.4189853072166443,0.17477671802043915,9.703699111938477,31.43310546875,23.651123046875,-107.5286865234375
17.5299999,-0.22744916379451752,0.47165772318840027,9.744400978088379,27.069091796875,25.2227783203125,-115.17333984375
17.5499999,-0.031124621629714966,0.9552865028381348,9.959878921508789,13.0462646484375,27.618408203125,-104.888916015625
17.5699999,0.1173158809542656,1.5753847360610962,10.074800491333008,11.474609375,12.20703125,-80.38330078125
17.589999900000002,0.28730419278144836,2.293645143508911,10.134655952453613,34.5611572265625,11.1236572265625,-75.98876953125
17.609999900000002,0.44771572947502136,2.7916390895843506,10.077195167541504,47.4395751953125,26.214599609375,-70.3277587890625
17.6299999,0.608127236366272,3.2824504375457764,9.940725326538086,38.116455078125,28.1982421875,-59.5245361328125
17.6499999,0.7374141216278076,3.8115692138671875,9.921571731567383,25.115966796875,18.06640625,-38.299560546875
17.6699999,0.8475474119186401,4.431667327880859,10.079588890075684,20.8892822265625,11.8865966796875,-11.5966796875
17.6899999,0.9672574996948242,4.946420669555664,10.237606048583984,21.78955078125,9.70458984375,12.63427734375
17.7099999,1.113303780555725,5.12119722366333,10.189722061157227,19.8822021484375,1.8768310546875,31.4788818359375
17.7299999,1.3000515699386597,5.015852451324463,10.022128105163574,19.134521484375,4.6539306640625,41.5191650390625
17.749999900000002,1.482010841369629,4.570530891418457,9.646238327026367,12.5579833984375,6.866455078125,54.99267578125
17.769999900000002,1.6424223184585571,4.02465295791626,9.272743225097656,9.918212890625,10.650634765625,69.1375732421875
17.7899999,1.7884687185287476,3.3231520652770996,8.923190116882324,3.84521484375,11.5814208984375,78.9337158203125
17.8099999,1.9369091987609863,2.5785553455352783,8.635885238647461,-4.57763671875,12.7105712890625,81.634521484375
17.8299999,2.073378562927246,1.8794482946395874,8.463502883911133,-7.171630859375,18.768310546875,78.8116455078125
17.8499999,2.169146776199341,1.3239935636520386,8.473079681396484,-11.6119384765625,25.45166015625,85.8306884765625
17.8699999,2.2002713680267334,0.8978256583213806,8.743624687194824,-29.6630859375,23.3001708984375,98.8311767578125
17.8899999,2.1763293743133545,0.5506663918495178,9.188945770263672,-45.3033447265625,12.939453125,105.712890625
17.909999900000003,2.142810583114624,0.1843535304069519,9.761159896850586,-36.3616943359375,7.965087890625,101.3336181640625
17.929999900000002,2.1308395862579346,-0.1604115068912506,10.170568466186523,-17.6239013671875,5.218505859375,94.970703125
17.9499999,2.126051187515259,-0.2992752194404602,10.369287490844727,0.06103515625,2.471923828125,92.1173095703125
17.9699999,2.1092917919158936,-0.2777273952960968,10.393229484558105,-2.5482177734375,3.84521484375,100.64697265625
17.9899999,2.056619167327881,-0.2801215946674347,10.189722061157227,-35.64453125,1.15966796875,108.551025390625
18.0099999,1.987187385559082,-0.4165911078453064,9.998186111450195,-43.64013671875,2.7923583984375,100.006103515625
18.0299999,1.889025092124939,-0.5434837937355042,9.821015357971191,-1.0986328125,4.547119140625,82.45849609375
18.0499999,1.7693150043487549,-0.8834604024887085,9.818621635437012,13.9312744140625,0.396728515625,90.484619140625
18.0699999,1.6519991159439087,-1.338358759880066,10.017339706420898,-26.275634765625,-6.683349609375,101.3946533203125
18.089999900000002,1.50355863571167,-1.9393033981323242,10.105925559997559,-64.9566650390625,-21.4691162109375,79.193115234375
18.109999900000002,1.3407529592514038,-2.5737667083740234,10.04846477508545,-37.9486083984375,-19.2718505859375,48.7823486328125
18.1299999,1.1659762859344482,-2.851494312286377,9.916783332824707,39.642333984375,1.6937255859375,36.773681640625
18.1499999,1.0079588890075684,-2.87064790725708,9.68933391571045,43.060302734375,3.662109375,50.5218505859375
18.1699999,0.871489405632019,-2.846705913543701,9.536105155944824,-26.0009765625,-5.584716796875,52.7496337890625
18.1899999,0.7541735172271729,-2.8371291160583496,9.445125579833984,-51.5899658203125,-0.8544921875,19.6685791015625
18.2099999,0.6224924325942993,-2.765302896499634,9.478644371032715,-6.072998046875,16.7083740234375,-4.9591064453125
18.2299999,0.42377370595932007,-2.647987127304077,9.593565940856934,26.8096923828125,16.845703125,11.5509033203125
18.249999900000002,0.1867477297782898,-2.513911724090576,9.93354320526123,8.880615234375,5.8746337890625,27.2674560546875
18.269999900000002,-0.07182604819536209,-2.6240451335906982,10.462661743164062,-6.4849853515625,2.9754638671875,6.500244140625
18.2899999,-0.26575639843940735,-3.160346269607544,10.948684692382812,-17.9901123046875,-4.4403076171875,-17.913818359375
18.3099999,-0.40462008118629456,-3.689464807510376,11.33654499053955,-17.0745849609375,-15.2435302734375,-36.92626953125
18.3299999,-0.4884171485900879,-3.9671921730041504,11.487380027770996,-5.4168701171875,-22.8271484375,-46.539306640625
18.3499999,-0.5267243981361389,-4.019864559173584,11.420342445373535,3.814697265625,-24.90234375,-50.0030517578125
18.3699999,-0.5530605912208557,-3.8738183975219727,11.168951034545898,3.2958984375,-23.345947265625,-61.4776611328125
18.3899999,-0.5578489899635315,-3.663128614425659,10.845733642578125,-6.53076171875,-24.2919921875,-77.3162841796875
18.409999900000003,-0.545877993106842,-3.404554843902588,10.500968933105469,-7.781982421875,-27.984619140625,-89.4317626953125
18.429999900000002,-0.5602431893348694,-3.0550012588500977,10.055646896362305,1.4801025390625,-30.0445556640625,-98.114013671875
18.4499999,-0.6153098344802856,-2.655169725418091,9.473855972290039,14.129638671875,-25.238037109375,-106.1553955078125
18.4699999,-0.7015010714530945,-1.9776105880737305,9.011775016784668,18.3868408203125,-6.0577392578125,-112.579345703125
18.4899999,-0.811634361743927,-1.3694833517074585,8.655038833618164,3.3721923828125,-3.1585693359375,-101.13525390625
18.5099999,-0.8978256583213806,-0.6775590777397156,8.592789649963379,-2.4261474609375,-10.43701171875,-97.3663330078125
18.5299999,-0.9792284965515137,-0.24420857429504395,8.619126319885254,4.4403076171875,-11.7645263671875,-102.569580078125
18.5499999,-1.05105459690094,0.23942017555236816,8.707711219787598,8.30078125,-2.899169921875,-111.14501953125
18.5699999,-1.091755986213684,0.8667010068893433,8.825027465820312,3.082275390625,4.547119140625,-103.69873046875
18.589999900000002,-1.1204863786697388,1.5490485429763794,8.968679428100586,-2.0294189453125,-3.570556640625,-74.462890625
18.609999900000002,-1.1204863786697388,2.188300371170044,9.198522567749023,0.8697509765625,-8.7127685546875,-60.8367919921875
18.6299999,-1.094150185585022,2.3702597618103027,9.232041358947754,-0.213623046875,-9.246826171875,-61.248779296875
18.6499999,-1.0127472877502441,2.1092917919158936,9.023746490478516,-3.72314453125,-1.953125,-65.12451171875
18.6699999,-0.9217676520347595,1.6184803247451782,8.724471092224121,-3.35693359375,13.12255859375,-65.7196044921875
18.6899999,-0.7709329724311829,1.290474772453308,8.604761123657227,-12.5579833984375,23.284912109375,-67.2760009765625
18.7099999,-0.5913678407669067,1.1659762859344482,8.71489429473877,-24.4140625,19.34814453125,-62.4847412109375
18.7299999,-0.395043283700943,1.3503297567367554,9.066842079162598,-12.4664306640625,17.3797607421875,-58.65478515625
18.749999900000002,-0.19632454216480255,1.7549498081207275,9.581595420837402,22.15576171875,30.1513671875,-57.5103759765625
18.769999900000002,0,2.31758713722229,10.029311180114746,30.09033203125,29.4342041015625,-49.0264892578125
18.7899999,0.1843535304069519,2.9089550971984863,10.520122528076172,12.26806640625,20.782470703125,-32.53173828125
18.8099999,0.40462008118629456,3.4955344200134277,10.754754066467285,-5.279541015625,6.2713623046875,-15.1214599609375
18.8299999,0.6607996821403503,3.804386615753174,10.709263801574707,2.25830078125,5.67626953125,-0.3662109375
18.8499999,0.9409212470054626,3.9624037742614746,10.3549222946167,25.9857177734375,17.5018310546875,6.65283203125
18.8699999,1.1994950771331787,3.9911341667175293,9.876082420349121,32.7301025390625,22.8271484375,14.4195556640625
18.8899999,1.4389152526855469,3.9025487899780273,9.528923034667969,12.02392578125,19.989013671875,34.820556640625
18.909999900000003,1.8938134908676147,3.4763808250427246,9.272743225097656,10.1776123046875,16.4794921875,51.6815185546875
18.929999900000002,2.1140801906585693,3.1890766620635986,9.205705642700195,38.970947265625,22.4151611328125,57.586669921875
18.9499999,2.293645143508911,2.9520506858825684,9.20091724395752,58.4259033203125,27.6947021484375,74.76806640625
18.9699999,2.434903144836426,2.6839001178741455,9.272743225097656,37.933349609375,21.7742919921875,92.10205078125
18.9899999,2.537853717803955,2.3295583724975586,9.351752281188965,-2.471923828125,11.6119384765625,96.588134765625
19.0099999,2.607285737991333,1.7860745191574097,9.493009567260742,-6.04248046875,12.63427734375,95.5047607421875
19.0299999,2.6360161304473877,1.2042834758758545,9.68933391571045,20.32470703125,18.9208984375,97.3663330078125
19.0499999,2.6001031398773193,0.608127236366272,9.943120002746582,24.0325927734375,11.016845703125,99.7772216796875
19.0699999,2.540247917175293,0.17477671802043915,10.254365921020508,2.7313232421875,0.91552734375,95.8404541015625
19.089999900000002,2.454056739807129,-0.2585737705230713,10.45547866821289,-20.5078125,-0.9307861328125,91.9189453125
19.109999900000002,2.3798365592956543,-0.2849099934101105,10.481815338134766,-26.1077880859375,2.716064453125,82.1380615234375
19.1299999,2.2864625453948975,-0.11971008777618408,10.453084945678711,-1.922607421875,7.2479248046875,86.1358642578125
19.1499999,2.1739351749420166,0.14365209639072418,10.409989356994629,8.7127685546875,0.06103515625,101.0589599609375
19.1699999,2.0470423698425293,0.2849099934101105,10.402806282043457,-23.529052734375,-8.3160400390625,101.7913818359375
19.1899999,1.8818424940109253,0.11971008777618408,10.314221382141113,-51.6815185546875,-9.5062255859375,89.5233154296875
19.2099999,1.7262194156646729,-0.16519992053508759,10.11550235748291,-52.8106689453125,-6.9732666015625,83.0230712890625
19.2299999,1.558625340461731,-0.4189853072166443,9.919178009033203,-13.3056640625,-5.157470703125,86.6546630859375
19.249999900000002,1.3934253454208374,-0.8259995579719543,9.68933391571045,-13.702392578125,-12.9852294921875,97.6104736328125
19.269999900000002,1.2330138683319092,-1.3024457693099976,9.490615844726562,-58.349609375,-17.1661376953125,87.5701904296875
19.2899999,1.0582371950149536,-1.9345149993896484,9.217676162719727,-75.0274658203125,-13.336181640625,66.40625
19.3099999,0.8810662031173706,-2.5330653190612793,8.951920509338379,-29.876708984375,-4.4097900390625,58.2427978515625
19.3299999,0.6919242739677429,-2.9041666984558105,8.884882926940918,9.6893310546875,2.716064453125,57.6324462890625
19.3499999,0.48602294921875,-3.181894063949585,8.949525833129883,-13.5345458984375,-3.0670166015625,53.4210205078125
19.3699999,0.2968810200691223,-3.423708438873291,9.282320022583008,-36.102294921875,0.7476806640625,35.2630615234375
19.3899999,0.12449848651885986,-3.6559460163116455,9.732429504394531,-28.076171875,9.9639892578125,12.237548828125
19.409999900000003,0.011971008032560349,-3.648763418197632,10.254365921020508,-12.5274658203125,6.6986083984375,-4.4097900390625
19.429999900000002,-0.05985504388809204,-3.5649664402008057,10.769119262695312,-10.6201171875,-4.45556640625,-7.110595703125
19.4499999,-0.08379705995321274,-3.3494882583618164,11.202469825744629,-8.9111328125,-10.0250244140625,-15.2435302734375
19.4699999,-0.06703764945268631,-3.1914708614349365,11.45146656036377,-4.0435791015625,-12.02392578125,-33.1268310546875
19.4899999,-0.028730420395731926,-3.0837318897247314,11.377246856689453,1.64794921875,-19.8822021484375,-48.2177734375
19.5099999,0.021547814831137657,-2.8203697204589844,11.063606262207031,5.8135986328125,-24.2462158203125,-59.417724609375
19.5299999,0.06464344263076782,-2.315192937850952,10.45547866821289,3.7689208984375,-21.453857421875,-62.1490478515625
19.5499999,0.10534487664699554,-1.7812861204147339,9.775525093078613,1.190185546875,-10.2691650390625,-53.77197265625
19.5699999,0.1412578970193863,-1.3120225667953491,9.188945770263672,-3.60107421875,-0.823974609375,-55.8013916015625
19.589999900000002,0.14844051003456116,-1.1013327836990356,8.827422142028809,-9.0484619140625,-2.227783203125,-68.7103271484375
19.609999900000002,0.10773907601833344,-1.1180921792984009,8.755595207214355,-6.28662109375,-3.5858154296875,-79.7119140625
19.6299999,-0.004788403399288654,-1.1659762859344482,8.880094528198242,1.129150390625,-2.0904541015625,-83.984375
19.6499999,-0.16759411990642548,-1.0319008827209473,9.150638580322266,6.3323974609375,-2.1514892578125,-83.9080810546875
19.6699999,-0.30885201692581177,-0.8667010068893433,9.521739959716797,8.575439453125,-5.06591796875,-77.94189453125
19.6899999,-0.38307225704193115,-0.7565677165985107,9.768342971801758,7.0343017578125,-15.1519775390625,-76.8585205078125
19.7099999,-0.3926490843296051,-0.8738836050033569,9.821015357971191,7.14111328125,-19.6685791015625,-88.37890625
19.7299999,-0.3447650372982025,-1.1300631761550903,9.593565940856934,0.8392333984375,-12.20703125,-103.4393310546875
19.749999900000002,-0.28730419278144836,-1.256955862045288,9.157821655273438,-9.4146728515625,-2.8839111328125,-109.2071533203125
19.769999900000002,-0.20111294090747833,-1.1013327836990356,8.71728801727295,-1.7547607421875,5.31005859375,-102.84423828125
19.7899999,-0.05985504388809204,-0.9385270476341248,8.396465301513672,6.7291259765625,11.1083984375,-87.249755859375
19.8099999,0.0694318488240242,-0.8188169598579407,8.154650688171387,5.584716796875,12.63427734375,-93.8568115234375
19.8299999,0.16519992053508759,-0.6416460275650024,8.226476669311523,6.2713623046875,25.8941650390625,-115.78369140625
19.8499999,0.20350714027881622,-0.3280056416988373,8.585607528686523,-0.91552734375,33.477783203125,-112.6708984375
19.8699999,0.16759411990642548,0.2106897532939911,9.150638580322266,-12.3443603515625,20.782470703125,-88.92822265625
19.8899999,0.090979665517807,0.8619126081466675,9.63187313079834,-7.9498291015625,10.8489990234375,-83.2977294921875
19.909999900000003,0.004788403399288654,1.3527239561080933,10.070012092590332,7.568359375,24.261474609375,-91.6748046875
19.929999900000002,-0.13168109953403473,1.644816517829895,10.11550235748291,7.354736328125,26.8402099609375,-89.6453857421875
19.9499999,-0.26336219906806946,2.070984363555908,10.093954086303711,-4.57763671875,18.6614990234375,-78.9794921875
19.9699999,-0.395043283700943,2.3487119674682617,9.859322547912598,-11.71875,18.8751220703125,-57.159423828125
19.9899999,-0.47165772318840027,2.784456491470337,9.68933391571045,5.767822265625,32.012939453125,-52.947998046875
20.0099999,-0.49320554733276367,3.0310592651367188,9.57441234588623,20.5078125,40.435791015625,-46.81396484375
20.0299999,-0.4429273009300232,3.2537200450897217,9.643844604492188,12.1917724609375,27.069091796875,-31.402587890625
20.0499999,-0.2801215946674347,3.3255462646484375,9.816226959228516,-1.2054443359375,15.4571533203125,-13.5650634765625
20.0699999,-0.043095629662275314,3.3423056602478027,9.995792388916016,0.274658203125,19.195556640625,-5.9967041015625
20.089999900000002,0.23702596127986908,3.3494882583618164,10.11550235748291,10.4522705078125,22.03369140625,-1.556396484375
20.109999900000002,0.4884171485900879,3.2968156337738037,10.180145263671875,8.8348388671875,16.448974609375,17.730712890625
20.1299999,0.7445967197418213,3.4548330307006836,10.38844108581543,1.556396484375,11.322021484375,32.5164794921875
20.1499999,0.9816226959228516,3.3710360527038574,10.474632263183594,0.4425048828125,3.570556640625,45.501708984375
20.1699999,1.2449848651885986,3.3662476539611816,10.505757331848145,15.350341796875,3.143310546875,47.1649169921875
20.1899999,1.4987702369689941,3.2297780513763428,10.38844108581543,25.9857177734375,7.171630859375,56.3812255859375
20.2099999,1.7142484188079834,3.0406360626220703,10.189722061157227,20.69091796875,3.8299560546875,78.2928466796875
20.2299999,1.9057846069335938,2.698265314102173,10.055646896362305,6.2408447265625,-0.274658203125,92.254638671875
20.249999900000002,2.051830768585205,2.0685901641845703,9.832986831665039,-6.4697265625,-8.2550048828125,90.8966064453125
20.269999900000002,2.1595699787139893,1.436521053314209,9.68694019317627,4.913330078125,-3.1585693359375,77.5604248046875
20.2899999,2.22660756111145,0.849941611289978,9.63187313079834,15.4266357421875,7.1258544921875,83.55712890625
20.3099999,2.2409727573394775,0.38307225704193115,9.59596061706543,-1.8768310546875,-1.8463134765625,101.3946533203125
20.3299999,2.2433669567108154,-0.035913024097681046,9.768342971801758,-10.4217529296875,-4.8675537109375,100.433349609375
