# Time (seconds),Accel_X,Accel_Y,Accel_Z,Gyro_X,Gyro_Y,Gyro_Z
0.0099999,1.0103530883789062,1.4724340438842773,-9.639056205749512,-38.970947265625,-16.3726806640625,-10.040283203125
0.029999900000000003,0.933738648891449,1.6112977266311646,-9.612719535827637,-46.6461181640625,-20.1568603515625,-12.664794921875
0.0499999,0.727837324142456,1.9033904075622559,-9.636661529541016,-67.9779052734375,-17.7154541015625,-14.007568359375
0.0699999,0.6368576288223267,2.099714994430542,-9.66539192199707,-59.2803955078125,-15.3961181640625,-16.7083740234375
0.08999990000000001,0.5961562395095825,2.3032219409942627,-9.655815124511719,-41.0614013671875,-14.678955078125,-15.350341796875
0.10999990000000001,0.586579442024231,2.4420857429504395,-9.66299819946289,-38.4674072265625,-17.822265625,-12.1307373046875
0.1299999,0.6224924325942993,2.5522189140319824,-9.799467086791992,-44.708251953125,-19.256591796875,-15.228271484375
0.14999990000000002,0.790086567401886,2.3511061668395996,-10.053253173828125,-26.3671875,-10.2996826171875,-14.70947265625
0.1699999,1.0558429956436157,1.9608511924743652,-10.400412559509277,2.8839111328125,1.89208984375,-17.7764892578125
0.1899999,1.3958195447921753,1.6304513216018677,-10.845733642578125,1.2664794921875,5.92041015625,-32.7301025390625
0.20999990000000002,1.7166426181793213,1.5466543436050415,-11.02051067352295,-16.8609619140625,15.533447265625,-39.36767578125
0.2299999,1.9129672050476074,1.8842366933822632,-11.12106704711914,-25.3448486328125,18.524169921875,-32.501220703125
0.2499999,1.9345149993896484,2.6144683361053467,-10.745177268981934,-15.167236328125,24.4140625,-25.8941650390625
0.2699999,1.800439715385437,3.5218706130981445,-10.204087257385254,-2.4566650390625,21.3165283203125,-23.13232421875
0.28999990000000003,1.5466543436050415,4.393360137939453,-9.502586364746094,5.9814453125,15.2130126953125,-19.3328857421875
0.3099999,1.194706678390503,5.188235282897949,-8.844181060791016,9.307861328125,17.2119140625,-10.3607177734375
0.3299999,0.768538773059845,5.92325496673584,-8.329427719116211,2.86865234375,14.8773193359375,-1.953125
0.34999990000000003,0.3256114423274994,6.603208065032959,-8.001421928405762,-6.011962890625,6.34765625,7.14111328125
0.3699999,-0.09816227108240128,7.0557122230529785,-7.738059997558594,0.885009765625,1.8463134765625,22.979736328125
0.3899999,-0.48602294921875,7.496245384216309,-7.694964408874512,13.24462890625,-2.8228759765625,28.106689453125
0.40999990000000003,-0.790086567401886,7.627926826477051,-7.747636795043945,20.2789306640625,-5.0506591796875,40.008544921875
0.4299999,-1.0295066833496094,7.694964408874512,-7.977479934692383,13.5040283203125,-5.8135986328125,52.91748046875
0.4499999,-1.1899182796478271,7.613561630249023,-8.283937454223633,11.0015869140625,-7.6141357421875,60.9893798828125
0.4699999,-1.2880805730819702,7.340622425079346,-8.528146743774414,12.4053955078125,-3.448486328125,71.1822509765625
0.4899999,-1.3623007535934448,7.007828235626221,-8.702922821044922,7.4615478515625,-6.4697265625,76.59912109375
0.5099999,-1.41257905960083,6.466738700866699,-8.69095230102539,9.9639892578125,-10.650634765625,82.9925537109375
0.5299999,-1.4891934394836426,5.856217384338379,-8.583212852478027,12.5274658203125,-15.80810546875,87.738037109375
0.5499999,-1.5705963373184204,5.171475887298584,-8.365341186523438,13.458251953125,-18.5394287109375,86.8377685546875
0.5699999,-1.6519991159439087,4.378994941711426,-8.180987358093262,9.857177734375,-24.505615234375,88.5162353515625
0.5899998999999999,-1.7717092037200928,3.6583402156829834,-8.044517517089844,6.4697265625,-28.045654296875,83.8623046875
0.6099998999999999,-1.9177556037902832,2.956839084625244,-8.054094314575195,9.2315673828125,-27.8472900390625,79.742431640625
0.6299999,-2.049436569213867,2.2912509441375732,-8.307879447937012,9.8876953125,-30.8380126953125,78.4912109375
0.6499999,-2.1356279850006104,1.702277421951294,-8.688557624816895,-1.46484375,-27.2064208984375,71.8994140625
0.6699999,-2.1045033931732178,1.235408067703247,-9.093177795410156,-18.829345703125,-20.294189453125,60.3179931640625
0.6899999,-1.941697597503662,0.7876923680305481,-9.35893440246582,-18.035888671875,-19.4091796875,56.182861328125
0.7099999,-1.7070658206939697,0.42616790533065796,-9.459490776062012,0.7476806640625,-22.3846435546875,49.652099609375
0.7299998999999999,-1.4532804489135742,0.11013327538967133,-9.428366661071777,10.55908203125,-24.444580078125,35.1104736328125
0.7499998999999999,-1.1875240802764893,-0.2106897532939911,-9.387664794921875,-0.67138671875,-24.23095703125,25.3753662109375
0.7699999,-0.9552865028381348,-0.45010992884635925,-9.440337181091309,-12.9547119140625,-23.8800048828125,19.83642578125
0.7899999,-0.7350199222564697,-0.569819986820221,-9.53849983215332,-10.7879638671875,-20.965576171875,10.9405517578125
0.8099999,-0.5267243981361389,-0.5267243981361389,-9.627084732055664,-1.52587890625,-16.1895751953125,1.3580322265625
0.8299999,-0.31842881441116333,-0.3064578175544739,-9.742006301879883,3.2958984375,-16.7694091796875,-5.7220458984375
0.8499998999999999,-0.1173158809542656,-0.13168109953403473,-9.81143856048584,4.1656494140625,-16.6168212890625,-3.4942626953125
0.8699998999999999,0.08619125932455063,0.08858546614646912,-9.938331604003906,3.753662109375,-15.1214599609375,-11.3677978515625
0.8899999,0.2513911724090576,0.19393034279346466,-10.065223693847656,-1.9989013671875,-10.6048583984375,-21.1639404296875
0.9099999,0.42856210470199585,0.304063618183136,-10.218452453613281,-12.0086669921875,-7.4920654296875,-25.4974365234375
0.9299999,0.6248866319656372,0.36152446269989014,-10.287884712219238,-17.822265625,-5.9967041015625,-25.604248046875
0.9499999,0.8259995579719543,0.49559974670410156,-10.256759643554688,-17.6849365234375,-4.669189453125,-33.538818359375
0.9699998999999999,0.9888052940368652,0.6320692300796509,-10.247182846069336,-14.190673828125,-8.2855224609375,-43.2281494140625
0.9899998999999999,1.0869675874710083,0.751779317855835,-10.27591323852539,-9.4451904296875,-6.6986083984375,-44.6014404296875
1.0099999,1.0749965906143188,1.0007762908935547,-10.460267066955566,-14.7705078125,-1.434326171875,-47.6226806640625
1.0299999,1.0103530883789062,1.3239935636520386,-10.682928085327148,-24.10888671875,7.14111328125,-53.375244140625
1.0499999,0.933738648891449,1.6759412288665771,-10.819397926330566,-23.2696533203125,12.8021240234375,-52.9632568359375
1.0699999,0.8930372595787048,2.0207061767578125,-10.857705116271973,-8.1024169921875,12.14599609375,-53.680419921875
1.0899999,0.8978256583213806,2.169146776199341,-10.735600471496582,6.0272216796875,14.5263671875,-54.6112060546875
1.1099999,0.933738648891449,2.1954829692840576,-10.620678901672363,-10.6048583984375,17.2882080078125,-61.46240234375
1.1299999,1.0007762908935547,2.1595699787139893,-10.493785858154297,-26.214599609375,21.881103515625,-66.3299560546875
1.1499999,1.072602391242981,2.118868589401245,-10.369287490844727,-17.3797607421875,26.3671875,-65.5059814453125
1.1699998999999999,1.161187767982483,2.1763293743133545,-10.14902114868164,-7.9498291015625,30.487060546875,-66.3604736328125
1.1899998999999999,1.278503656387329,2.3989901542663574,-9.86889934539795,-12.054443359375,30.1971435546875,-76.202392578125
1.2099999,1.3886369466781616,2.7006595134735107,-9.500192642211914,-13.61083984375,29.296875,-79.071044921875
1.2299999,1.479616641998291,3.1651346683502197,-9.208099365234375,-9.765625,26.06201171875,-76.7364501953125
1.2499999,1.501164436340332,3.8570590019226074,-9.006986618041992,-0.5950927734375,25.4058837890625,-77.0263671875
1.2699999,1.4987702369689941,4.520252704620361,-8.973467826843262,6.378173828125,26.7486572265625,-71.685791015625
1.2899999,1.4652514457702637,5.097255229949951,-9.02135181427002,11.2152099609375,28.4271240234375,-62.042236328125
1.3099999,1.3934253454208374,5.509057998657227,-9.11233139038086,12.8631591796875,28.5186767578125,-59.417724609375
1.3299999,1.278503656387329,5.78678560256958,-9.32541561126709,9.58251953125,23.3154296875,-56.7626953125
1.3499999,1.1204863786697388,5.963956356048584,-9.488221168518066,2.197265625,27.4200439453125,-45.928955078125
1.3699999,0.9457096457481384,6.191405773162842,-9.615114212036133,-10.162353515625,32.8369140625,-34.0576171875
1.3899999,0.7829039692878723,6.380547523498535,-9.48343276977539,-16.2200927734375,32.073974609375,-23.101806640625
1.4099999,0.629675030708313,6.6127848625183105,-9.107542991638184,-16.6778564453125,24.0020751953125,-15.2587890625
1.4299998999999999,0.4668693244457245,6.823474884033203,-8.650250434875488,-7.415771484375,14.4195556640625,-4.82177734375
1.4499999,0.24660277366638184,7.038952827453613,-8.35097599029541,-2.044677734375,8.7738037109375,10.040283203125
1.4699999,-0.021547814831137657,7.2352776527404785,-8.192957878112793,6.5460205078125,13.7939453125,20.233154296875
1.4899999,-0.3495534360408783,7.33583402633667,-8.267178535461426,19.22607421875,10.6658935546875,30.8837890625
1.5099999,-0.6847416758537292,7.271190643310547,-8.504204750061035,10.07080078125,1.312255859375,41.32080078125
1.5299999,-1.0007762908935547,7.086836814880371,-8.5903959274292,-12.2222900390625,8.48388671875,52.7496337890625
1.5499999,-1.5107412338256836,6.531382083892822,-8.219294548034668,13.5650634765625,0.42724609375,64.27001953125
1.5699999,-1.6855180263519287,6.287173748016357,-7.704541206359863,58.9752197265625,-14.984130859375,69.6563720703125
1.5899999,-1.7956513166427612,6.009446144104004,-7.3669586181640625,61.614990234375,-24.932861328125,75.2716064453125
1.6099999,-1.8962076902389526,5.815515995025635,-7.232883453369141,23.162841796875,-19.4091796875,81.268310546875
1.6299999,-2.0039467811584473,5.494692802429199,-7.3693528175354,3.3721923828125,-17.63916015625,90.4388427734375
1.6499999,-2.1068975925445557,5.0254292488098145,-7.568071365356445,34.3170166015625,-25.9552001953125,96.3134765625
1.6699999,-2.22660756111145,4.4723687171936035,-7.8745293617248535,60.7757568359375,-34.271240234375,88.8214111328125
1.6899998999999999,-2.296039342880249,3.737348794937134,-8.281543731689453,41.4276123046875,-28.594970703125,85.2203369140625
1.7099999,-2.319981336593628,3.1028854846954346,-8.78432559967041,-3.0059814453125,-18.8446044921875,84.89990234375
1.7299999,-2.2816741466522217,2.5306711196899414,-9.064447402954102,-21.240234375,-14.4500732421875,83.7860107421875
1.7499999,-2.207453966140747,2.1523873805999756,-9.078812599182129,-4.913330078125,-23.7579345703125,76.66015625
1.7699999,-2.099714994430542,1.821987509727478,-8.875306129455566,17.3187255859375,-34.1033935546875,71.319580078125
1.7899999,-1.9991583824157715,1.659181833267212,-8.7484130859375,9.8876953125,-34.942626953125,66.58935546875
1.8099999,-1.9273324012756348,1.5634137392044067,-8.793902397155762,-11.6119384765625,-29.296875,66.3299560546875
1.8299999,-1.86508309841156,1.4053963422775269,-9.009381294250488,-12.4969482421875,-26.18408203125,67.4285888671875
1.8499999,-1.8267759084701538,1.216254472732544,-9.313444137573242,-2.716064453125,-29.0069580078125,59.0972900390625
1.8699999,-1.7693150043487549,0.8643068075180054,-9.586383819580078,0.518798828125,-25.2685546875,50.0640869140625
1.8899999,-1.6879122257232666,0.5099649429321289,-9.892841339111328,-10.1470947265625,-20.4925537109375,41.3818359375
1.9099999,-1.623268723487854,0.26336219906806946,-10.103530883789062,-10.711669921875,-15.5487060546875,33.905029296875
1.9299998999999999,-1.5610195398330688,0.22266076505184174,-10.244789123535156,-12.115478515625,-15.56396484375,27.801513671875
1.9499999,-1.4700398445129395,0.3280056416988373,-10.129867553710938,-18.585205078125,-10.6048583984375,27.40478515625
1.9699999,-1.3215993642807007,0.3926490843296051,-9.943120002746582,-27.4658203125,-13.3819580078125,28.25927734375
1.9899999,-1.161187767982483,0.5889736413955688,-9.68933391571045,-28.25927734375,-13.336181640625,16.9219970703125
2.0099999,-0.9864110946655273,0.7422025203704834,-9.59835433959961,-22.552490234375,-12.2222900390625,11.04736328125
2.0299999,-0.7709329724311829,0.9026140570640564,-9.679757118225098,-24.2156982421875,-5.4931640625,16.78466796875
2.0499999,-0.5793967843055725,0.9888052940368652,-9.888052940368652,-43.7469482421875,1.6632080078125,12.908935546875
2.0699999,-0.35913026332855225,0.8930372595787048,-10.06043529510498,-51.910400390625,3.84521484375,-0.8697509765625
2.0899999,-0.19393034279346466,0.6967126727104187,-10.163386344909668,-38.63525390625,-1.0223388671875,-15.3045654296875
2.1099999,-0.10773907601833344,0.5219359993934631,-10.170568466186523,-21.3623046875,-1.678466796875,-21.54541015625
2.1299999,-0.07182604819536209,0.47165772318840027,-10.182539939880371,-18.768310546875,0.0152587890625,-25.6500244140625
2.1499999,-0.0694318488240242,0.6775590777397156,-10.165780067443848,-27.099609375,3.7841796875,-35.4766845703125
2.1699999,-0.033518824726343155,1.0845733880996704,-10.139444351196289,-22.491455078125,3.662109375,-39.9322509765625
2.1899999,0.0454898327589035,1.522712230682373,-10.062829971313477,-10.040283203125,3.9215087890625,-33.9813232421875
2.2099999,0.12449848651885986,1.9632453918457031,-9.895236015319824,-1.953125,6.072998046875,-36.9415283203125
2.2299999,0.22026655077934265,2.166752576828003,-9.684545516967773,8.270263671875,4.39453125,-44.5404052734375
2.2499999,0.2968810200691223,2.1715409755706787,-9.502586364746094,13.946533203125,-2.4871826171875,-49.4842529296875
2.2699999,0.33997663855552673,2.0374655723571777,-9.385271072387695,13.824462890625,-3.9825439453125,-51.6815185546875
2.2899999,0.36152446269989014,1.867477297782898,-9.481039047241211,6.500244140625,-3.173828125,-56.82373046875
2.3099999,0.3471592366695404,1.7573440074920654,-9.703699111938477,-3.0059814453125,0.8697509765625,-63.568115234375
2.3299999,0.31842881441116333,1.8171991109848022,-9.979032516479492,2.4871826171875,5.157470703125,-70.5108642578125
2.3499999,0.27054479718208313,1.9536685943603516,-10.261548042297363,15.228271484375,5.1422119140625,-68.328857421875
2.3699999,0.22744916379451752,2.10210919380188,-10.414777755737305,13.4735107421875,6.1798095703125,-68.7255859375
2.3899999,0.2106897532939911,2.1763293743133545,-10.572794914245605,-1.28173828125,7.3089599609375,-77.789306640625
2.4099999,0.20350714027881622,2.3032219409942627,-10.620678901672363,-4.3182373046875,12.1917724609375,-87.7838134765625
2.4299999,0.22026655077934265,2.341529369354248,-10.706870079040527,4.058837890625,17.364501953125,-81.2835693359375
2.4499999,0.24181437492370605,2.451662540435791,-10.678139686584473,-3.3721923828125,23.345947265625,-77.117919921875
2.4699999,0.29209262132644653,2.5977089405059814,-10.563218116760254,-16.4794921875,30.76171875,-89.2486572265625
2.4899999,0.35673606395721436,2.7269957065582275,-10.326191902160645,-17.15087890625,31.8756103515625,-96.3287353515625
2.5099999,0.42377370595932007,2.9759926795959473,-9.99339771270752,-2.349853515625,32.745361328125,-93.0633544921875
2.5299999,0.4884171485900879,3.335123062133789,-9.739612579345703,12.0849609375,32.1197509765625,-88.43994140625
2.5499999,0.5339069962501526,4.072536945343018,-9.660603523254395,5.5389404296875,33.99658203125,-93.109130859375
2.5699999,0.6129156351089478,4.953603267669678,-9.703699111938477,-0.8544921875,44.2047119140625,-81.390380859375
2.5899999,0.6919242739677429,5.837063789367676,-9.749189376831055,9.429931640625,52.0477294921875,-51.544189453125
2.6099999,0.7589619159698486,6.5912370681762695,-9.787496566772461,9.2620849609375,46.5240478515625,-42.0684814453125
2.6299999,0.7924807667732239,6.89530086517334,-9.768342971801758,3.4637451171875,43.8232421875,-39.154052734375
2.6499999,0.768538773059845,6.885724067687988,-9.75397777557373,-3.631591796875,46.722412109375,-30.1666259765625
2.6699999,0.7086837291717529,6.8043212890625,-9.660603523254395,-10.589599609375,50.8880615234375,-18.7225341796875
2.6899999,0.6320692300796509,6.718130111694336,-9.430760383605957,-8.331298828125,46.234130859375,-4.45556640625
2.7099999,0.47884035110473633,6.799532890319824,-9.069235801696777,-0.1983642578125,37.445068359375,6.3934326171875
2.7299999,0.3064578175544739,6.818686485290527,-8.78432559967041,11.3372802734375,28.4271240234375,20.1416015625
2.7499999,0.07900865375995636,6.761225700378418,-8.585607528686523,24.8565673828125,28.289794921875,35.430908203125
2.7699999,-0.1388636976480484,6.538564682006836,-8.508993148803711,32.1807861328125,27.0538330078125,36.2548828125
2.7899999,-0.31842881441116333,6.270414352416992,-8.439560890197754,24.2462158203125,17.2576904296875,34.6221923828125
2.8099999,-0.4908113479614258,6.2416839599609375,-8.281543731689453,-1.9683837890625,8.48388671875,39.9169921875
2.8299999,-0.6631938815116882,6.358999729156494,-7.94635534286499,-2.5482177734375,9.4451904296875,62.19482421875
2.8499999,-0.849941611289978,6.607996463775635,-7.575253963470459,24.3072509765625,-1.7852783203125,80.902099609375
2.8699999,-0.9983820915222168,6.715735912322998,-7.38132381439209,32.4554443359375,-19.7296142578125,82.8094482421875
2.8899999,-1.1779472827911377,6.7061591148376465,-7.359776020050049,-11.0931396484375,-23.0255126953125,83.8470458984375
2.9099999,-1.4077905416488647,6.821080684661865,-7.465120792388916,-51.3763427734375,-12.7410888671875,92.315673828125
2.9299999,-1.6927006244659424,6.6630635261535645,-7.532158374786377,-28.3355712890625,-21.5301513671875,121.1395263671875
2.9499999,-2.0231003761291504,6.421248912811279,-7.453149795532227,12.481689453125,-38.75732421875,126.922607421875
2.9699999,-2.3127987384796143,5.726930618286133,-7.4316020011901855,9.0789794921875,-50.1251220703125,113.6932373046875
2.9899999,-2.518700122833252,4.807557106018066,-7.436390399932861,-25.7110595703125,-38.330078125,107.330322265625
3.0099999,-2.6815059185028076,3.957615375518799,-7.493851184844971,-38.055419921875,-34.149169921875,108.0322265625
3.0299999,-2.8227639198303223,3.205836057662964,-7.484274387359619,3.3416748046875,-47.66845703125,109.5428466796875
3.0499999,-2.942473888397217,2.6216509342193604,-7.627926826477051,28.411865234375,-64.666748046875,100.494384765625
3.0699999,-3.1244332790374756,1.6424223184585571,-8.504204750061035,-29.296875,-34.027099609375,80.7037353515625
3.0899999,-3.138798475265503,1.237802267074585,-9.20091724395752,-13.3819580078125,-36.865234375,74.70703125
3.1099999,-3.1651346683502197,1.115697979927063,-9.68694019317627,1.52587890625,-42.022705078125,59.783935546875
3.1299999,-3.1723172664642334,1.1085153818130493,-10.110713958740234,-6.5155029296875,-33.905029296875,52.703857421875
3.1499999,-3.1435868740081787,1.2761094570159912,-10.304644584655762,-18.6614990234375,-22.4761962890625,51.0711669921875
3.1699999,-3.0789434909820557,1.4700398445129395,-10.333374977111816,-5.31005859375,-18.585205078125,48.1414794921875
3.1899999,-3.0095114707946777,1.601720929145813,-10.168174743652344,4.1046142578125,-24.505615234375,38.787841796875
3.2099999,-2.9712042808532715,1.5849615335464478,-9.981427192687988,5.523681640625,-21.91162109375,35.2325439453125
3.2299999,-2.940079689025879,1.4748282432556152,-9.919178009033203,2.655029296875,-15.472412109375,32.684326171875
3.2499999,-2.9233202934265137,1.194706678390503,-9.895236015319824,-2.8533935546875,-7.568359375,31.036376953125
3.2699999,-2.846705913543701,0.7398083209991455,-9.861717224121094,-8.11767578125,-8.331298828125,20.965576171875
3.2899999,-2.738966703414917,0.18914192914962769,-9.670180320739746,0.0152587890625,-12.26806640625,8.636474609375
3.3099999,-2.6001031398773193,-0.21787235140800476,-9.457097053527832,18.2647705078125,-16.326904296875,-4.8065185546875
3.3299999000000002,-2.403778553009033,-0.47644615173339844,-9.459490776062012,31.036376953125,-21.2860107421875,-7.9193115234375
3.3499999,-2.2242133617401123,-0.4668693244457245,-9.612719535827637,28.533935546875,-15.1214599609375,-11.3372802734375
3.3699999,-1.9943699836730957,-0.26096799969673157,-9.995792388916016,21.8658447265625,-9.6893310546875,-20.5841064453125
3.3899999,-1.778891921043396,-0.047884032130241394,-10.47942066192627,25.2227783203125,-10.772705078125,-20.8740234375
3.4099999,-1.558625340461731,-0.16519992053508759,-10.96304988861084,26.3519287109375,-7.0343017578125,-14.4805908203125
3.4299999,-1.3718775510787964,-0.3519476354122162,-11.341333389282227,7.415771484375,2.0751953125,-28.717041015625
3.4499999,-1.139639973640442,-0.7852981686592102,-11.532869338989258,-0.9613037109375,6.866455078125,-46.8902587890625
3.4699999,-0.8571242094039917,-1.070208191871643,-11.48259162902832,3.631591796875,5.4473876953125,-47.7142333984375
3.4899999,-0.5291185975074768,-1.1348515748977661,-11.267112731933594,1.6326904296875,2.2430419921875,-50.933837890625
3.5099999,-0.13168109953403473,-0.9481038451194763,-10.94150161743164,-4.6844482421875,5.2642822265625,-59.9212646484375
3.5299999,0.31364041566848755,-0.569819986820221,-10.721235275268555,-9.5062255859375,5.43212890625,-67.474365234375
3.5499999,0.730231523513794,-0.002394201699644327,-10.575188636779785,-5.615234375,6.103515625,-73.18115234375
3.5699999,1.1420341730117798,0.6655880808830261,-10.54406452178955,-7.9498291015625,8.0718994140625,-69.6258544921875
3.5899999,1.4987702369689941,1.1492167711257935,-10.524910926818848,-7.87353515625,14.0533447265625,-60.4705810546875
3.6099999,1.8124107122421265,1.3024457693099976,-10.307038307189941,-4.69970703125,23.9105224609375,-67.1234130859375
3.6299999,2.032677173614502,1.0749965906143188,-10.050858497619629,-11.23046875,15.472412109375,-84.4879150390625
3.6499999,2.169146776199341,1.0223240852355957,-9.677363395690918,2.2430419921875,10.009765625,-109.7564697265625
3.6699999,2.2026655673980713,1.137245774269104,-9.445125579833984,11.8408203125,10.8642578125,-110.321044921875
3.6899999,2.1571757793426514,1.6496049165725708,-9.524134635925293,1.5411376953125,9.6282958984375,-102.447509765625
3.7099999,2.03507137298584,2.183511972427368,-9.78989028930664,-14.6331787109375,16.5863037109375,-101.9134521484375
3.7299999,1.821987509727478,2.561795711517334,-10.074800491333008,-14.251708984375,29.0374755859375,-105.6671142578125
3.7499999,1.5418659448623657,2.8610711097717285,-10.278307914733887,-4.9591064453125,30.975341796875,-114.6087646484375
3.7699999,1.237802267074585,3.0382418632507324,-10.201693534851074,-6.2255859375,30.94482421875,-108.2916259765625
3.7899999,0.9313444495201111,3.397372245788574,-9.979032516479492,-12.4053955078125,30.5633544921875,-104.5074462890625
3.8099999,0.6488286852836609,3.88818359375,-9.828198432922363,-1.9073486328125,28.2135009765625,-101.5167236328125
3.8299999000000002,0.3998316824436188,4.357447147369385,-10.000580787658691,5.55419921875,27.008056640625,-84.0911865234375
3.8499999,0.17717093229293823,4.8267107009887695,-10.462661743164062,-14.373779296875,40.4815673828125,-68.6798095703125
3.8699999,0.05506663769483566,5.07570743560791,-10.919954299926758,-43.701171875,62.3931884765625,-57.7545166015625
3.8899999,0.05027823522686958,5.149928092956543,-10.979808807373047,-52.3529052734375,69.5953369140625,-49.3927001953125
3.9099999,0.15801730751991272,5.22175407409668,-10.503362655639648,-24.90234375,56.1370849609375,-46.1578369140625
3.9299999,0.33039984107017517,5.272032260894775,-9.792284965515137,9.33837890625,33.4320068359375,-34.6221923828125
3.9499999,0.47405192255973816,5.446808815002441,-9.148244857788086,3.082275390625,31.5093994140625,-22.94921875
3.9699999,0.5674257874488831,5.592854976654053,-8.75080680847168,-18.310546875,40.1611328125,-10.9100341796875
3.9899999,0.5602431893348694,5.722142219543457,-8.520963668823242,-18.6004638671875,35.491943359375,0.335693359375
4.0099999,0.49320554733276367,5.643133640289307,-8.501810073852539,1.8768310546875,16.1285400390625,12.3443603515625
4.029999900000001,0.33518823981285095,5.475539207458496,-8.468291282653809,17.0135498046875,12.6953125,16.66259765625
4.0499999,0.15083470940589905,5.236119270324707,-8.779537200927734,13.1988525390625,13.85498046875,17.974853515625
4.069999900000001,-0.043095629662275314,4.857835292816162,-9.074024200439453,-2.4566650390625,17.7459716796875,31.3720703125
4.0899999000000005,-0.2059013396501541,4.817133903503418,-9.27034854888916,-16.7999267578125,20.538330078125,29.998779296875
4.1099999,-0.3232172429561615,4.865017890930176,-9.07641887664795,-13.7786865234375,14.007568359375,34.8358154296875
4.1299999000000005,-0.45250412821769714,5.123591423034668,-8.640673637390137,10.467529296875,-1.0986328125,46.5545654296875
4.1499999,-0.6129156351089478,5.4659624099731445,-8.360552787780762,21.78955078125,-18.890380859375,53.863525390625
4.1699999000000005,-0.8403648138046265,5.796362400054932,-8.248024940490723,-9.552001953125,-10.8489990234375,61.0809326171875
4.1899999,-1.1037269830703735,5.966350555419922,-8.374917984008789,-42.816162109375,2.25830078125,76.080322265625
4.209999900000001,-1.3742717504501343,6.052541732788086,-8.379706382751465,-35.919189453125,-2.838134765625,84.9456787109375
4.2299999,-1.6543933153152466,6.057330131530762,-8.209717750549316,-8.30078125,-23.1781005859375,87.0513916015625
4.249999900000001,-1.8794482946395874,5.92325496673584,-8.118738174438477,6.5155029296875,-37.17041015625,95.52001953125
4.2699999,-2.078166961669922,5.7556610107421875,-8.169015884399414,-23.773193359375,-25.8026123046875,106.0028076171875
4.289999900000001,-2.2457611560821533,5.477933406829834,-8.293514251708984,-48.583984375,-11.474609375,110.565185546875
4.3099999,-2.3319525718688965,4.920084476470947,-8.224082946777344,-11.3372802734375,-21.8353271484375,116.9586181640625
4.329999900000001,-2.367865562438965,4.252102375030518,-8.04691219329834,30.09033203125,-47.9583740234375,107.6507568359375
4.3499999,-2.3582887649536133,3.509899616241455,-7.970297336578369,20.8740234375,-53.955078125,96.6949462890625
4.369999900000001,-2.341529369354248,2.9951462745666504,-8.164227485656738,-19.9737548828125,-36.468505859375,92.6361083984375
4.3899999,-2.3487119674682617,2.5761611461639404,-8.49941635131836,-34.9273681640625,-25.2227783203125,100.40283203125
4.409999900000001,-2.408566951751709,2.293645143508911,-8.707711219787598,-3.997802734375,-32.65380859375,96.7864990234375
4.4299999,-2.4612393379211426,1.9297266006469727,-8.868123054504395,22.2320556640625,-48.52294921875,81.5887451171875
4.449999900000001,-2.477998733520508,1.6089035272598267,-8.96389102935791,8.209228515625,-42.3431396484375,70.2667236328125
4.4699999,-2.425326347351074,1.460463047027588,-9.210494041442871,-16.693115234375,-30.1361083984375,68.42041015625
4.489999900000001,-2.31758713722229,1.4724340438842773,-9.41400146484375,-25.4364013671875,-27.4505615234375,72.8607177734375
4.5099999,-2.1715409755706787,1.4676456451416016,-9.514557838439941,-3.4942626953125,-30.94482421875,71.929931640625
4.529999900000001,-1.9752163887023926,1.2689268589019775,-9.531316757202148,24.96337890625,-33.4014892578125,60.3485107421875
4.5499999,-1.7477672100067139,0.8212111592292786,-9.694122314453125,13.3514404296875,-32.8216552734375,48.0804443359375
4.569999900000001,-1.5083470344543457,0.304063618183136,-9.828198432922363,-7.62939453125,-19.989013671875,36.4837646484375
4.5899999000000005,-1.0989385843276978,-0.43335050344467163,-10.074800491333008,-9.796142578125,-16.90673828125,21.453857421875
4.609999900000001,-0.933738648891449,-0.6009446382522583,-10.017339706420898,-6.500244140625,-17.9901123046875,11.474609375
4.6299999000000005,-0.7709329724311829,-0.6607996821403503,-9.86889934539795,-8.636474609375,-18.49365234375,-0.0762939453125
4.6499999,-0.5889736413955688,-0.4884171485900879,-9.739612579345703,-4.486083984375,-18.5546875,-10.223388671875
4.6699999000000005,-0.3734954595565796,-0.16759411990642548,-9.72285270690918,4.3792724609375,-21.1181640625,-10.3759765625
4.6899999,-0.16759411990642548,0.272938996553421,-9.773131370544434,8.97216796875,-18.8140869140625,-5.523681640625
4.709999900000001,0.0454898327589035,0.7206547260284424,-9.995792388916016,8.6212158203125,-17.730712890625,-8.85009765625
4.7299999,0.21308395266532898,0.9672574996948242,-10.287884712219238,5.889892578125,-14.7705078125,-11.29150390625
4.749999900000001,0.33039984107017517,1.0989385843276978,-10.63743782043457,5.06591796875,-10.7421875,-14.46533203125
4.7699999,0.3878606855869293,1.0821791887283325,-10.898406028747559,1.983642578125,-5.126953125,-16.082763671875
4.789999900000001,0.38307225704193115,1.0678139925003052,-11.034875869750977,-2.7008056640625,-3.021240234375,-21.4691162109375
4.8099999,0.3016694188117981,1.1061211824417114,-11.018115997314453,1.3885498046875,-2.1209716796875,-26.275634765625
4.829999900000001,0.17717093229293823,1.2521674633026123,-10.946290016174316,7.598876953125,-2.0294189453125,-26.1383056640625
4.8499999,0.05506663769483566,1.3503297567367554,-10.898406028747559,7.110595703125,2.2125244140625,-22.3236083984375
4.869999900000001,-0.05506663769483566,1.4939818382263184,-10.8505220413208,-2.01416015625,10.07080078125,-28.411865234375
4.8899999,-0.1412578970193863,1.5658079385757446,-10.802638053894043,-4.913330078125,13.885498046875,-35.7513427734375
4.909999900000001,-0.15083470940589905,1.5753847360610962,-10.644620895385742,2.3345947265625,15.80810546875,-34.2864990234375
4.9299999,-0.13407529890537262,1.7764976024627686,-10.457873344421387,5.9051513671875,16.357421875,-39.1998291015625
4.949999900000001,-0.0694318488240242,2.145204782485962,-10.251971244812012,-0.8087158203125,19.4854736328125,-44.0826416015625
4.9699999,0.016759412363171577,2.6384103298187256,-10.074800491333008,-9.521484375,22.52197265625,-34.60693359375
4.989999900000001,0.08619125932455063,3.134010076522827,-9.888052940368652,-7.568359375,23.7884521484375,-23.3917236328125
5.0099999,0.11252748221158981,3.512293815612793,-9.679757118225098,2.0599365234375,20.3094482421875,-25.054931640625
5.029999900000001,0.11971008777618408,3.5913026332855225,-9.44752025604248,11.688232421875,16.7694091796875,-27.3590087890625
5.0499999,0.09576806426048279,3.488351821899414,-9.296685218811035,5.0048828125,14.3280029296875,-26.947021484375
5.069999900000001,0.05027823522686958,3.359065055847168,-9.186552047729492,-7.5225830078125,14.4195556640625,-27.4658203125
5.0899999000000005,-0.0071826050989329815,3.19865345954895,-9.148244857788086,-9.9639892578125,14.7857666015625,-23.8494873046875
5.109999900000001,-0.021547814831137657,3.07415509223938,-9.150638580322266,-2.7313232421875,10.6658935546875,-22.03369140625
5.1299999000000005,-0.002394201699644327,3.071760892868042,-9.157821655273438,9.3994140625,10.2386474609375,-24.139404296875
5.1499999,0.05746084079146385,3.1268274784088135,-9.244012832641602,10.772705078125,11.1846923828125,-23.3612060546875
5.1699999000000005,0.11971008777618408,3.28963303565979,-9.318233489990234,3.1890869140625,13.5650634765625,-17.242431640625
5.1899999,0.15562310814857483,3.4620156288146973,-9.39245319366455,-1.7242431640625,14.312744140625,-13.8702392578125
5.209999900000001,0.15801730751991272,3.550601005554199,-9.373299598693848,-0.5950927734375,12.8173828125,-12.5885009765625
5.2299999,0.13168109953403473,3.550601005554199,-9.306262016296387,1.2359619140625,10.3759765625,-13.0615234375
5.249999900000001,0.07900865375995636,3.5194764137268066,-9.23682975769043,-1.3580322265625,8.4991455078125,-12.9852294921875
5.2699999,0.016759412363171577,3.445256233215332,-9.14345645904541,-5.126953125,9.5367431640625,-8.4686279296875
5.289999900000001,-0.040701430290937424,3.3231520652770996,-9.090784072875977,-6.988525390625,8.1024169921875,-5.706787109375
5.3099999,-0.08140286058187485,3.246537446975708,-8.983044624328613,-0.8544921875,5.126953125,-8.11767578125
5.329999900000001,-0.09816227108240128,3.1028854846954346,-8.927978515625,10.31494140625,2.0751953125,-7.32421875
5.3499999,-0.10055647045373917,3.050212860107422,-8.959102630615234,8.5296630859375,-0.946044921875,-6.34765625
5.369999900000001,-0.09816227108240128,3.028665065765381,-9.05487060546875,-0.3204345703125,1.4495849609375,-5.4473876953125
5.3899999,-0.08619125932455063,3.043030261993408,-9.220070838928223,-0.3814697265625,2.25830078125,-4.08935546875
5.409999900000001,-0.06224924325942993,3.0885202884674072,-9.342175483703613,3.84521484375,0.8697509765625,-2.4261474609375
5.4299999,-0.040701430290937424,3.1220390796661377,-9.406818389892578,6.5765380859375,0,0.8544921875
5.449999900000001,-0.026336219161748886,3.098097085952759,-9.481039047241211,6.4849853515625,-1.2359619140625,3.6773681640625
5.4699999,-0.033518824726343155,2.96162748336792,-9.536105155944824,4.45556640625,0.244140625,4.2572021484375
5.489999900000001,-0.0454898327589035,2.7509377002716064,-9.643844604492188,1.5716552734375,0.823974609375,1.4495849609375
5.5099999,-0.047884032130241394,2.518700122833252,-9.696516990661621,1.9683837890625,1.6021728515625,0.030517578125
5.529999900000001,-0.038307227194309235,2.3319525718688965,-9.725247383117676,1.3885498046875,1.64794921875,1.1444091796875
5.5499999,-0.023942016065120697,2.255337953567505,-9.684545516967773,2.3651123046875,1.7547607421875,0.67138671875
5.569999900000001,-0.009576806798577309,2.2409727573394775,-9.615114212036133,2.685546875,1.5869140625,0.9002685546875
5.5899999000000005,-0.004788403399288654,2.3080103397369385,-9.545681953430176,-0.4425048828125,0.8544921875,0.6103515625
5.609999900000001,-0.004788403399288654,2.382230758666992,-9.478644371032715,-1.7547607421875,1.2359619140625,1.3427734375
5.6299999000000005,-0.004788403399288654,2.494758129119873,-9.461885452270508,-0.640869140625,0.42724609375,1.129150390625
5.6499999,-0.002394201699644327,2.5546131134033203,-9.445125579833984,1.800537109375,0.885009765625,1.4190673828125
5.6699999000000005,-0.002394201699644327,2.5953147411346436,-9.457097053527832,3.570556640625,0.3814697265625,1.0986328125
5.6899999,-0.002394201699644327,2.5929205417633057,-9.476250648498535,4.21142578125,-0.5035400390625,0.946044921875
5.709999900000001,-0.009576806798577309,2.559401512145996,-9.509769439697266,3.0975341796875,0.1068115234375,1.4495849609375
5.7299999,-0.019153613597154617,2.5330653190612793,-9.567230224609375,-0.2593994140625,0.3814697265625,1.0223388671875
5.749999900000001,-0.023942016065120697,2.4684219360351562,-9.59835433959961,0.48828125,2.105712890625,1.9989013671875
5.7699999,-0.026336219161748886,2.4372973442077637,-9.63187313079834,1.6021728515625,1.1444091796875,0.79345703125
5.789999900000001,-0.019153613597154617,2.3989901542663574,-9.615114212036133,1.953125,1.6937255859375,1.1138916015625
5.8099999,-0.0071826050989329815,2.3774423599243164,-9.579200744628906,1.6632080078125,1.6632080078125,2.105712890625
5.829999900000001,-0.002394201699644327,2.3487119674682617,-9.533711433410645,0.7781982421875,0.885009765625,1.7242431640625
5.8499999,-0.004788403399288654,2.3367409706115723,-9.493009567260742,2.6092529296875,0.3662109375,-0.1220703125
5.869999900000001,-0.009576806798577309,2.3367409706115723,-9.50737476348877,6.195068359375,-0.42724609375,-0.8544921875
5.8899999,-0.014365210197865963,2.346317768096924,-9.543288230895996,6.5460205078125,0.5645751953125,0.6256103515625
5.909999900000001,-0.016759412363171577,2.3798365592956543,-9.615114212036133,1.5716552734375,1.739501953125,0.48828125
5.9299999,-0.014365210197865963,2.408566951751709,-9.634267807006836,0.244140625,3.021240234375,0
5.949999900000001,-0.011971008032560349,2.410961151123047,-9.639056205749512,2.0751953125,1.4801025390625,1.1138916015625
5.9699999,-0.0071826050989329815,2.4229321479797363,-9.600749015808105,2.2735595703125,1.0528564453125,0.640869140625
5.989999900000001,0.004788403399288654,2.406172752380371,-9.548076629638672,2.3193359375,1.3885498046875,1.5106201171875
6.0099999,0.009576806798577309,2.38462495803833,-9.521739959716797,1.8463134765625,0.8087158203125,1.373291015625
6.029999900000001,0.011971008032560349,2.360682964324951,-9.509769439697266,1.7547607421875,0.091552734375,0.3204345703125
6.0499999,0.009576806798577309,2.3295583724975586,-9.516951560974121,1.77001953125,0.6103515625,0.7476806640625
6.069999900000001,0.0071826050989329815,2.293645143508911,-9.548076629638672,1.3427734375,0.823974609375,1.40380859375
6.0899999000000005,0.0071826050989329815,2.2433669567108154,-9.581595420837402,1.7852783203125,0.7171630859375,0.640869140625
6.109999900000001,0.002394201699644327,2.207453966140747,-9.59835433959961,0.579833984375,1.5411376953125,-0.7781982421875
6.1299999000000005,-0.0071826050989329815,2.250549554824829,-9.607931137084961,1.068115234375,0.3509521484375,0.946044921875
6.149999900000001,-0.014365210197865963,2.3247697353363037,-9.579200744628906,1.373291015625,1.0223388671875,1.5716552734375
6.1699999000000005,-0.009576806798577309,2.3558945655822754,-9.581595420837402,2.0904541015625,0.885009765625,2.5787353515625
6.1899999,-0.004788403399288654,2.382230758666992,-9.586383819580078,1.15966796875,0.091552734375,1.1749267578125
6.209999900000001,0.002394201699644327,2.3774423599243164,-9.588777542114258,-1.40380859375,0.7781982421875,1.89208984375
6.2299999,0.011971008032560349,2.31758713722229,-9.59835433959961,-0.9918212890625,1.3885498046875,4.974365234375
6.249999900000001,0.016759412363171577,2.298433542251587,-9.59835433959961,0.1678466796875,0.946044921875,2.3193359375
6.2699999,0.026336219161748886,2.233790159225464,-9.593565940856934,0.732421875,0.6103515625,0.9918212890625
6.289999900000001,0.033518824726343155,2.183511972427368,-9.576807022094727,0.1373291015625,0.5950927734375,0.701904296875
6.3099999,0.033518824726343155,2.1811177730560303,-9.560047149658203,-0.152587890625,0.2899169921875,-1.46484375
6.329999900000001,0.033518824726343155,2.190694570541382,-9.53849983215332,0.54931640625,-0.1983642578125,-0.9765625
6.3499999,0.028730420395731926,2.2577321529388428,-9.509769439697266,1.251220703125,0.1068115234375,-0.3509521484375
6.369999900000001,0.023942016065120697,2.3127987384796143,-9.514557838439941,2.99072265625,-0.8087158203125,0.6103515625
6.3899999,0.016759412363171577,2.365471363067627,-9.521739959716797,4.3182373046875,-0.7171630859375,1.0986328125
6.409999900000001,0.009576806798577309,2.3535003662109375,-9.555258750915527,2.532958984375,-0.335693359375,0.5950927734375
6.4299999,-0.002394201699644327,2.3080103397369385,-9.579200744628906,0.762939453125,-0.1678466796875,-0.1983642578125
6.449999900000001,-0.011971008032560349,2.255337953567505,-9.603142738342285,1.373291015625,-0.579833984375,-0.9002685546875
6.4699999,-0.019153613597154617,2.205059766769409,-9.612719535827637,2.3193359375,-0.6103515625,-0.1220703125
6.489999900000001,-0.026336219161748886,2.1811177730560303,-9.622296333312988,2.86865234375,0.0457763671875,0.6866455078125
6.5099999,-0.026336219161748886,2.185906171798706,-9.627084732055664,1.6632080078125,-0.0457763671875,-0.2593994140625
6.529999900000001,-0.023942016065120697,2.1763293743133545,-9.634267807006836,1.46484375,-0.06103515625,-0.4425048828125
6.5499999,-0.021547814831137657,2.1811177730560303,-9.627084732055664,1.64794921875,-0.0762939453125,-0.274658203125
6.569999900000001,-0.023942016065120697,2.190694570541382,-9.639056205749512,0.9002685546875,-0.6561279296875,-0.3814697265625
6.5899999000000005,-0.033518824726343155,2.1787235736846924,-9.643844604492188,0.701904296875,0.213623046875,1.0223388671875
6.609999900000001,-0.05027823522686958,2.188300371170044,-9.66299819946289,1.434326171875,0.54931640625,0.0762939453125
6.6299999000000005,-0.05506663769483566,2.166752576828003,-9.658209800720215,0.91552734375,1.007080078125,-0.457763671875
6.649999900000001,-0.05027823522686958,2.166752576828003,-9.636661529541016,-0.3814697265625,0.7476806640625,-0.5340576171875
6.6699999000000005,-0.038307227194309235,2.166752576828003,-9.593565940856934,0.1373291015625,0.1983642578125,-0.457763671875
6.6899999,-0.038307227194309235,2.188300371170044,-9.555258750915527,1.190185546875,-0.213623046875,0.3509521484375
6.709999900000001,-0.0454898327589035,2.205059766769409,-9.5624418258667,1.52587890625,-0.640869140625,0.457763671875
6.7299999,-0.05985504388809204,2.2146365642547607,-9.583989143371582,1.8157958984375,0.9002685546875,0.640869140625
6.749999900000001,-0.06224924325942993,2.190694570541382,-9.622296333312988,1.129150390625,1.2969970703125,0.274658203125
6.7699999,-0.05746084079146385,2.169146776199341,-9.63187313079834,1.0223388671875,0.54931640625,-0.4425048828125
6.789999900000001,-0.0454898327589035,2.142810583114624,-9.62947940826416,1.220703125,-0.3509521484375,-0.244140625
6.8099999,-0.035913024097681046,2.1284453868865967,-9.624691009521484,1.5411376953125,0.30517578125,0.1983642578125
6.829999900000001,-0.043095629662275314,2.145204782485962,-9.624691009521484,1.3427734375,0.885009765625,-0.1068115234375
6.8499999,-0.05506663769483566,2.142810583114624,-9.653421401977539,1.678466796875,0.7476806640625,0.42724609375
6.869999900000001,-0.06464344263076782,2.1380221843719482,-9.641449928283691,2.105712890625,1.7852783203125,0.9613037109375
6.8899999,-0.06703764945268631,2.126051187515259,-9.639056205749512,1.15966796875,0.3662109375,-0.30517578125
6.909999900000001,-0.05985504388809204,2.094926595687866,-9.617507934570312,0.518798828125,0.06103515625,-0.1220703125
6.9299999,-0.05985504388809204,2.0805611610412598,-9.607931137084961,0.6103515625,0.3204345703125,0.0762939453125
6.949999900000001,-0.06464344263076782,2.070984363555908,-9.63187313079834,0.67138671875,0.4730224609375,0.244140625
6.9699999,-0.07182604819536209,2.075772762298584,-9.653421401977539,-0.1983642578125,1.1138916015625,0.1678466796875
6.989999900000001,-0.07182604819536209,2.078166961669922,-9.672574996948242,-0.640869140625,1.1444091796875,-0.0152587890625
7.0099999,-0.05985504388809204,2.1045033931732178,-9.66539192199707,-0.7781982421875,0.9613037109375,-0.18310546875
7.029999900000001,-0.05267243832349777,2.1140801906585693,-9.62947940826416,-0.0457763671875,0.8087158203125,0.579833984375
7.0499999,-0.05746084079146385,2.1523873805999756,-9.615114212036133,1.1444091796875,0,0.6103515625
7.069999900000001,-0.07182604819536209,2.1571757793426514,-9.619902610778809,2.2430419921875,0.030517578125,1.0223388671875
7.0899999000000005,-0.08140286058187485,2.142810583114624,-9.636661529541016,1.922607421875,1.6326904296875,1.5106201171875
7.109999900000001,-0.07422025501728058,2.1045033931732178,-9.653421401977539,0.4425048828125,1.5411376953125,0.1373291015625
7.1299999000000005,-0.05506663769483566,2.0614075660705566,-9.646238327026367,-0.79345703125,0.5950927734375,-0.6256103515625
7.149999900000001,-0.038307227194309235,2.049436569213867,-9.619902610778809,-1.2664794921875,0.0152587890625,-0.457763671875
7.1699999000000005,-0.035913024097681046,2.0590133666992188,-9.59596061706543,-0.640869140625,0.5035400390625,0.67138671875
7.1899999,-0.043095629662275314,2.097320795059204,-9.588777542114258,0.5950927734375,0.0762939453125,0.4730224609375
7.209999900000001,-0.05267243832349777,2.1140801906585693,-9.59596061706543,0.67138671875,0.244140625,0.1678466796875
7.2299999,-0.05746084079146385,2.1164743900299072,-9.603142738342285,0.3814697265625,0.5645751953125,0.152587890625
7.249999900000001,-0.05985504388809204,2.1116859912872314,-9.619902610778809,-0.1373291015625,0.640869140625,-0.457763671875
7.2699999,-0.06224924325942993,2.1092917919158936,-9.617507934570312,-0.1068115234375,1.0223388671875,0.213623046875
7.289999900000001,-0.06703764945268631,2.1164743900299072,-9.617507934570312,0.7476806640625,0.1983642578125,0.518798828125
7.3099999,-0.07422025501728058,2.1092917919158936,-9.619902610778809,1.434326171875,0.2593994140625,0.91552734375
7.329999900000001,-0.08140286058187485,2.1116859912872314,-9.619902610778809,1.03759765625,0.5340576171875,-0.3814697265625
7.3499999,-0.08379705995321274,2.10210919380188,-9.634267807006836,0.9765625,0.42724609375,-0.1068115234375
7.369999900000001,-0.08140286058187485,2.0925323963165283,-9.639056205749512,1.6632080078125,0.5340576171875,0.7781982421875
7.3899999,-0.07661445438861847,2.10210919380188,-9.639056205749512,1.983642578125,0.732421875,-0.0152587890625
7.409999900000001,-0.07182604819536209,2.0901381969451904,-9.624691009521484,1.861572265625,0.6256103515625,0.4425048828125
7.4299999,-0.0694318488240242,2.073378562927246,-9.603142738342285,2.1209716796875,0.091552734375,0.518798828125
7.449999900000001,-0.0694318488240242,2.0685901641845703,-9.591172218322754,1.3427734375,-0.2899169921875,-0.30517578125
7.4699999,-0.07182604819536209,2.054224967956543,-9.581595420837402,0.732421875,0.1983642578125,0.54931640625
7.489999900000001,-0.07182604819536209,2.049436569213867,-9.588777542114258,0.6103515625,0.0152587890625,1.129150390625
7.5099999,-0.07182604819536209,2.0374655723571777,-9.605537414550781,1.0986328125,-0.1983642578125,0.274658203125
7.529999900000001,-0.07422025501728058,2.0254945755004883,-9.624691009521484,1.495361328125,0.18310546875,0.1678466796875
7.5499999,-0.08379705995321274,2.0207061767578125,-9.639056205749512,1.556396484375,0.0457763671875,0.213623046875
7.569999900000001,-0.09816227108240128,2.0231003761291504,-9.655815124511719,1.77001953125,-0.18310546875,0.823974609375
7.5899999000000005,-0.1149216815829277,2.0254945755004883,-9.670180320739746,2.4261474609375,0.18310546875,0.8697509765625
7.609999900000001,-0.12210428714752197,2.027888774871826,-9.68694019317627,2.6702880859375,0.3204345703125,0.640869140625
7.6299999000000005,-0.11252748221158981,1.987187385559082,-9.708487510681152,1.312255859375,0.762939453125,0.244140625
7.649999900000001,-0.10055647045373917,1.9536685943603516,-9.696516990661621,1.0528564453125,0.7171630859375,0.335693359375
7.6699999000000005,-0.09576806426048279,1.9321208000183105,-9.674968719482422,0.2288818359375,0.6256103515625,-0.091552734375
7.6899999,-0.09576806426048279,1.9297266006469727,-9.658209800720215,-0.1373291015625,0.030517578125,-0.48828125
7.709999900000001,-0.10055647045373917,1.9584569931030273,-9.646238327026367,0.518798828125,0.457763671875,0.0457763671875
7.7299999,-0.10295066982507706,1.9919757843017578,-9.641449928283691,0.7476806640625,1.1749267578125,0.9002685546875
7.749999900000001,-0.10055647045373917,2.0207061767578125,-9.636661529541016,1.495361328125,0.8697509765625,1.007080078125
7.7699999,-0.09816227108240128,2.032677173614502,-9.624691009521484,1.5869140625,0.1068115234375,0.42724609375
7.789999900000001,-0.09816227108240128,2.013523578643799,-9.622296333312988,1.4190673828125,-0.0152587890625,0.885009765625
7.8099999,-0.10534487664699554,2.006340980529785,-9.624691009521484,1.220703125,0.06103515625,0.3814697265625
7.829999900000001,-0.1149216815829277,1.9847931861877441,-9.648633003234863,1.3580322265625,0.30517578125,0.67138671875
7.8499999,-0.12210428714752197,1.9632453918457031,-9.667786598205566,2.0751953125,0.5950927734375,0.8697509765625
7.869999900000001,-0.12449848651885986,1.9512743949890137,-9.684545516967773,2.227783203125,0.518798828125,0.2899169921875
7.8899999,-0.1173158809542656,1.9273324012756348,-9.68694019317627,1.220703125,0.4425048828125,0.4425048828125
7.909999900000001,-0.11252748221158981,1.9249382019042969,-9.684545516967773,0.3662109375,0.152587890625,0.3204345703125
7.9299999,-0.1149216815829277,1.944091796875,-9.682151794433594,0.457763671875,0,0.7476806640625
7.949999900000001,-0.1173158809542656,1.941697597503662,-9.682151794433594,0.9613037109375,0.518798828125,1.983642578125
7.9699999,-0.12210428714752197,1.9536685943603516,-9.679757118225098,1.52587890625,0.8544921875,0.9918212890625
7.989999900000001,-0.11971008777618408,1.9369091987609863,-9.667786598205566,1.3885498046875,0.640869140625,0.732421875
8.0099999,-0.1149216815829277,1.9105730056762695,-9.653421401977539,1.2054443359375,0.3204345703125,1.3580322265625
8.0299999,-0.1149216815829277,1.9033904075622559,-9.651026725769043,0.5340576171875,0.457763671875,0.5645751953125
8.049999900000001,-0.1173158809542656,1.889025092124939,-9.651026725769043,0.7476806640625,0.732421875,0.732421875
8.069999900000001,-0.12449848651885986,1.8962076902389526,-9.667786598205566,1.4495849609375,0.823974609375,0.5950927734375
8.0899999,-0.13407529890537262,1.8938134908676147,-9.677363395690918,1.3275146484375,0.579833984375,0.67138671875
8.1099999,-0.13407529890537262,1.8938134908676147,-9.682151794433594,0.8392333984375,0.6256103515625,0.42724609375
8.129999900000001,-0.13407529890537262,1.8794482946395874,-9.672574996948242,0.213623046875,0.9002685546875,0.5950927734375
8.149999900000001,-0.12928688526153564,1.8722656965255737,-9.66539192199707,0.0152587890625,0.4425048828125,0.1983642578125
8.1699999,-0.12449848651885986,1.867477297782898,-9.66299819946289,0.1068115234375,0.244140625,0.1068115234375
8.1899999,-0.12210428714752197,1.8746598958969116,-9.670180320739746,0.4425048828125,1.129150390625,0.2593994140625
8.2099999,-0.12210428714752197,1.8842366933822632,-9.679757118225098,0.8087158203125,1.5716552734375,0.42724609375
8.229999900000001,-0.12210428714752197,1.886630892753601,-9.677363395690918,0.396728515625,1.2359619140625,0.3814697265625
8.2499999,-0.11971008777618408,1.8962076902389526,-9.667786598205566,0.701904296875,0.48828125,-0.1068115234375
8.2699999,-0.12210428714752197,1.8962076902389526,-9.658209800720215,0.9765625,0.5950927734375,0.0457763671875
8.2899999,-0.12928688526153564,1.8938134908676147,-9.667786598205566,1.1444091796875,0.79345703125,0.701904296875
8.309999900000001,-0.1364694982767105,1.8746598958969116,-9.691728591918945,1.0986328125,1.0833740234375,0.5340576171875
8.3299999,-0.1412578970193863,1.8555063009262085,-9.713275909423828,0.3509521484375,1.6632080078125,-0.396728515625
8.3499999,-0.1364694982767105,1.8267759084701538,-9.725247383117676,0.3509521484375,1.6326904296875,-0.4730224609375
8.3699999,-0.12928688526153564,1.8291701078414917,-9.713275909423828,-0.4119873046875,1.3275146484375,-0.4425048828125
8.389999900000001,-0.12210428714752197,1.843535304069519,-9.691728591918945,-0.54931640625,0.7171630859375,0.2288818359375
8.4099999,-0.11971008777618408,1.8698714971542358,-9.658209800720215,0.1373291015625,1.251220703125,0.579833984375
8.4299999,-0.1173158809542656,1.889025092124939,-9.636661529541016,0.5340576171875,1.1444091796875,0.3509521484375
8.4499999,-0.11252748221158981,1.8818424940109253,-9.62947940826416,0.762939453125,0.5340576171875,0.1678466796875
8.469999900000001,-0.10534487664699554,1.8794482946395874,-9.63187313079834,0.396728515625,0.6561279296875,-0.42724609375
8.4899999,-0.10295066982507706,1.8507179021835327,-9.643844604492188,0.732421875,0.8392333984375,0.1373291015625
8.5099999,-0.10295066982507706,1.843535304069519,-9.660603523254395,0.6866455078125,0.640869140625,-0.3509521484375
8.5299999,-0.11013327538967133,1.8411411046981812,-9.66539192199707,0.762939453125,0.4730224609375,-0.1678466796875
8.549999900000001,-0.1149216815829277,1.845929503440857,-9.672574996948242,1.068115234375,0.640869140625,0.0762939453125
8.569999900000001,-0.1173158809542656,1.8507179021835327,-9.66539192199707,1.89208984375,0.701904296875,0.2593994140625
8.5899999,-0.11971008777618408,1.8626888990402222,-9.679757118225098,1.9989013671875,0.274658203125,-0.5950927734375
8.6099999,-0.11971008777618408,1.8531121015548706,-9.674968719482422,1.5869140625,0.640869140625,-0.3509521484375
8.629999900000001,-0.12449848651885986,1.8626888990402222,-9.674968719482422,-0.0762939453125,0.9613037109375,0.1068115234375
8.649999900000001,-0.12210428714752197,1.8483237028121948,-9.679757118225098,0.30517578125,0.06103515625,0.457763671875
8.6699999,-0.12928688526153564,1.8483237028121948,-9.679757118225098,0.885009765625,0.457763671875,0.152587890625
8.6899999,-0.13168109953403473,1.824381709098816,-9.694122314453125,0.8544921875,0.5340576171875,-0.0457763671875
8.709999900000001,-0.1388636976480484,1.8124107122421265,-9.703699111938477,0.7781982421875,0.9613037109375,-0.1220703125
8.729999900000001,-0.1412578970193863,1.800439715385437,-9.715670585632324,0.3204345703125,0.7781982421875,-0.3662109375
8.7499999,-0.1364694982767105,1.800439715385437,-9.713275909423828,0.2593994140625,0.42724609375,-0.457763671875
8.7699999,-0.13407529890537262,1.800439715385437,-9.703699111938477,0.732421875,0.79345703125,-0.1068115234375
8.7899999,-0.12928688526153564,1.800439715385437,-9.691728591918945,0.91552734375,0.7476806640625,0.0152587890625
8.809999900000001,-0.13168109953403473,1.802833914756775,-9.672574996948242,0.885009765625,0.640869140625,-0.5340576171875
8.8299999,-0.1364694982767105,1.8052281141281128,-9.674968719482422,0.67138671875,0.06103515625,-0.3814697265625
8.8499999,-0.1412578970193863,1.8052281141281128,-9.674968719482422,0.48828125,0.8544921875,0.5950927734375
8.8699999,-0.14365209639072418,1.802833914756775,-9.6989107131958,0.67138671875,0.79345703125,0.2288818359375
8.889999900000001,-0.1412578970193863,1.7932571172714233,-9.718064308166504,0.732421875,0.640869140625,-0.6103515625
8.9099999,-0.1388636976480484,1.7908629179000854,-9.710882186889648,-0.274658203125,1.0986328125,-0.8697509765625
8.9299999,-0.13407529890537262,1.7884687185287476,-9.696516990661621,-0.457763671875,0.79345703125,-0.18310546875
8.9499999,-0.13168109953403473,1.8052281141281128,-9.66539192199707,0.1983642578125,0.0457763671875,-0.1068115234375
8.969999900000001,-0.1364694982767105,1.8076223134994507,-9.643844604492188,0.30517578125,0.213623046875,0.1373291015625
8.9899999,-0.1388636976480484,1.8076223134994507,-9.651026725769043,0.2899169921875,0.0762939453125,0.0152587890625
9.0099999,-0.14365209639072418,1.7932571172714233,-9.66299819946289,0.030517578125,0.244140625,-0.4730224609375
9.0299999,-0.14365209639072418,1.7836803197860718,-9.694122314453125,-0.42724609375,-0.152587890625,-0.7476806640625
9.049999900000001,-0.1412578970193863,1.7693150043487549,-9.6989107131958,0.2899169921875,0.5950927734375,-0.213623046875
9.069999900000001,-0.1412578970193863,1.7717092037200928,-9.701305389404297,-0.213623046875,0.1373291015625,-0.213623046875
9.0899999,-0.14604631066322327,1.7573440074920654,-9.682151794433594,-0.0762939453125,0.244140625,0.152587890625
9.1099999,-0.15322890877723694,1.7501614093780518,-9.670180320739746,-0.0457763671875,-0.244140625,-0.732421875
9.129999900000001,-0.15801730751991272,1.742978811264038,-9.660603523254395,0.6256103515625,0.30517578125,-1.129150390625
9.149999900000001,-0.15562310814857483,1.7597382068634033,-9.68694019317627,0.0152587890625,0.3509521484375,0.3204345703125
9.1699999,-0.15801730751991272,1.778891921043396,-9.706093788146973,-0.6561279296875,0.3509521484375,-0.4425048828125
9.1899999,-0.16519992053508759,1.7860745191574097,-9.713275909423828,-0.8697509765625,-0.0457763671875,-1.0986328125
9.209999900000001,-0.16998831927776337,1.7812861204147339,-9.715670585632324,-0.274658203125,0.1983642578125,-0.1220703125
9.229999900000001,-0.17477671802043915,1.7956513166427612,-9.706093788146973,-0.274658203125,0.3509521484375,-0.518798828125
9.2499999,-0.17717093229293823,1.7980455160140991,-9.706093788146973,-0.396728515625,0.2593994140625,-0.7476806640625
9.2699999,-0.181959331035614,1.800439715385437,-9.6989107131958,-0.18310546875,0.4119873046875,-0.3509521484375
9.2899999,-0.1867477297782898,1.800439715385437,-9.6989107131958,-0.5950927734375,0.6561279296875,-0.6103515625
9.309999900000001,-0.18914192914962769,1.7980455160140991,-9.701305389404297,-0.579833984375,0.5950927734375,-0.8392333984375
9.3299999,-0.1843535304069519,1.7764976024627686,-9.667786598205566,0.9307861328125,0.7476806640625,-1.0986328125
9.3499999,-0.181959331035614,1.7836803197860718,-9.667786598205566,2.8076171875,-0.885009765625,-2.7008056640625
9.3699999,-0.181959331035614,1.802833914756775,-9.651026725769043,0.579833984375,-1.007080078125,-2.288818359375
9.389999900000001,-0.19153612852096558,1.8387469053268433,-9.677363395690918,0.091552734375,0.30517578125,0.701904296875
9.4099999,-0.2082955539226532,1.8770540952682495,-9.720458984375,0.8087158203125,0.5340576171875,0.8697509765625
9.4299999,-0.22266076505184174,1.8722656965255737,-9.751583099365234,0.9765625,1.068115234375,0.9613037109375
9.4499999,-0.22505496442317963,1.8291701078414917,-9.75397777557373,0.42724609375,1.190185546875,0.0762939453125
9.469999900000001,-0.22026655077934265,1.778891921043396,-9.727641105651855,-0.1678466796875,0.701904296875,-0.54931640625
9.4899999,-0.2106897532939911,1.7405846118927002,-9.679757118225098,-0.5340576171875,0.0457763671875,-0.42724609375
9.5099999,-0.20350714027881622,1.7286136150360107,-9.651026725769043,-0.152587890625,-0.3204345703125,0.213623046875
9.5299999,-0.20111294090747833,1.7357962131500244,-9.648633003234863,0.4119873046875,-0.1220703125,-0.4425048828125
9.549999900000001,-0.20350714027881622,1.7405846118927002,-9.66299819946289,-0.091552734375,0.762939453125,-0.0152587890625
9.569999900000001,-0.20350714027881622,1.7310078144073486,-9.68933391571045,-0.091552734375,0.4119873046875,-0.0762939453125
9.5899999,-0.2082955539226532,1.7262194156646729,-9.715670585632324,0.1678466796875,0.06103515625,-0.8392333984375
9.6099999,-0.21547815203666687,1.723825216293335,-9.725247383117676,0.030517578125,0.5035400390625,-1.0833740234375
9.629999900000001,-0.22266076505184174,1.7262194156646729,-9.720458984375,-0.1373291015625,0.9918212890625,-0.6256103515625
9.649999900000001,-0.2322375625371933,1.7525556087493896,-9.715670585632324,-0.152587890625,0.30517578125,-0.67138671875
9.6699999,-0.23702596127986908,1.764526605606079,-9.68694019317627,0.335693359375,0.42724609375,-0.274658203125
9.6899999,-0.23702596127986908,1.7836803197860718,-9.667786598205566,0.274658203125,0.5950927734375,-0.7171630859375
9.709999900000001,-0.2298433631658554,1.7908629179000854,-9.641449928283691,0.0762939453125,-0.2288818359375,-0.4730224609375
9.729999900000001,-0.22266076505184174,1.7884687185287476,-9.624691009521484,-0.4119873046875,-0.823974609375,-0.7476806640625
9.7499999,-0.21787235140800476,1.7717092037200928,-9.619902610778809,0.152587890625,-1.1138916015625,-0.6256103515625
9.7699999,-0.22505496442317963,1.7525556087493896,-9.651026725769043,-0.3509521484375,-1.3275146484375,-1.6326904296875
9.7899999,-0.24420857429504395,1.7310078144073486,-9.696516990661621,-0.4119873046875,-0.1220703125,-1.4495849609375
9.809999900000001,-0.26575639843940735,1.723825216293335,-9.744400978088379,-0.54931640625,0.5950927734375,-1.0528564453125
9.8299999,-0.2825157940387726,1.7286136150360107,-9.761159896850586,-0.2899169921875,1.28173828125,-0.640869140625
9.8499999,-0.28730419278144836,1.7621324062347412,-9.763554573059082,0.0152587890625,0.1983642578125,-1.0223388671875
9.8699999,-0.2849099934101105,1.7812861204147339,-9.744400978088379,0.1678466796875,0.3814697265625,0.3509521484375
9.889999900000001,-0.2801215946674347,1.8076223134994507,-9.732429504394531,0.091552734375,1.007080078125,0.48828125
9.9099999,-0.2753331959247589,1.8124107122421265,-9.725247383117676,1.373291015625,1.007080078125,-0.152587890625
9.9299999,-0.27054479718208313,1.8076223134994507,-9.708487510681152,0.42724609375,1.220703125,-0.3662109375
9.9499999,-0.26575639843940735,1.800439715385437,-9.701305389404297,-0.42724609375,1.0986328125,0.457763671875
9.969999900000001,-0.26575639843940735,1.8052281141281128,-9.682151794433594,-0.0762939453125,1.220703125,0.6561279296875
9.9899999,-0.26336219906806946,1.7884687185287476,-9.674968719482422,0.4730224609375,1.068115234375,1.4495849609375
10.0099999,-0.26336219906806946,1.7717092037200928,-9.672574996948242,0.48828125,0.885009765625,0.3662109375
10.0299999,-0.26096799969673157,1.742978811264038,-9.679757118225098,-0.1983642578125,0.762939453125,-0.3204345703125
10.049999900000001,-0.2585737705230713,1.7190368175506592,-9.694122314453125,-0.6103515625,0.732421875,-0.3662109375
10.069999900000001,-0.2537853717803955,1.7190368175506592,-9.708487510681152,-0.274658203125,0.9613037109375,0.1678466796875
10.0899999,-0.24899697303771973,1.7334020137786865,-9.696516990661621,-0.4730224609375,1.6632080078125,0.2899169921875
10.1099999,-0.24420857429504395,1.745373010635376,-9.684545516967773,0,0.732421875,0.3662109375
10.129999900000001,-0.24660277366638184,1.766920804977417,-9.667786598205566,1.0528564453125,0.152587890625,-0.3814697265625
10.149999900000001,-0.2561795711517334,1.7764976024627686,-9.658209800720215,0.5950927734375,0.5950927734375,-0.2593994140625
10.1699999,-0.26575639843940735,1.7693150043487549,-9.682151794433594,1.0833740234375,1.03759765625,0.8544921875
10.1899999,-0.272938996553421,1.7525556087493896,-9.6989107131958,1.8157958984375,1.129150390625,0
10.209999900000001,-0.272938996553421,1.7381904125213623,-9.720458984375,1.2054443359375,0.91552734375,-1.3275146484375
10.229999900000001,-0.26815059781074524,1.7046716213226318,-9.737217903137207,0.8544921875,0.762939453125,-0.3814697265625
10.2499999,-0.26815059781074524,1.7118542194366455,-9.732429504394531,1.6937255859375,1.495361328125,-0.5340576171875
10.2699999,-0.26575639843940735,1.7142484188079834,-9.732429504394531,1.800537109375,1.495361328125,-0.3662109375
10.2899999,-0.26336219906806946,1.723825216293335,-9.720458984375,0.9918212890625,1.312255859375,0.30517578125
10.309999900000001,-0.2585737705230713,1.723825216293335,-9.706093788146973,0.946044921875,1.556396484375,0.213623046875
10.3299999,-0.2585737705230713,1.723825216293335,-9.703699111938477,1.64794921875,1.2359619140625,-0.274658203125
10.3499999,-0.2585737705230713,1.7310078144073486,-9.706093788146973,1.0528564453125,1.220703125,-0.3204345703125
10.3699999,-0.26096799969673157,1.7142484188079834,-9.68933391571045,0.42724609375,1.9378662109375,1.129150390625
10.389999900000001,-0.26096799969673157,1.699883222579956,-9.684545516967773,0.2593994140625,0.701904296875,0.1068115234375
10.4099999,-0.2561795711517334,1.6903064250946045,-9.674968719482422,-0.0152587890625,-0.1220703125,-1.5411376953125
10.4299999,-0.24899697303771973,1.680729627609253,-9.682151794433594,-0.0762939453125,0.5035400390625,-0.48828125
10.4499999,-0.24660277366638184,1.6950948238372803,-9.706093788146973,0.4425048828125,1.312255859375,0.9613037109375
10.469999900000001,-0.24899697303771973,1.7094600200653076,-9.730035781860352,0.6103515625,1.8768310546875,1.1749267578125
10.4899999,-0.2561795711517334,1.6974890232086182,-9.739612579345703,-0.1678466796875,1.7242431640625,0.640869140625
10.5099999,-0.26096799969673157,1.6927006244659424,-9.732429504394531,-0.48828125,1.1749267578125,-0.274658203125
10.5299999,-0.26096799969673157,1.6711528301239014,-9.708487510681152,-0.0457763671875,1.3885498046875,0.274658203125
10.549999900000001,-0.2537853717803955,1.678335428237915,-9.694122314453125,0.1678466796875,1.0223388671875,0.4119873046875
10.569999900000001,-0.24899697303771973,1.6927006244659424,-9.696516990661621,0.6866455078125,0.701904296875,0.152587890625
10.5899999,-0.24660277366638184,1.699883222579956,-9.710882186889648,0.213623046875,1.708984375,0.54931640625
10.6099999,-0.24181437492370605,1.702277421951294,-9.715670585632324,0.0762939453125,2.3651123046875,0.8697509765625
10.629999900000001,-0.23702596127986908,1.6831238269805908,-9.720458984375,-0.2288818359375,1.2969970703125,0.518798828125
10.649999900000001,-0.2298433631658554,1.6639702320098877,-9.701305389404297,-0.18310546875,0.91552734375,-1.0986328125
10.6699999,-0.21787235140800476,1.6496049165725708,-9.682151794433594,1.434326171875,-0.1678466796875,-2.5177001953125
10.6899999,-0.22026655077934265,1.6735470294952393,-9.68694019317627,1.068115234375,0.274658203125,-1.4495849609375
10.709999900000001,-0.2298433631658554,1.7046716213226318,-9.703699111938477,0.4425048828125,1.1749267578125,0.7781982421875
10.729999900000001,-0.23702596127986908,1.7166426181793213,-9.715670585632324,0.4119873046875,1.3275146484375,0.7476806640625
10.7499999,-0.24420857429504395,1.7070658206939697,-9.713275909423828,0.06103515625,0.79345703125,-0.1678466796875
10.7699999,-0.24660277366638184,1.699883222579956,-9.706093788146973,-0.6256103515625,0.3509521484375,-0.30517578125
10.7899999,-0.24899697303771973,1.6927006244659424,-9.703699111938477,-0.2593994140625,0.48828125,0.8392333984375
10.809999900000001,-0.24899697303771973,1.6855180263519287,-9.701305389404297,0.1373291015625,1.5106201171875,1.28173828125
10.8299999,-0.2513911724090576,1.6831238269805908,-9.713275909423828,0.274658203125,0.732421875,-0.06103515625
10.8499999,-0.2513911724090576,1.6711528301239014,-9.725247383117676,0.518798828125,0.701904296875,-0.335693359375
10.8699999,-0.2513911724090576,1.6543933153152466,-9.72285270690918,0.8087158203125,1.312255859375,0.518798828125
10.889999900000001,-0.2513911724090576,1.656787633895874,-9.737217903137207,0.0152587890625,1.03759765625,0.4730224609375
10.9099999,-0.2513911724090576,1.6496049165725708,-9.725247383117676,-0.18310546875,1.190185546875,0.2593994140625
10.9299999,-0.24899697303771973,1.656787633895874,-9.718064308166504,0.0457763671875,1.251220703125,0.3814697265625
10.9499999,-0.24660277366638184,1.6639702320098877,-9.710882186889648,0.1068115234375,0.8544921875,0.8087158203125
10.969999900000001,-0.23702596127986908,1.656787633895874,-9.701305389404297,0.18310546875,1.2359619140625,0.9307861328125
10.9899999,-0.2298433631658554,1.659181833267212,-9.68933391571045,-0.030517578125,1.15966796875,-0.2899169921875
11.0099999,-0.21547815203666687,1.6519991159439087,-9.691728591918945,-0.1220703125,0.091552734375,-0.5340576171875
11.0299999,-0.21308395266532898,1.659181833267212,-9.68933391571045,0.6256103515625,0.457763671875,0.3204345703125
11.049999900000001,-0.21787235140800476,1.678335428237915,-9.6989107131958,0.213623046875,1.129150390625,0.1678466796875
11.069999900000001,-0.22505496442317963,1.6927006244659424,-9.713275909423828,0.30517578125,0.9307861328125,0.640869140625
11.0899999,-0.2322375625371933,1.680729627609253,-9.72285270690918,0.3814697265625,0.762939453125,0.9002685546875
11.1099999,-0.2346317619085312,1.6735470294952393,-9.72285270690918,-0.091552734375,0.8697509765625,0.0762939453125
11.129999900000001,-0.2346317619085312,1.6352397203445435,-9.730035781860352,0.6561279296875,0.79345703125,-0.091552734375
11.149999900000001,-0.23702596127986908,1.6160861253738403,-9.720458984375,1.007080078125,1.0833740234375,-0.396728515625
11.1699999,-0.24181437492370605,1.5969325304031372,-9.72285270690918,0.8087158203125,0.5645751953125,-0.762939453125
11.1899999,-0.24420857429504395,1.599326729774475,-9.720458984375,0.7781982421875,0.6103515625,-0.9918212890625
11.209999900000001,-0.24420857429504395,1.6160861253738403,-9.720458984375,0.4730224609375,1.007080078125,-0.8544921875
11.229999900000001,-0.24181437492370605,1.6424223184585571,-9.715670585632324,-0.4119873046875,1.373291015625,0.1983642578125
11.2499999,-0.23702596127986908,1.656787633895874,-9.706093788146973,-0.1220703125,0.9613037109375,0.701904296875
11.2699999,-0.23942017555236816,1.6711528301239014,-9.701305389404297,0.2288818359375,0.396728515625,-0.06103515625
11.2899999,-0.24181437492370605,1.6543933153152466,-9.713275909423828,0.2899169921875,0.2593994140625,0.0152587890625
11.309999900000001,-0.23942017555236816,1.6376339197158813,-9.734824180603027,-0.5340576171875,1.220703125,0.48828125
11.3299999,-0.23702596127986908,1.6304513216018677,-9.75397777557373,-1.2359619140625,1.8768310546875,0.30517578125
11.3499999,-0.2298433631658554,1.6304513216018677,-9.749189376831055,-1.251220703125,1.495361328125,0.3662109375
11.3699999,-0.22505496442317963,1.6424223184585571,-9.718064308166504,-0.1220703125,1.0528564453125,0.6866455078125
11.389999900000001,-0.22744916379451752,1.6639702320098877,-9.68694019317627,0.0457763671875,0.4425048828125,0.0152587890625
11.4099999,-0.2298433631658554,1.6735470294952393,-9.66299819946289,0.244140625,0.518798828125,0.2288818359375
11.4299999,-0.2346317619085312,1.678335428237915,-9.677363395690918,0.030517578125,0.3509521484375,0.4730224609375
11.4499999,-0.2346317619085312,1.6687586307525635,-9.701305389404297,-0.030517578125,0.823974609375,0.732421875
11.469999900000001,-0.2298433631658554,1.6519991159439087,-9.72285270690918,0.0152587890625,1.2359619140625,0.274658203125
11.4899999,-0.22744916379451752,1.6328455209732056,-9.732429504394531,0.2288818359375,0.79345703125,-0.091552734375
11.5099999,-0.2298433631658554,1.6328455209732056,-9.725247383117676,-0.152587890625,0.396728515625,-0.0762939453125
11.5299999,-0.2346317619085312,1.6328455209732056,-9.706093788146973,-0.274658203125,0.457763671875,0.457763671875
11.549999900000001,-0.23942017555236816,1.6424223184585571,-9.696516990661621,-0.3509521484375,0.3509521484375,0.5340576171875
11.569999900000001,-0.23942017555236816,1.6496049165725708,-9.694122314453125,-0.1220703125,0.335693359375,0.0762939453125
11.5899999,-0.23942017555236816,1.6424223184585571,-9.6989107131958,-0.152587890625,0.640869140625,0.274658203125
11.6099999,-0.23942017555236816,1.6280571222305298,-9.715670585632324,-0.54931640625,0.18310546875,0.1983642578125
11.629999900000001,-0.24660277366638184,1.6184803247451782,-9.72285270690918,-1.46484375,0.335693359375,-0.7476806640625
11.649999900000001,-0.2537853717803955,1.6089035272598267,-9.739612579345703,-1.220703125,0.1220703125,-0.5035400390625
11.6699999,-0.26096799969673157,1.6065093278884888,-9.739612579345703,-1.0833740234375,0.0457763671875,-0.5340576171875
11.6899999,-0.26336219906806946,1.6304513216018677,-9.730035781860352,-1.8463134765625,0.1983642578125,-1.1444091796875
11.709999900000001,-0.26336219906806946,1.6543933153152466,-9.718064308166504,-1.8463134765625,0.1220703125,-0.4425048828125
11.729999900000001,-0.26096799969673157,1.6759412288665771,-9.703699111938477,-1.1444091796875,-0.0152587890625,0.2899169921875
11.7499999,-0.26096799969673157,1.7142484188079834,-9.6989107131958,-1.0833740234375,0.1373291015625,0.18310546875
11.7699999,-0.26336219906806946,1.7142484188079834,-9.691728591918945,-0.7781982421875,0.732421875,1.129150390625
11.7899999,-0.2753331959247589,1.7286136150360107,-9.682151794433594,-1.3885498046875,0.152587890625,0.6103515625
11.809999900000001,-0.2944868206977844,1.723825216293335,-9.667786598205566,-1.64794921875,-0.732421875,0.579833984375
11.8299999,-0.31603461503982544,1.745373010635376,-9.627084732055664,-1.2359619140625,-0.9918212890625,1.4190673828125
11.8499999,-0.3423708379268646,1.8411411046981812,-9.583989143371582,3.35693359375,-1.7547607421875,0.946044921875
11.8699999,-0.35673606395721436,2.008735179901123,-9.567230224609375,4.8065185546875,-3.84521484375,3.9825439453125
11.889999900000001,-0.36152446269989014,2.1978771686553955,-9.531316757202148,2.838134765625,-2.471923828125,9.796142578125
11.9099999,-0.3423708379268646,2.3989901542663574,-9.5408935546875,1.9378662109375,-3.2958984375,10.6048583984375
11.9299999,-0.31124621629714966,2.5713725090026855,-9.526528358459473,5.2642822265625,-3.570556640625,12.02392578125
11.9499999,-0.26575639843940735,2.786850690841675,-9.557653427124023,8.5296630859375,-5.5999755859375,15.533447265625
11.969999900000001,-0.22266076505184174,3.0382418632507324,-9.593565940856934,11.7034912109375,-4.8065185546875,23.3001708984375
11.9899999,-0.16759411990642548,3.339911460876465,-9.677363395690918,11.474609375,-5.279541015625,31.402587890625
12.0099999,-0.07900865375995636,3.5721490383148193,-9.758766174316406,11.016845703125,-4.791259765625,38.116455078125
12.0299999,0.06464344263076782,3.6966474056243896,-9.825803756713867,15.777587890625,-5.218505859375,43.2891845703125
12.049999900000001,0.27054479718208313,3.663128614425659,-9.828198432922363,19.95849609375,-5.523681640625,48.15673828125
12.069999900000001,0.5578489899635315,3.507505416870117,-9.830592155456543,23.3001708984375,-8.819580078125,53.955078125
12.0899999,0.933738648891449,3.272873640060425,-9.93593692779541,29.9224853515625,-13.458251953125,58.807373046875
12.1099999,1.357512354850769,2.964021682739258,-9.995792388916016,22.3388671875,-7.4005126953125,65.3839111328125
12.129999900000001,1.742978811264038,2.580949544906616,-10.041281700134277,1.5411376953125,-4.21142578125,70.9381103515625
12.149999900000001,1.968033790588379,1.987187385559082,-9.959878921508789,-4.39453125,-10.9405517578125,75.439453125
12.1699999,1.742978811264038,0.33518823981285095,-9.825803756713867,33.50830078125,-20.660400390625,60.638427734375
12.1899999,1.3670891523361206,-0.646434485912323,-9.971850395202637,16.17431640625,-13.9923095703125,60.760498046875
12.209999900000001,0.8882488012313843,-1.525106430053711,-10.170568466186523,-23.4375,-8.1787109375,57.5103759765625
12.229999900000001,0.31124621629714966,-2.5522189140319824,-10.225635528564453,-23.712158203125,-4.7760009765625,50.9033203125
12.2499999,-0.33039984107017517,-3.713406801223755,-10.335768699645996,16.4337158203125,-17.8070068359375,30.914306640625
12.2699999,-1.0558429956436157,-4.747702121734619,-10.697293281555176,27.2979736328125,-23.4527587890625,-7.01904296875
12.289999900000002,-1.778891921043396,-5.559336185455322,-11.441889762878418,-24.1851806640625,-4.3792724609375,-28.2135009765625
12.309999900000001,-2.4420857429504395,-5.8442463874816895,-12.11705493927002,-66.40625,33.7371826171875,-37.8265380859375
12.3299999,-2.9448680877685547,-5.738901615142822,-12.33013916015625,-49.102783203125,46.2646484375,-50.9796142578125
12.3499999,-3.2776620388031006,-5.135562419891357,-12.035652160644531,-29.8309326171875,23.7884521484375,-79.77294921875
12.3699999,-3.4524388313293457,-4.225766181945801,-11.166556358337402,-31.219482421875,25.5584716796875,-96.6796875
12.389999900000001,-3.514688014984131,-2.9927520751953125,-10.38604736328125,-39.0167236328125,37.29248046875,-95.8709716796875
12.4099999,-3.507505416870117,-1.4293384552001953,-9.765948295593262,-29.144287109375,42.1600341796875,-100.2960205078125
12.4299999,-3.450044631958008,-0.13407529890537262,-9.32302188873291,-15.4876708984375,40.1763916015625,-97.2747802734375
12.4499999,-3.383007049560547,0.8140285611152649,-8.882488250732422,-7.415771484375,41.595458984375,-99.4415283203125
12.469999900000001,-3.335123062133789,1.3623007535934448,-8.619126319885254,-1.1444091796875,35.9039306640625,-114.013671875
12.4899999,-3.361459255218506,1.7597382068634033,-8.348581314086914,11.9171142578125,33.782958984375,-122.4365234375
12.5099999,-3.4308910369873047,2.1140801906585693,-8.26478385925293,32.867431640625,29.0374755859375,-116.8670654296875
12.5299999,-3.509899616241455,2.4660277366638184,-8.307879447937012,42.938232421875,24.5819091796875,-108.2305908203125
12.549999900000001,-3.557783842086792,2.6647465229034424,-8.422801971435547,22.2015380859375,27.1148681640625,-111.541748046875
12.569999900000001,-3.5745432376861572,2.557007312774658,-8.518569946289062,3.6773681640625,29.0069580078125,-116.1346435546875
12.5899999,-3.622427225112915,2.470816135406494,-8.525752067565918,7.2174072265625,24.6734619140625,-124.1607666015625
12.6099999,-3.7229835987091064,2.4468741416931152,-8.482656478881836,22.4151611328125,17.7154541015625,-123.9166259765625
12.629999900000001,-3.825934410095215,2.5115175247192383,-8.432378768920898,24.322509765625,14.312744140625,-114.8834228515625
12.649999900000001,-3.907337188720703,2.564189910888672,-8.530540466308594,6.4697265625,13.2904052734375,-112.8692626953125
12.6699999,-3.9480385780334473,2.5665841102600098,-8.695740699768066,-10.25390625,13.6871337890625,-119.2474365234375
12.6899999,-3.93367338180542,2.4684219360351562,-8.865729331970215,-3.4027099609375,13.702392578125,-118.9422607421875
12.709999900000001,-3.9193081855773926,2.456450939178467,-9.004592895507812,0.091552734375,8.819580078125,-115.4937744140625
12.729999900000001,-3.840299606323242,2.5665841102600098,-9.081207275390625,-2.4261474609375,4.21142578125,-113.2659912109375
12.7499999,-3.6942532062530518,2.894589900970459,-9.14585018157959,-10.43701171875,1.9683837890625,-109.2529296875
12.7699999,-3.397372245788574,3.40216064453125,-9.100360870361328,-9.063720703125,1.251220703125,-99.8077392578125
12.789999900000002,-2.9927520751953125,4.050989151000977,-8.96389102935791,7.049560546875,-4.21142578125,-80.7647705078125
12.809999900000001,-2.4827871322631836,4.841075897216797,-8.853757858276367,9.307861328125,-18.035888671875,-68.66455078125
12.8299999,-1.9369091987609863,5.60722017288208,-8.793902397155762,0.06103515625,-22.0184326171875,-50.811767578125
12.8499999,-1.3910311460494995,6.4380083084106445,-8.856152534484863,-15.7012939453125,-21.05712890625,-30.181884765625
12.8699999,-0.9145850539207458,7.105990409851074,-8.937555313110352,-15.4266357421875,-23.834228515625,-3.35693359375
12.889999900000001,-0.5363011956214905,7.465120792388916,-8.956708908081055,-1.7242431640625,-35.15625,21.728515625
12.9099999,-0.27054479718208313,7.548917770385742,-8.939949035644531,9.09423828125,-44.3572998046875,35.5377197265625
12.9299999,-0.12210428714752197,7.359776020050049,-8.990227699279785,8.3160400390625,-47.91259765625,51.513671875
12.9499999,-0.0694318488240242,6.993463039398193,-9.186552047729492,4.2724609375,-47.943115234375,78.1707763671875
12.969999900000001,-0.11252748221158981,6.519411087036133,-9.509769439697266,9.5367431640625,-49.774169921875,95.916748046875
12.9899999,-0.19153612852096558,5.758055210113525,-9.9000244140625,30.94482421875,-51.08642578125,108.21533203125
13.0099999,-0.2944868206977844,5.015852451324463,-10.376470565795898,39.0167236328125,-48.736572265625,110.0311279296875
13.0299999,-0.35913026332855225,4.094084739685059,-10.84094524383545,27.496337890625,-39.8101806640625,125.335693359375
13.049999900000001,-0.38067805767059326,3.4165258407592773,-11.171344757080078,5.615234375,-28.5797119140625,133.453369140625
13.069999900000001,-0.33997663855552673,2.8155810832977295,-11.202469825744629,-1.312255859375,-23.956298828125,134.063720703125
13.0899999,-0.2346317619085312,2.4396915435791016,-10.805032730102539,0.762939453125,-24.71923828125,134.6588134765625
13.1099999,-0.08379705995321274,2.22660756111145,-10.091560363769531,-12.14599609375,-30.1055908203125,137.420654296875
13.129999900000001,0.11013327538967133,2.0207061767578125,-9.217676162719727,-27.9998779296875,-36.9720458984375,145.4010009765625
13.149999900000001,0.3256114423274994,1.9297266006469727,-8.676587104797363,-17.791748046875,-49.74365234375,138.7786865234375
13.1699999,0.47644615173339844,1.9919757843017578,-8.698134422302246,15.93017578125,-53.1463623046875,126.556396484375
13.1899999,0.5722141861915588,2.0254945755004883,-9.349357604980469,31.5704345703125,-37.5518798828125,140.3045654296875
13.209999900000001,0.569819986820221,1.9847931861877441,-10.362105369567871,10.6201171875,-16.9830322265625,155.181884765625
13.229999900000001,0.5315127968788147,1.7286136150360107,-11.293449401855469,8.0413818359375,-4.8065185546875,143.9208984375
13.2499999,0.4836287498474121,1.1994950771331787,-11.81299114227295,43.64013671875,-3.204345703125,125.5340576171875
13.2699999,0.4884171485900879,0.43335050344467163,-12.023680686950684,74.5849609375,-3.11279296875,123.3978271484375
13.289999900000002,0.5434837937355042,-0.14604631066322327,-12.052411079406738,63.5223388671875,6.16455078125,116.4398193359375
13.309999900000001,0.6727706789970398,-0.43095630407333374,-12.033257484436035,33.8134765625,22.857666015625,102.4932861328125
13.3299999,0.871489405632019,-0.569819986820221,-11.84650993347168,32.2113037109375,34.85107421875,106.9183349609375
13.3499999,1.1300631761550903,-0.8403648138046265,-11.559206008911133,44.49462890625,33.355712890625,115.8447265625
13.3699999,1.3072341680526733,-1.2234370708465576,-11.125855445861816,11.7034912109375,30.4718017578125,95.7489013671875
13.389999900000001,1.2761094570159912,-1.9967641830444336,-10.433931350708008,-14.6942138671875,39.12353515625,75.1190185546875
13.4099999,0.9696516990661621,-3.023876667022705,-9.624691009521484,33.6761474609375,28.3966064453125,68.78662109375
13.4299999,0.3663128614425659,-4.0533833503723145,-9.160215377807617,92.6513671875,-8.6212158203125,46.844482421875
13.4499999,-0.43335050344467163,-4.927267074584961,-9.311050415039062,54.0924072265625,-19.622802734375,15.3961181640625
13.469999900000001,-1.2856862545013428,-5.4228668212890625,-9.883264541625977,-49.2401123046875,23.8494873046875,-0.7476806640625
13.4899999,-2.123656988143921,-5.60722017288208,-10.467450141906738,-92.041015625,45.440673828125,-2.2735595703125
13.5099999,-2.8419175148010254,-5.4013190269470215,-10.45547866821289,-9.033203125,19.3023681640625,-23.6358642578125
13.5299999,-3.49314022064209,-4.786009311676025,-10.067618370056152,71.258544921875,-23.0712890625,-63.812255859375
13.549999900000001,-4.000710964202881,-3.821146011352539,-9.911994934082031,60.028076171875,-19.744873046875,-79.2999267578125
13.569999900000001,-4.367023944854736,-2.9281086921691895,-10.0580415725708,-18.341064453125,20.4925537109375,-53.436279296875
13.5899999,-4.649539470672607,-1.7525556087493896,-10.319009780883789,-65.155029296875,41.1529541015625,-66.2384033203125
13.6099999,-4.771644115447998,-1.115697979927063,-10.043676376342773,-17.63916015625,24.3682861328125,-85.63232421875
13.629999900000001,-4.788403511047363,-0.7541735172271729,-9.445125579833984,32.623291015625,1.4495849609375,-96.0540771484375
13.649999900000001,-4.683058738708496,-0.4644751250743866,-8.78193187713623,7.843017578125,-0.244140625,-108.7799072265625
13.6699999,-4.484339714050293,-0.21787235140800476,-8.38449478149414,-32.4249267578125,13.885498046875,-111.0382080078125
13.6899999,-4.065354347229004,1.2617442607879639,-8.250418663024902,-18.402099609375,5.2490234375,-116.4093017578125
13.709999900000001,-3.9624037742614746,1.900996208190918,-8.283937454223633,-20.3399658203125,7.2174072265625,-101.4404296875
13.729999900000001,-3.9839515686035156,2.126051187515259,-8.406042098999023,-44.647216796875,13.4124755859375,-110.2447509765625
13.7499999,-4.151545524597168,2.011129379272461,-8.604761123657227,-47.393798828125,14.190673828125,-133.1329345703125
13.7699999,-4.424484729766846,1.8195933103561401,-8.78432559967041,-18.8140869140625,16.143798828125,-138.458251953125
13.789999900000002,-4.721365928649902,1.6759412288665771,-8.966285705566406,-1.1138916015625,18.00537109375,-123.9471435546875
13.809999900000001,-4.9583916664123535,1.6639702320098877,-9.016563415527344,-5.6610107421875,23.4832763671875,-126.4801025390625
13.8299999,-5.109226226806641,1.8818424940109253,-9.117119789123535,-8.60595703125,18.646240234375,-149.658203125
13.8499999,-5.1810526847839355,2.3295583724975586,-9.181763648986816,10.8642578125,17.02880859375,-150.2838134765625
13.8699999,-5.178658485412598,2.9759926795959473,-9.349357604980469,32.470703125,21.8353271484375,-123.1689453125
13.889999900000001,-5.006275653839111,3.5266590118408203,-9.48343276977539,23.529052734375,26.55029296875,-106.9793701171875
13.9099999,-4.714183330535889,3.751713991165161,-9.66539192199707,-3.1585693359375,22.216796875,-115.4327392578125
13.9299999,-4.333505153656006,3.6343982219696045,-9.670180320739746,-4.8370361328125,22.3846435546875,-121.124267578125
13.9499999,-3.9887399673461914,3.248931646347046,-9.624691009521484,1.251220703125,22.5372314453125,-108.0780029296875
13.969999900000001,-3.758896589279175,3.023876667022705,-9.433155059814453,-4.974365234375,19.8974609375,-107.7423095703125
13.9899999,-3.5386300086975098,2.6815059185028076,-9.232041358947754,-10.1318359375,11.8255615234375,-109.92431640625
14.0099999,-3.3877954483032227,2.5091233253479004,-9.006986618041992,-18.6920166015625,4.69970703125,-110.992431640625
14.0299999,-3.2130186557769775,2.516305923461914,-8.968679428100586,-21.4691162109375,0,-109.6954345703125
14.049999900000001,-3.0526070594787598,2.5067291259765625,-8.937555313110352,-7.2784423828125,1.922607421875,-92.1630859375
14.069999900000001,-2.9161376953125,2.920926094055176,-8.995016098022461,-7.537841796875,-3.4332275390625,-98.8616943359375
14.0899999,-2.7485435009002686,3.77565598487854,-9.119514465332031,-11.7950439453125,-14.984130859375,-99.3499755859375
14.1099999,-2.5330653190612793,4.807557106018066,-9.157821655273438,-7.537841796875,-13.275146484375,-57.830810546875
14.129999900000001,-2.3032219409942627,6.138733386993408,-9.337387084960938,3.0517578125,-13.7786865234375,-25.726318359375
14.149999900000001,-2.0614075660705566,7.060500621795654,-9.406818389892578,19.9432373046875,-16.510009765625,-7.049560546875
14.1699999,-1.8291701078414917,7.393294811248779,-9.370905876159668,24.9786376953125,-17.1661376953125,18.6614990234375
14.1899999,-1.625662922859192,7.144298076629639,-9.251194953918457,5.5694580078125,-26.275634765625,44.8455810546875
14.209999900000001,-1.4460978507995605,6.375759124755859,-9.074024200439453,-8.60595703125,-32.3486328125,63.4613037109375
14.229999900000001,-1.292868971824646,5.489904403686523,-8.916007041931152,1.8463134765625,-37.322998046875,66.1163330078125
14.2499999,-1.1827356815338135,4.563348293304443,-8.860940933227539,28.3203125,-42.388916015625,73.73046875
14.2699999,-1.1276689767837524,3.9240965843200684,-8.980650901794434,25.3448486328125,-49.0570068359375,92.4072265625
14.289999900000002,-1.1300631761550903,3.6176388263702393,-9.308655738830566,1.8768310546875,-51.8646240234375,108.001708984375
14.309999900000001,-1.139639973640442,3.426102638244629,-9.720458984375,0.6866455078125,-43.4112548828125,122.6959228515625
14.3299999,-1.1204863786697388,3.339911460876465,-10.163386344909668,13.7786865234375,-41.717529296875,128.875732421875
14.3499999,-1.0462661981582642,3.2154128551483154,-10.400412559509277,28.9764404296875,-38.5284423828125,134.429931640625
14.3699999,-0.8906430602073669,3.0550012588500977,-10.517727851867676,35.247802734375,-37.7044677734375,145.9808349609375
14.389999900000001,-0.6584054827690125,2.9281086921691895,-10.539276123046875,32.7911376953125,-32.9437255859375,154.1748046875
14.4099999,-0.35673606395721436,2.853888511657715,-10.45547866821289,15.56396484375,-22.918701171875,160.5987548828125
14.4299999,-0.011971008032560349,2.8155810832977295,-10.280701637268066,-5.615234375,-18.6767578125,169.98291015625
14.4499999,0.3519476354122162,2.537853717803955,-10.034099578857422,0.8087158203125,-21.331787109375,182.2509765625
14.469999900000001,0.706289529800415,1.9321208000183105,-9.959878921508789,39.9627685546875,-20.7366943359375,181.70166015625
14.4899999,1.0031704902648926,1.3239935636520386,-10.070012092590332,72.3419189453125,-2.0904541015625,158.14208984375
14.5099999,1.2066776752471924,0.730231523513794,-10.381258964538574,54.4586181640625,17.3797607421875,159.1033935546875
14.5299999,1.3623007535934448,-0.10534487664699554,-10.63743782043457,18.7530517578125,20.965576171875,190.4449462890625
14.549999900000001,1.4676456451416016,-0.9361328482627869,-10.65898609161377,52.001953125,13.458251953125,166.412353515625
14.569999900000001,1.5298948287963867,-1.5514427423477173,-10.51054573059082,110.748291015625,9.33837890625,99.8077392578125
14.5899999,1.5658079385757446,-1.9177556037902832,-10.647014617919922,97.686767578125,6.8511962890625,94.17724609375
14.6099999,1.455674648284912,-1.6280571222305298,-10.910377502441406,33.2794189453125,32.073974609375,121.7498779296875
14.629999900000001,1.2282254695892334,-1.2186486721038818,-11.504138946533203,0.8392333984375,47.1038818359375,121.002197265625
14.649999900000001,0.9169792532920837,-1.0606313943862915,-11.93509578704834,15.0146484375,49.0875244140625,96.893310546875
14.6699999,0.6224924325942993,-1.3503297567367554,-12.107478141784668,18.6920166015625,48.33984375,78.2623291015625
14.6899999,0.3974374830722809,-1.8339585065841675,-11.796232223510742,7.8277587890625,50.445556640625,75.0274658203125
14.709999900000001,0.24899697303771973,-2.2912509441375732,-11.190498352050781,4.3487548828125,45.3338623046875,62.957763671875
14.729999900000001,0.13407529890537262,-2.846705913543701,-10.35252857208252,18.00537109375,31.9671630859375,48.0804443359375
14.7499999,-0.021547814831137657,-3.1316158771514893,-9.706093788146973,15.289306640625,17.181396484375,28.38134765625
14.7699999,-0.24420857429504395,-3.378218650817871,-9.363722801208496,-15.533447265625,14.6484375,24.383544921875
14.789999900000002,-0.5554547905921936,-3.4596214294433594,-9.131484985351562,-35.888671875,28.3050537109375,24.4903564453125
14.809999900000001,-0.9457096457481384,-3.6822822093963623,-9.023746490478516,-9.033203125,15.13671875,10.0250244140625
14.8299999,-1.41257905960083,-3.885789394378662,-9.10993766784668,7.080078125,-12.02392578125,-20.4925537109375
14.8499999,-1.8698714971542358,-4.213795185089111,-9.38048267364502,-22.5372314453125,-9.0789794921875,-37.9180908203125
14.8699999,-2.319981336593628,-4.146757125854492,-9.718064308166504,-75.86669921875,25.57373046875,-51.910400390625
14.889999900000001,-2.7078421115875244,-3.7900211811065674,-9.952696800231934,-85.6170654296875,30.975341796875,-66.680908203125
14.9099999,-3.0885202884674072,-3.2609026432037354,-9.586383819580078,-22.8424072265625,18.2342529296875,-71.4263916015625
14.9299999,-3.4763808250427246,-2.676717519760132,-9.002198219299316,14.8773193359375,-8.48388671875,-90.33203125
14.9499999,-3.8546648025512695,-1.900996208190918,-8.710105895996094,-10.7269287109375,-20.751953125,-111.8011474609375
14.969999900000001,-4.173093795776367,-1.3479355573654175,-8.777143478393555,-46.356201171875,1.0986328125,-106.14013671875
14.9899999,-4.393360137939453,-0.7326257228851318,-9.217676162719727,-64.0106201171875,20.0653076171875,-103.7139892578125
15.0099999,-4.5154643058776855,-0.4405331015586853,-9.476250648498535,-61.920166015625,27.4658203125,-119.2626953125
15.0299999,-4.714183330535889,-0.026336219161748886,-9.493009567260742,-39.12353515625,23.01025390625,-147.369384765625
15.049999900000001,-4.948814868927002,0.9816226959228516,-9.454702377319336,-1.8768310546875,14.190673828125,-168.8385009765625
15.069999900000001,-5.212177276611328,1.9776105880737305,-9.524134635925293,21.42333984375,22.52197265625,-124.4964599609375
15.0899999,-5.427655220031738,3.1052796840667725,-9.68694019317627,-6.591796875,37.5213623046875,-109.130859375
15.1099999,-5.540182590484619,3.2369606494903564,-9.655815124511719,-40.771484375,49.7589111328125,-120.5596923828125
15.129999900000001,-5.640739440917969,2.80361008644104,-9.421183586120605,-23.7274169921875,41.656494140625,-143.3563232421875
15.149999900000001,-5.760449409484863,2.6192567348480225,-9.05487060546875,32.6995849609375,29.4036865234375,-168.182373046875
15.1699999,-5.810727596282959,2.7293899059295654,-8.889671325683594,62.6068115234375,28.228759765625,-142.364501953125
15.1899999,-5.638344764709473,3.292027235031128,-8.846575736999512,38.543701171875,39.9169921875,-115.8447265625
15.209999900000001,-4.661510944366455,3.7924153804779053,-8.556877136230469,-12.4053955078125,29.6783447265625,-137.4053955078125
15.229999900000001,-4.1180267333984375,3.8139634132385254,-8.226476669311523,23.9715576171875,14.3890380859375,-138.336181640625
15.2499999,-3.706224203109741,3.936067581176758,-7.9631147384643555,22.918701171875,8.6517333984375,-120.697021484375
15.2699999,-3.3494882583618164,4.144362926483154,-7.936778545379639,-17.3492431640625,5.035400390625,-109.80224609375
15.289999900000002,-3.004723072052002,4.194641590118408,-8.159439086914062,-36.346435546875,-5.1422119140625,-108.0322265625
15.309999900000001,-2.674323320388794,4.132391929626465,-8.432378768920898,-27.7252197265625,-1.1749267578125,-106.5673828125
15.3299999,-2.387019157409668,4.125209331512451,-8.705317497253418,-15.56396484375,-3.2196044921875,-101.9287109375
15.3499999,-2.2002713680267334,4.4939165115356445,-8.887276649475098,-3.875732421875,-11.0015869140625,-93.7957763671875
15.3699999,-2.0614075660705566,5.262455463409424,-9.050082206726074,-1.007080078125,-23.9105224609375,-77.0111083984375
15.389999900000001,-1.9536685943603516,6.313509941101074,-9.241618156433105,-5.2032470703125,-26.9317626953125,-45.7611083984375
15.4099999,-1.843535304069519,7.175422668457031,-9.457097053527832,-3.35693359375,-17.333984375,-12.2528076171875
15.4299999,-1.7262194156646729,7.570465564727783,-9.725247383117676,7.4462890625,-19.5465087890625,8.0413818359375
15.4499999,-1.5921441316604614,7.364564418792725,-9.773131370544434,29.1748046875,-19.866943359375,17.6849365234375
15.469999900000001,-1.4293384552001953,6.828263282775879,-9.763554573059082,39.825439453125,-25.20751953125,30.4718017578125
15.4899999,-1.256955862045288,6.2201361656188965,-9.708487510681152,27.1759033203125,-30.4107666015625,49.1180419921875
15.5099999,-1.094150185585022,5.762843608856201,-9.643844604492188,6.2255859375,-28.8848876953125,69.0155029296875
15.5299999,-0.9792284965515137,5.427655220031738,-9.591172218322754,-5.4168701171875,-29.0374755859375,84.5947265625
15.549999900000001,-0.8858546018600464,5.0254292488098145,-9.48343276977539,15.7470703125,-33.782958984375,101.9744873046875
15.569999900000001,-0.8259995579719543,4.616020679473877,-9.385271072387695,43.304443359375,-37.17041015625,111.2518310546875
15.5899999,-0.7805097699165344,4.299986362457275,-9.361329078674316,40.771484375,-37.750244140625,114.044189453125
15.6099999,-0.7350199222564697,3.9863457679748535,-9.581595420837402,19.775390625,-36.9720458984375,134.3231201171875
15.629999900000001,-0.6727706789970398,3.758896589279175,-9.921571731567383,9.246826171875,-29.1748046875,152.6336669921875
15.649999900000001,-0.5626373887062073,3.754108190536499,-10.290278434753418,9.5367431640625,-18.4478759765625,157.379150390625
15.6699999,-0.3663128614425659,3.7397429943084717,-10.51054573059082,15.838623046875,-12.9241943359375,174.5452880859375
15.6899999,-0.06703764945268631,3.706224203109741,-10.493785858154297,9.5367431640625,-10.2081298828125,199.5391845703125
15.709999900000001,0.3016694188117981,3.4404678344726562,-10.405200958251953,-17.4407958984375,-14.34326171875,206.4056396484375
15.729999900000001,0.7158663272857666,2.7006595134735107,-10.302249908447266,-17.0745849609375,-13.3514404296875,196.8994140625
15.7499999,1.1300631761550903,1.4628572463989258,-10.402806282043457,7.7972412109375,-9.5977783203125,187.7593994140625
15.7699999,1.5442601442337036,-0.0933738648891449,-10.63743782043457,10.5438232421875,-1.922607421875,176.4068603515625
15.789999900000002,1.8986018896102905,-1.2856862545013428,-10.96544361114502,-8.23974609375,5.7373046875,143.37158203125
15.809999900000001,2.1140801906585693,-2.1045033931732178,-11.094730377197266,-18.8751220703125,15.8233642578125,123.9166259765625
15.8299999,2.2577321529388428,-2.628833532333374,-11.08754825592041,3.84521484375,15.533447265625,125.2899169921875
15.8499999,2.2649147510528564,-2.626439332962036,-10.74996566772461,28.228759765625,11.4288330078125,93.4295654296875
15.869999900000002,2.22660756111145,-2.1475989818573,-10.44350814819336,25.69580078125,5.4168701171875,56.9000244140625
15.889999900000001,2.1739351749420166,-1.2880805730819702,-10.14902114868164,9.9639892578125,7.049560546875,62.8662109375
15.9099999,2.070984363555908,-0.15083470940589905,-9.828198432922363,2.5177001953125,14.5111083984375,85.3729248046875
15.9299999,1.9177556037902832,0.6440402865409851,-9.619902610778809,27.16064453125,5.0048828125,82.1990966796875
15.9499999,1.6496049165725708,0.8307880163192749,-9.488221168518066,48.1719970703125,-8.1329345703125,57.6019287109375
15.969999900000001,1.256955862045288,0.507570743560791,-9.730035781860352,17.3492431640625,-7.3699951171875,44.586181640625
15.9899999,0.7493851184844971,-0.13407529890537262,-9.919178009033203,-20.08056640625,12.054443359375,52.6885986328125
16.0099999,0.19393034279346466,-0.9361328482627869,-10.189722061157227,-2.5634765625,7.5836181640625,49.9420166015625
16.0299999,-0.38067805767059326,-1.7190368175506592,-10.18493366241455,20.660400390625,-14.3890380859375,18.4326171875
16.0499999,-0.9864110946655273,-2.387019157409668,-10.259154319763184,7.87353515625,-22.5067138671875,-1.068115234375
16.0699999,-1.577778935432434,-2.829946517944336,-10.484209060668945,-21.4691162109375,-8.1787109375,0.579833984375
16.089999900000002,-2.1787235736846924,-3.066972494125366,-10.757147789001465,-30.975341796875,16.876220703125,3.47900390625
16.109999900000002,-2.734178304672241,-3.0310592651367188,-10.953473091125488,-23.590087890625,13.4735107421875,-33.38623046875
16.1299999,-3.1866824626922607,-3.0861260890960693,-10.63743782043457,-5.0048828125,11.41357421875,-46.3714599609375
16.1499999,-3.531447410583496,-2.7700912952423096,-10.390835762023926,-18.9056396484375,-5.9814453125,-60.5010986328125
16.1699999,-3.7708675861358643,-2.4444799423217773,-10.0580415725708,-25.634765625,6.3934326171875,-66.0858154296875
16.1899999,-3.936067581176758,-1.9369091987609863,-9.981427192687988,-40.3900146484375,18.24951171875,-80.4290771484375
16.2099999,-4.0533833503723145,-1.3455413579940796,-9.914389610290527,-38.9251708984375,24.10888671875,-100.128173828125
16.2299999,-4.132391929626465,-0.8188169598579407,-9.86650562286377,-18.707275390625,21.0418701171875,-105.89599609375
16.249999900000002,-4.216189384460449,-0.3758896589279175,-9.801861763000488,-19.4854736328125,24.5208740234375,-113.28125
16.269999900000002,-4.2951979637146,-0.17238251864910126,-9.818621635437012,-45.8526611328125,36.956787109375,-134.21630859375
16.2899999,-4.477157115936279,0.19393034279346466,-9.8784761428833,-48.7060546875,51.33056640625,-164.337158203125
16.3099999,-4.730942726135254,0.8762778043746948,-9.832986831665039,-15.777587890625,59.38720703125,-179.4586181640625
16.3299999,-5.063736438751221,1.8148049116134644,-9.636661529541016,9.2926025390625,57.4188232421875,-160.736083984375
16.3499999,-5.398924827575684,2.940079689025879,-9.440337181091309,6.5460205078125,47.5616455078125,-156.5704345703125
16.3699999,-5.676652431488037,3.7421371936798096,-9.215282440185547,0.18310546875,53.40576171875,-162.2467041015625
16.3899999,-5.875370979309082,4.474762916564941,-9.093177795410156,11.9781494140625,60.6536865234375,-163.5894775390625
16.4099999,-5.932831764221191,4.946420669555664,-9.028534889221191,30.1666259765625,58.1207275390625,-145.99609375
16.429999900000002,-5.784391403198242,5.154716491699219,-8.813055992126465,33.0657958984375,56.488037109375,-122.833251953125
16.4499999,-5.43723201751709,5.0876784324646,-8.643068313598633,0.732421875,49.530029296875,-130.157470703125
16.4699999,-4.975151062011719,4.675876140594482,-8.276755332946777,-20.3094482421875,49.9114990234375,-138.5040283203125
16.4899999,-4.484339714050293,4.2544965744018555,-7.843404769897461,-6.8206787109375,47.5006103515625,-131.53076171875
16.5099999,-3.971980571746826,3.9432501792907715,-7.328651428222656,12.1917724609375,30.0140380859375,-118.621826171875
16.5299999,-3.485957622528076,3.7277719974517822,-6.936002254486084,2.3345947265625,11.260986328125,-117.9351806640625
16.5499999,-3.0526070594787598,3.936067581176758,-6.7708024978637695,-13.12255859375,3.9825439453125,-131.7596435546875
16.5699999,-2.6862943172454834,4.4508209228515625,-6.914454460144043,-5.706787109375,4.21142578125,-122.1160888671875
16.589999900000002,-2.449268341064453,5.157110691070557,-7.2113356590271,5.3863525390625,-2.105712890625,-84.991455078125
16.609999900000002,-2.298433542251587,5.916072368621826,-7.556100368499756,2.8839111328125,-12.8021240234375,-73.18115234375
16.6299999,-2.1356279850006104,6.440402507781982,-7.955932140350342,-0.579833984375,-24.3377685546875,-73.2421875
16.6499999,-1.9560627937316895,6.921637058258057,-8.35097599029541,9.918212890625,-22.52197265625,-62.713623046875
16.6699999,-1.7310078144073486,7.371747016906738,-8.772355079650879,16.4794921875,-20.050048828125,-30.8380126953125
16.6899999,-1.4987702369689941,7.9176249504089355,-9.057265281677246,6.3323974609375,-26.275634765625,-6.4697265625
16.7099999,-1.2521674633026123,8.192957878112793,-9.14585018157959,4.7607421875,-33.0352783203125,12.0391845703125
16.7299999,-0.7852981686592102,7.599195957183838,-9.119514465332031,-7.598876953125,-46.32568359375,49.6063232421875
16.749999900000002,-0.6033388376235962,6.998251438140869,-9.059659004211426,-7.26318359375,-44.3115234375,59.600830078125
16.769999900000002,-0.4644751250743866,6.447585105895996,-9.035717010498047,1.220703125,-50.2166748046875,73.91357421875
16.7899999,-0.36152446269989014,5.978321552276611,-8.995016098022461,19.256591796875,-55.7403564453125,90.2862548828125
16.8099999,-0.31603461503982544,5.784391403198242,-8.990227699279785,28.045654296875,-53.3905029296875,97.5799560546875
16.8299999,-0.2968810200691223,5.717353820800781,-9.095572471618652,19.1497802734375,-51.33056640625,112.0758056640625
16.8499999,-0.2992752194404602,5.75326681137085,-9.275136947631836,-23.92578125,-52.978515625,136.749267578125
16.8699999,-0.33039984107017517,5.748478412628174,-9.35893440246582,-55.7861328125,-50.7965087890625,152.4658203125
16.8899999,-0.33279404044151306,5.336675643920898,-9.35654067993164,-31.43310546875,-52.8564453125,158.2794189453125
16.9099999,-0.2753331959247589,4.460397720336914,-9.435548782348633,36.1175537109375,-61.676025390625,150.8941650390625
16.929999900000002,-0.14844051003456116,3.270479440689087,-9.684545516967773,64.4378662109375,-57.1746826171875,133.3465576171875
16.9499999,0.038307227194309235,2.188300371170044,-10.223240852355957,10.8642578125,-42.3736572265625,120.941162109375
16.9699999,0.21787235140800476,1.4772224426269531,-10.74996566772461,-36.3311767578125,-26.0772705078125,121.307373046875
16.9899999,0.36152446269989014,1.0630255937576294,-11.228805541992188,-15.7470703125,-27.1453857421875,125.6256103515625
17.0099999,0.4357447028160095,0.9289502501487732,-11.45146656036377,41.0919189453125,-28.106689453125,109.0087890625
17.0299999,0.4572925269603729,0.9265560507774353,-11.616666793823242,75.0274658203125,-18.1427001953125,85.2813720703125
17.0499999,0.47165772318840027,1.1755530834197998,-11.851298332214355,30.8685302734375,-5.7220458984375,83.6639404296875
17.0699999,0.45010992884635925,1.625662922859192,-11.796232223510742,-30.8685302734375,15.3350830078125,99.8077392578125
17.089999900000002,0.40462008118629456,1.9991583824157715,-11.504138946533203,-23.2391357421875,17.364501953125,107.3760986328125
17.109999900000002,0.3064578175544739,2.1068975925445557,-10.852916717529297,46.4630126953125,7.7972412109375,91.094970703125
17.1299999,0.1412578970193863,1.900996208190918,-10.290278434753418,80.9783935546875,0.48828125,72.265625
17.1499999,-0.05267243832349777,1.525106430053711,-10.02691650390625,27.9998779296875,6.2713623046875,73.089599609375
17.1699999,-0.304063618183136,1.1420341730117798,-9.95748519897461,-22.9644775390625,25.6195068359375,78.1402587890625
17.1899999,-0.5195417404174805,0.6200982332229614,-10.098742485046387,-1.1749267578125,22.674560546875,69.76318359375
17.2099999,-0.7206547260284424,0.023942016065120697,-9.995792388916016,50.4302978515625,16.7083740234375,45.928955078125
17.2299999,-0.8762778043746948,-0.6057330369949341,-9.979032516479492,52.2003173828125,12.2833251953125,23.13232421875
17.249999900000002,-1.0749965906143188,-0.8858546018600464,-9.890447616577148,8.453369140625,16.5557861328125,12.26806640625
17.269999900000002,-1.2449848651885986,-1.158793568611145,-9.959878921508789,-3.448486328125,22.6287841796875,16.8304443359375
17.2899999,-1.403002142906189,-1.213860273361206,-9.880870819091797,11.6119384765625,23.468017578125,4.0740966796875
17.3099999,-1.5418659448623657,-1.3455413579940796,-9.713275909423828,25.0244140625,21.42333984375,-23.6358642578125
17.3299999,-1.647210717201233,-1.2976573705673218,-9.545681953430176,26.0467529296875,14.16015625,-41.6107177734375
17.3499999,-1.764526605606079,-1.1180921792984009,-9.394847869873047,16.357421875,16.6168212890625,-37.139892578125
17.3699999,-1.9057846069335938,-0.7661445140838623,-9.47146224975586,1.312255859375,18.5089111328125,-35.1104736328125
17.3899999,-2.0254945755004883,-0.33279404044151306,-9.5624418258667,-5.218505859375,22.6287841796875,-50.018310546875
17.409999900000003,-2.056619167327881,0.014365210197865963,-9.610325813293457,4.08935546875,23.529052734375,-57.1441650390625
17.429999900000002,-2.0231003761291504,0.4908113479614258,-9.5624418258667,12.02392578125,19.59228515625,-59.8602294921875
17.4499999,-1.941697597503662,1.0127472877502441,-9.425971984863281,8.209228515625,16.510009765625,-59.75341796875
17.4699999,-1.843535304069519,1.5059528350830078,-9.32541561126709,-0.8544921875,15.3961181640625,-57.06787109375
17.4899999,-1.7932571172714233,1.9105730056762695,-9.308655738830566,-5.2947998046875,15.045166015625,-59.5855712890625
17.5099999,-1.7812861204147339,2.209848165512085,-9.366117477416992,-3.4637451171875,16.66259765625,-63.2476806640625
17.5299999,-1.802833914756775,2.5498247146606445,-9.399636268615723,-1.617431640625,17.4407958984375,-64.6209716796875
17.5499999,-1.8363527059555054,2.9879636764526367,-9.428366661071777,0.1678466796875,14.6942138671875,-59.87548828125
17.5699999,-1.843535304069519,3.35667085647583,-9.3828763961792,8.0108642578125,13.5955810546875,-48.492431640625
17.589999900000002,-1.802833914756775,3.5913026332855225,-9.289502143859863,7.9803466796875,13.885498046875,-45.1812744140625
17.609999900000002,-1.7166426181793213,3.490746021270752,-9.17936897277832,-0.518798828125,11.3067626953125,-46.051025390625
17.6299999,-1.5849615335464478,3.28963303565979,-8.98543930053711,-6.0882568359375,10.07080078125,-49.346923828125
17.6499999,-1.3934253454208374,3.205836057662964,-8.774748802185059,-4.913330078125,6.6375732421875,-48.248291015625
17.6699999,-1.161187767982483,3.40216064453125,-8.554482460021973,-2.5482177734375,1.9378662109375,-38.8946533203125
17.6899999,-0.8906430602073669,3.7397429943084717,-8.348581314086914,1.9989013671875,-0.1373291015625,-24.47509765625
17.7099999,-0.6129156351089478,4.0964789390563965,-8.257601737976074,4.1656494140625,-5.950927734375,-19.256591796875
17.7299999,-0.38307225704193115,4.228160381317139,-8.286332130432129,10.25390625,-10.345458984375,-16.5863037109375
17.749999900000002,-0.2322375625371933,4.182670593261719,-8.49941635131836,15.4876708984375,-12.8631591796875,-12.6190185546875
17.769999900000002,-0.17477671802043915,3.998316764831543,-8.875306129455566,16.2506103515625,-13.00048828125,-7.1563720703125
17.7899999,-0.19153612852096558,3.734954595565796,-9.41400146484375,8.270263671875,-13.519287109375,-0.885009765625
17.8099999,-0.24660277366638184,3.4572272300720215,-9.945513725280762,-5.9356689453125,-9.4451904296875,1.5869140625
17.8299999,-0.30885201692581177,3.141192674636841,-10.378864288330078,-5.2490234375,-5.340576171875,3.082275390625
17.8499999,-0.35673606395721436,2.8347349166870117,-10.687716484069824,5.7830810546875,-5.950927734375,4.5166015625
17.8699999,-0.38067805767059326,2.537853717803955,-10.781089782714844,10.68115234375,-3.173828125,6.134033203125
17.8899999,-0.37828385829925537,2.2649147510528564,-10.78587818145752,1.556396484375,-0.54931640625,6.7291259765625
17.909999900000003,-0.363918662071228,1.98958158493042,-10.678139686584473,-6.5155029296875,1.5106201171875,6.8817138671875
17.929999900000002,-0.3471592366695404,1.7693150043487549,-10.51054573059082,-3.4637451171875,3.4027099609375,3.936767578125
17.9499999,-0.33758243918418884,1.6304513216018677,-10.280701637268066,0.396728515625,3.3721923828125,0.1983642578125
17.9699999,-0.33997663855552673,1.5753847360610962,-10.038887977600098,-0.8697509765625,3.2501220703125,0.1068115234375
17.9899999,-0.3447650372982025,1.6160861253738403,-9.794678688049316,-4.119873046875,3.0059814453125,1.0528564453125
18.0099999,-0.3519476354122162,1.7046716213226318,-9.5624418258667,-5.4168701171875,2.960205078125,1.2664794921875
18.0299999,-0.3519476354122162,1.8267759084701538,-9.378087997436523,-5.1422119140625,0.244140625,0.885009765625
18.0499999,-0.3471592366695404,1.920149803161621,-9.229647636413574,-2.8533935546875,-0.91552734375,2.1820068359375
18.0699999,-0.3519476354122162,1.9800047874450684,-9.157821655273438,-0.9002685546875,-1.77001953125,3.3111572265625
18.089999900000002,-0.3663128614425659,1.9991583824157715,-9.181763648986816,1.739501953125,-2.716064453125,1.922607421875
18.109999900000002,-0.3926490843296051,1.9632453918457031,-9.246406555175781,5.37109375,-2.288818359375,1.28173828125
18.1299999,-0.42377370595932007,1.9345149993896484,-9.39245319366455,3.4332275390625,-3.326416015625,1.40380859375
18.1499999,-0.45489832758903503,1.9273324012756348,-9.531316757202148,1.251220703125,-2.6092529296875,2.13623046875
18.1699999,-0.47884035110473633,1.9345149993896484,-9.66299819946289,4.852294921875,-0.9613037109375,3.082275390625
18.1899999,-0.49799394607543945,1.965639591217041,-9.768342971801758,8.6212158203125,-1.3580322265625,2.899169921875
18.2099999,-0.5003881454467773,1.9249382019042969,-9.821015357971191,10.6658935546875,-0.67138671875,4.6539306640625
18.2299999,-0.5003881454467773,1.8698714971542358,-9.859322547912598,5.615234375,-1.617431640625,3.3416748046875
18.249999900000002,-0.4572925269603729,1.7118542194366455,-9.840168952941895,-2.2735595703125,0.06103515625,0.42724609375
18.269999900000002,-0.42616790533065796,1.7334020137786865,-9.787496566772461,-1.434326171875,0.2593994140625,0.4730224609375
18.2899999,-0.3974374830722809,1.8148049116134644,-9.725247383117676,-0.274658203125,-0.640869140625,1.7547607421875
18.3099999,-0.3926490843296051,1.9345149993896484,-9.651026725769043,-0.2899169921875,-0.1373291015625,2.410888671875
18.3299999,-0.40940847992897034,2.008735179901123,-9.605537414550781,-1.6326904296875,-0.6103515625,3.448486328125
18.3499999,-0.44771572947502136,2.013523578643799,-9.576807022094727,-2.9144287109375,-0.8697509765625,3.9520263671875
18.3699999,-0.48602294921875,1.9608511924743652,-9.579200744628906,-2.7923583984375,-0.8697509765625,2.5177001953125
18.3899999,-0.5219359993934631,1.8794482946395874,-9.567230224609375,-0.18310546875,0,1.190185546875
18.409999900000003,-0.5434837937355042,1.8507179021835327,-9.59835433959961,-1.708984375,-1.9073486328125,0.48828125
18.429999900000002,-0.5602431893348694,1.8626888990402222,-9.576807022094727,-2.38037109375,-1.3580322265625,1.7547607421875
18.4499999,-0.569819986820221,1.9129672050476074,-9.576807022094727,-2.655029296875,-1.861572265625,3.4637451171875
18.4699999,-0.569819986820221,1.9369091987609863,-9.593565940856934,-1.617431640625,-3.5400390625,3.1585693359375
18.4899999,-0.5674257874488831,1.941697597503662,-9.600749015808105,0.335693359375,-1.4801025390625,1.3275146484375
18.5099999,-0.5650315880775452,1.9153614044189453,-9.639056205749512,-0.54931640625,-1.0528564453125,-0.0152587890625
18.5299999,-0.5626373887062073,1.9177556037902832,-9.651026725769043,-1.068115234375,-1.6326904296875,1.0223388671875
18.5499999,-0.5626373887062073,1.9345149993896484,-9.646238327026367,-0.8697509765625,-2.2735595703125,2.5634765625
18.5699999,-0.5626373887062073,1.9632453918457031,-9.643844604492188,0.30517578125,-2.7923583984375,3.11279296875
18.589999900000002,-0.5626373887062073,1.9512743949890137,-9.648633003234863,0.8544921875,-1.9989013671875,3.7994384765625
18.609999900000002,-0.5650315880775452,1.9177556037902832,-9.6989107131958,-0.4425048828125,-2.166748046875,3.1585693359375
18.6299999,-0.5674257874488831,1.8411411046981812,-9.732429504394531,0.5340576171875,-0.4730224609375,2.4566650390625
18.6499999,-0.569819986820221,1.7956513166427612,-9.785101890563965,-0.244140625,-0.6103515625,0.7781982421875
18.6699999,-0.569819986820221,1.7621324062347412,-9.785101890563965,-0.396728515625,0.79345703125,1.312255859375
18.6899999,-0.5746083855628967,1.7884687185287476,-9.75637149810791,-0.9765625,0.518798828125,1.9378662109375
18.7099999,-0.5817909836769104,1.821987509727478,-9.706093788146973,-0.5950927734375,-0.5340576171875,2.166748046875
18.7299999,-0.5889736413955688,1.8315643072128296,-9.636661529541016,0.0762939453125,-0.457763671875,2.410888671875
18.749999900000002,-0.5985504388809204,1.8076223134994507,-9.591172218322754,-0.06103515625,-1.068115234375,0.7781982421875
18.769999900000002,-0.608127236366272,1.7884687185287476,-9.57441234588623,-0.5035400390625,-1.64794921875,-1.739501953125
18.7899999,-0.6200982332229614,1.8052281141281128,-9.586383819580078,-0.335693359375,-0.9307861328125,-1.52587890625
18.8099999,-0.6368576288223267,1.8698714971542358,-9.627084732055664,-1.129150390625,-0.701904296875,0.701904296875
18.8299999,-0.6488286852836609,1.946485996246338,-9.66299819946289,-0.5645751953125,-0.2899169921875,1.800537109375
18.8499999,-0.6584054827690125,2.011129379272461,-9.68694019317627,1.556396484375,-0.518798828125,0.701904296875
18.8699999,-0.6584054827690125,2.0183119773864746,-9.6989107131958,2.9449462890625,-0.1983642578125,0.274658203125
18.8899999,-0.6607996821403503,2.0183119773864746,-9.691728591918945,2.5482177734375,-0.0152587890625,0.732421875
18.909999900000003,-0.6584054827690125,1.9847931861877441,-9.667786598205566,1.46484375,-0.0152587890625,2.044677734375
18.929999900000002,-0.6560112833976746,1.9488801956176758,-9.672574996948242,-0.1068115234375,-0.8697509765625,1.9683837890625
18.9499999,-0.6560112833976746,1.8818424940109253,-9.651026725769043,1.2664794921875,-0.3662109375,0.640869140625
18.9699999,-0.6536170840263367,1.8339585065841675,-9.66539192199707,1.28173828125,0.18310546875,-0.244140625
18.9899999,-0.6560112833976746,1.8100165128707886,-9.66539192199707,0.30517578125,0.06103515625,-0.3662109375
19.0099999,-0.6536170840263367,1.8124107122421265,-9.658209800720215,1.190185546875,0.8087158203125,0.9765625
19.0299999,-0.6512228846549988,1.845929503440857,-9.641449928283691,0.9002685546875,0.244140625,1.068115234375
19.0499999,-0.6416460275650024,1.8507179021835327,-9.610325813293457,0.396728515625,-0.091552734375,1.220703125
19.0699999,-0.6344634294509888,1.86508309841156,-9.588777542114258,0.030517578125,-0.7781982421875,0.4119873046875
19.089999900000002,-0.6344634294509888,1.8626888990402222,-9.581595420837402,1.0986328125,-0.6561279296875,0.274658203125
19.109999900000002,-0.6368576288223267,1.8794482946395874,-9.610325813293457,1.129150390625,-0.5950927734375,0.274658203125
19.1299999,-0.646434485912323,1.8842366933822632,-9.63187313079834,1.6937255859375,0.3509521484375,1.220703125
19.1499999,-0.6560112833976746,1.8818424940109253,-9.674968719482422,1.52587890625,-0.06103515625,0.7171630859375
19.1699999,-0.6655880808830261,1.8746598958969116,-9.696516990661621,1.52587890625,-0.1983642578125,-0.06103515625
19.1899999,-0.6727706789970398,1.8579005002975464,-9.708487510681152,0.91552734375,0.3204345703125,0.2593994140625
19.2099999,-0.6751648783683777,1.8531121015548706,-9.713275909423828,0.48828125,0.5950927734375,1.40380859375
19.2299999,-0.6751648783683777,1.8555063009262085,-9.708487510681152,1.678466796875,0.7476806640625,1.4495849609375
19.249999900000002,-0.6727706789970398,1.8507179021835327,-9.694122314453125,2.6397705078125,1.3580322265625,1.2969970703125
19.269999900000002,-0.6727706789970398,1.8339585065841675,-9.684545516967773,2.3651123046875,0.6561279296875,1.0528564453125
19.2899999,-0.6751648783683777,1.824381709098816,-9.667786598205566,1.1444091796875,0.79345703125,0.6866455078125
19.3099999,-0.6751648783683777,1.7932571172714233,-9.653421401977539,0.3204345703125,1.2664794921875,1.5411376953125
19.3299999,-0.6703764796257019,1.7812861204147339,-9.634267807006836,0.3204345703125,0.823974609375,0.9918212890625
19.3499999,-0.6631938815116882,1.7836803197860718,-9.627084732055664,0.9613037109375,0.244140625,-0.1373291015625
19.3699999,-0.6607996821403503,1.7980455160140991,-9.624691009521484,1.251220703125,0.48828125,0.518798828125
19.3899999,-0.6631938815116882,1.8148049116134644,-9.63187313079834,1.6632080078125,0.8087158203125,1.800537109375
19.409999900000003,-0.6727706789970398,1.824381709098816,-9.648633003234863,2.38037109375,0.8544921875,1.3275146484375
19.429999900000002,-0.6799532771110535,1.802833914756775,-9.646238327026367,2.1820068359375,0.9307861328125,0.885009765625
19.4499999,-0.6775590777397156,1.7741034030914307,-9.658209800720215,0.7171630859375,-0.1373291015625,0.152587890625
19.4699999,-0.6751648783683777,1.764526605606079,-9.648633003234863,0.3662109375,0.457763671875,-0.3509521484375
19.4899999,-0.6703764796257019,1.778891921043396,-9.674968719482422,1.556396484375,0.0152587890625,0.213623046875
19.5099999,-0.6751648783683777,1.7980455160140991,-9.684545516967773,2.9754638671875,0.7781982421875,1.6021728515625
19.5299999,-0.6847416758537292,1.8100165128707886,-9.715670585632324,3.021240234375,0.8544921875,1.2969970703125
19.5499999,-0.6919242739677429,1.778891921043396,-9.710882186889648,2.5787353515625,1.068115234375,1.0986328125
19.5699999,-0.6919242739677429,1.7381904125213623,-9.706093788146973,0.6256103515625,0.91552734375,0.3814697265625
19.589999900000002,-0.6871358752250671,1.6927006244659424,-9.667786598205566,0.518798828125,0.5645751953125,0.3814697265625
19.609999900000002,-0.6799532771110535,1.680729627609253,-9.651026725769043,0.762939453125,-0.0457763671875,0.30517578125
19.6299999,-0.6703764796257019,1.678335428237915,-9.651026725769043,0.8697509765625,-0.274658203125,0.8392333984375
19.6499999,-0.6703764796257019,1.6974890232086182,-9.672574996948242,0.54931640625,1.0528564453125,0.396728515625
19.6699999,-0.6703764796257019,1.7046716213226318,-9.701305389404297,0.6103515625,1.0223388671875,-0.274658203125
19.6899999,-0.6727706789970398,1.721431016921997,-9.710882186889648,1.220703125,1.007080078125,0.1220703125
19.7099999,-0.6727706789970398,1.7334020137786865,-9.701305389404297,0.5645751953125,0.4730224609375,0.2899169921875
19.7299999,-0.6703764796257019,1.745373010635376,-9.682151794433594,0.9002685546875,0.3814697265625,1.129150390625
19.749999900000002,-0.667982280254364,1.7501614093780518,-9.66539192199707,1.220703125,0.396728515625,0.885009765625
19.769999900000002,-0.667982280254364,1.742978811264038,-9.672574996948242,1.312255859375,0.0457763671875,0.8392333984375
19.7899999,-0.6823474764823914,1.7046716213226318,-9.706093788146973,0.8392333984375,0.67138671875,1.0528564453125
19.8099999,-0.689530074596405,1.680729627609253,-9.710882186889648,0.1220703125,1.2054443359375,0.6103515625
19.8299999,-0.689530074596405,1.656787633895874,-9.708487510681152,0.42724609375,0.7476806640625,-0.1068115234375
19.8499999,-0.689530074596405,1.6663644313812256,-9.684545516967773,0.9307861328125,0.6866455078125,-0.1373291015625
19.8699999,-0.6847416758537292,1.6759412288665771,-9.66299819946289,0.5950927734375,0.6103515625,0.5645751953125
19.8899999,-0.6847416758537292,1.7046716213226318,-9.655815124511719,1.0833740234375,0.3662109375,1.0528564453125
19.909999900000003,-0.6871358752250671,1.7142484188079834,-9.66299819946289,2.2125244140625,0.6256103515625,1.007080078125
19.929999900000002,-0.6919242739677429,1.7118542194366455,-9.674968719482422,1.2969970703125,1.0223388671875,0.946044921875
19.9499999,-0.6943184733390808,1.6950948238372803,-9.6989107131958,-0.0457763671875,0.4425048828125,1.0528564453125
19.9699999,-0.6943184733390808,1.6639702320098877,-9.68694019317627,0.8087158203125,1.1138916015625,0.8087158203125
19.9899999,-0.6871358752250671,1.6424223184585571,-9.691728591918945,0.7781982421875,0.1983642578125,-0.2593994140625
20.0099999,-0.6799532771110535,1.644816517829895,-9.68933391571045,0.42724609375,0.335693359375,-0.335693359375
20.0299999,-0.6775590777397156,1.6424223184585571,-9.68694019317627,0.5950927734375,1.434326171875,1.007080078125
20.0499999,-0.6823474764823914,1.6711528301239014,-9.68933391571045,0.91552734375,1.434326171875,1.0528564453125
20.0699999,-0.6871358752250671,1.6687586307525635,-9.691728591918945,1.28173828125,0.6256103515625,0.9307861328125
20.089999900000002,-0.6871358752250671,1.659181833267212,-9.679757118225098,1.129150390625,0.8087158203125,0.9765625
20.109999900000002,-0.6871358752250671,1.6424223184585571,-9.6989107131958,0.579833984375,0.1678466796875,0.0152587890625
20.1299999,-0.6847416758537292,1.6352397203445435,-9.718064308166504,0.79345703125,0.579833984375,-0.3662109375
20.1499999,-0.6823474764823914,1.6376339197158813,-9.749189376831055,0.8087158203125,1.52587890625,0.3204345703125
20.1699999,-0.6847416758537292,1.647210717201233,-9.758766174316406,0.9765625,1.77001953125,0.9918212890625
20.1899999,-0.6823474764823914,1.6424223184585571,-9.744400978088379,0.8697509765625,1.922607421875,0.9307861328125
20.2099999,-0.6847416758537292,1.6400281190872192,-9.706093788146973,0.3662109375,0.8544921875,0.244140625
