# Time (seconds),Accel_X,Accel_Y,Accel_Z,Gyro_X,Gyro_Y,Gyro_Z
0.0099999,-0.17477671802043915,-3.7253777980804443,9.198522567749023,-0.457763671875,-1.068115234375,-0.091552734375
0.029999900000000003,-0.16998831927776337,-3.7253777980804443,9.2033109664917,0.152587890625,-1.2054443359375,-0.091552734375
0.0499999,-0.16998831927776337,-3.7277719974517822,9.2033109664917,0.18310546875,-1.2664794921875,-0.1373291015625
0.0699999,-0.16998831927776337,-3.7253777980804443,9.208099365234375,0.1068115234375,-1.220703125,-0.1220703125
0.08999990000000001,-0.17238251864910126,-3.7229835987091064,9.210494041442871,-0.42724609375,-1.2054443359375,-0.1678466796875
0.10999990000000001,-0.17238251864910126,-3.7229835987091064,9.208099365234375,-0.4425048828125,-1.2359619140625,-0.06103515625
0.1299999,-0.16998831927776337,-3.7277719974517822,9.20091724395752,0.244140625,-1.2969970703125,-0.091552734375
0.14999990000000002,-0.16998831927776337,-3.732560396194458,9.196128845214844,0.1373291015625,-1.2969970703125,-0.06103515625
0.1699999,-0.16998831927776337,-3.732560396194458,9.196128845214844,-0.0762939453125,-1.251220703125,-0.1068115234375
0.1899999,-0.16998831927776337,-3.73016619682312,9.198522567749023,-0.396728515625,-1.251220703125,-0.1220703125
0.20999990000000002,-0.16998831927776337,-3.73016619682312,9.20091724395752,-0.1068115234375,-1.220703125,-0.091552734375
0.2299999,-0.16759411990642548,-3.73016619682312,9.20091724395752,0.4425048828125,-1.251220703125,-0.1373291015625
0.2499999,-0.16759411990642548,-3.7277719974517822,9.2033109664917,-0.030517578125,-1.3580322265625,-0.1220703125
0.2699999,-0.16759411990642548,-3.7205893993377686,9.210494041442871,-0.0152587890625,-1.190185546875,-0.152587890625
0.28999990000000003,-0.16759411990642548,-3.7181951999664307,9.21288776397705,-0.5035400390625,-1.220703125,-0.0762939453125
0.3099999,-0.16759411990642548,-3.7229835987091064,9.21288776397705,-0.0457763671875,-1.2359619140625,-0.0457763671875
0.3299999,-0.16519992053508759,-3.73016619682312,9.208099365234375,0.3204345703125,-1.251220703125,-0.1220703125
0.34999990000000003,-0.16759411990642548,-3.734954595565796,9.2033109664917,-0.0152587890625,-1.28173828125,-0.1220703125
0.3699999,-0.16759411990642548,-3.732560396194458,9.20091724395752,0,-1.28173828125,-0.1220703125
0.3899999,-0.17477671802043915,-3.732560396194458,9.20091724395752,-0.1983642578125,-1.220703125,-0.06103515625
0.40999990000000003,-0.17477671802043915,-3.732560396194458,9.198522567749023,0.0457763671875,-1.1749267578125,-0.091552734375
0.4299999,-0.17238251864910126,-3.732560396194458,9.2033109664917,0.152587890625,-1.220703125,-0.213623046875
0.4499999,-0.17477671802043915,-3.732560396194458,9.205705642700195,-0.1220703125,-1.2359619140625,-0.18310546875
0.4699999,-0.17477671802043915,-3.732560396194458,9.210494041442871,-0.3204345703125,-1.28173828125,-0.1068115234375
0.4899999,-0.17717093229293823,-3.732560396194458,9.210494041442871,-0.06103515625,-1.1749267578125,-0.091552734375
0.5099999,-0.17477671802043915,-3.732560396194458,9.208099365234375,0.30517578125,-1.2969970703125,-0.1068115234375
0.5299999,-0.16998831927776337,-3.732560396194458,9.205705642700195,0.2899169921875,-1.3427734375,-0.1373291015625
0.5499999,-0.16998831927776337,-3.7277719974517822,9.208099365234375,-0.0762939453125,-1.220703125,-0.1373291015625
0.5699999,-0.16998831927776337,-3.7253777980804443,9.208099365234375,-0.0457763671875,-1.312255859375,-0.06103515625
0.5899998999999999,-0.17238251864910126,-3.7277719974517822,9.205705642700195,0.091552734375,-1.3427734375,-0.1678466796875
0.6099998999999999,-0.16759411990642548,-3.7277719974517822,9.205705642700195,0.274658203125,-1.28173828125,-0.1373291015625
0.6299999,-0.16759411990642548,-3.7277719974517822,9.205705642700195,0.091552734375,-1.3275146484375,0
0.6499999,-0.16759411990642548,-3.7253777980804443,9.205705642700195,-0.244140625,-1.2969970703125,-0.030517578125
0.6699999,-0.16998831927776337,-3.7253777980804443,9.208099365234375,-0.06103515625,-1.2054443359375,-0.1373291015625
0.6899999,-0.17238251864910126,-3.7277719974517822,9.2033109664917,-0.0762939453125,-1.2664794921875,-0.0762939453125
0.7099999,-0.17477671802043915,-3.73016619682312,9.2033109664917,0.3204345703125,-1.2969970703125,-0.1220703125
0.7299998999999999,-0.17477671802043915,-3.73016619682312,9.2033109664917,-0.0457763671875,-1.2359619140625,-0.1373291015625
0.7499998999999999,-0.17238251864910126,-3.7277719974517822,9.205705642700195,-0.1373291015625,-1.2664794921875,-0.091552734375
0.7699999,-0.17477671802043915,-3.7277719974517822,9.205705642700195,-0.06103515625,-1.190185546875,-0.1678466796875
0.7899999,-0.17477671802043915,-3.7277719974517822,9.205705642700195,-0.06103515625,-1.2664794921875,-0.0762939453125
0.8099999,-0.17238251864910126,-3.7253777980804443,9.208099365234375,0.1373291015625,-1.2969970703125,-0.1220703125
0.8299999,-0.17238251864910126,-3.7229835987091064,9.21288776397705,-0.0762939453125,-1.2664794921875,-0.1068115234375
0.8499998999999999,-0.17238251864910126,-3.7205893993377686,9.215282440185547,-0.244140625,-1.312255859375,-0.06103515625
0.8699998999999999,-0.17238251864910126,-3.7229835987091064,9.21288776397705,0.030517578125,-1.251220703125,-0.0762939453125
0.8899999,-0.17238251864910126,-3.7277719974517822,9.205705642700195,0.152587890625,-1.2664794921875,-0.1068115234375
0.9099999,-0.16998831927776337,-3.73016619682312,9.205705642700195,0.2593994140625,-1.2969970703125,-0.091552734375
0.9299999,-0.16759411990642548,-3.7277719974517822,9.208099365234375,-0.1678466796875,-1.129150390625,-0.0152587890625
0.9499999,-0.16519992053508759,-3.7277719974517822,9.210494041442871,-0.2593994140625,-1.2054443359375,-0.0762939453125
0.9699998999999999,-0.16519992053508759,-3.7277719974517822,9.21288776397705,-0.0457763671875,-1.2054443359375,-0.0762939453125
0.9899998999999999,-0.16519992053508759,-3.73016619682312,9.21288776397705,0.0762939453125,-1.2359619140625,-0.0762939453125
1.0099999,-0.16519992053508759,-3.7277719974517822,9.210494041442871,0.091552734375,-1.2664794921875,-0.1678466796875
1.0299999,-0.16519992053508759,-3.7253777980804443,9.210494041442871,-0.335693359375,-1.2664794921875,-0.06103515625
1.0499999,-0.16519992053508759,-3.7229835987091064,9.210494041442871,-0.0152587890625,-1.2054443359375,-0.030517578125
1.0699999,-0.16519992053508759,-3.7253777980804443,9.205705642700195,0.0457763671875,-1.251220703125,-0.091552734375
1.0899999,-0.16998831927776337,-3.7277719974517822,9.205705642700195,0.1373291015625,-1.2359619140625,-0.152587890625
1.1099999,-0.17238251864910126,-3.7253777980804443,9.208099365234375,0.0457763671875,-1.2359619140625,-0.1373291015625
1.1299999,-0.17238251864910126,-3.7253777980804443,9.210494041442871,-0.2288818359375,-1.2359619140625,-0.1220703125
1.1499999,-0.16998831927776337,-3.7229835987091064,9.210494041442871,-0.0457763671875,-1.251220703125,-0.1068115234375
1.1699998999999999,-0.16998831927776337,-3.7229835987091064,9.208099365234375,0.0762939453125,-1.251220703125,-0.0762939453125
1.1899998999999999,-0.17238251864910126,-3.7253777980804443,9.205705642700195,0.0457763671875,-1.28173828125,-0.091552734375
1.2099999,-0.17717093229293823,-3.7253777980804443,9.2033109664917,0,-1.251220703125,-0.1068115234375
1.2299999,-0.17717093229293823,-3.73016619682312,9.2033109664917,-0.1373291015625,-1.28173828125,-0.0762939453125
1.2499999,-0.17477671802043915,-3.732560396194458,9.2033109664917,-0.1373291015625,-1.2664794921875,-0.1678466796875
1.2699999,-0.16998831927776337,-3.737348794937134,9.20091724395752,0.1068115234375,-1.2359619140625,-0.1068115234375
1.2899999,-0.16998831927776337,-3.737348794937134,9.20091724395752,-0.030517578125,-1.251220703125,-0.06103515625
1.3099999,-0.17477671802043915,-3.734954595565796,9.205705642700195,-0.0762939453125,-1.28173828125,-0.0457763671875
1.3299999,-0.17477671802043915,-3.73016619682312,9.208099365234375,-0.091552734375,-1.2664794921875,-0.0457763671875
1.3499999,-0.17238251864910126,-3.7253777980804443,9.21288776397705,0.1220703125,-1.2359619140625,-0.1068115234375
1.3699999,-0.16759411990642548,-3.7253777980804443,9.21288776397705,-0.1220703125,-1.2359619140625,-0.091552734375
1.3899999,-0.16759411990642548,-3.7253777980804443,9.215282440185547,-0.1678466796875,-1.2054443359375,0
1.4099999,-0.16759411990642548,-3.7253777980804443,9.21288776397705,-0.1983642578125,-1.190185546875,-0.091552734375
1.4299998999999999,-0.16998831927776337,-3.7277719974517822,9.210494041442871,0.030517578125,-1.2664794921875,-0.091552734375
1.4499999,-0.16998831927776337,-3.7277719974517822,9.205705642700195,0.1983642578125,-1.2054443359375,-0.06103515625
1.4699999,-0.16759411990642548,-3.7277719974517822,9.205705642700195,0,-1.2054443359375,-0.1220703125
1.4899999,-0.16759411990642548,-3.7253777980804443,9.205705642700195,-0.1678466796875,-1.2359619140625,-0.1678466796875
1.5099999,-0.16759411990642548,-3.7229835987091064,9.205705642700195,-0.213623046875,-1.2664794921875,-0.1068115234375
1.5299999,-0.16998831927776337,-3.7277719974517822,9.2033109664917,-0.0152587890625,-1.28173828125,0
1.5499999,-0.16998831927776337,-3.7277719974517822,9.20091724395752,0.1373291015625,-1.2664794921875,-0.0762939453125
1.5699999,-0.16998831927776337,-3.732560396194458,9.20091724395752,0,-1.2969970703125,-0.0762939453125
1.5899999,-0.16998831927776337,-3.734954595565796,9.2033109664917,-0.152587890625,-1.220703125,-0.06103515625
1.6099999,-0.17477671802043915,-3.734954595565796,9.2033109664917,-0.1220703125,-1.28173828125,-0.1068115234375
1.6299999,-0.17477671802043915,-3.734954595565796,9.205705642700195,0.1068115234375,-1.251220703125,-0.0762939453125
1.6499999,-0.17477671802043915,-3.732560396194458,9.2033109664917,0.18310546875,-1.28173828125,-0.06103515625
1.6699999,-0.17238251864910126,-3.7277719974517822,9.205705642700195,-0.1068115234375,-1.312255859375,-0.091552734375
1.6899998999999999,-0.16759411990642548,-3.7229835987091064,9.205705642700195,-0.213623046875,-1.251220703125,-0.1220703125
1.7099999,-0.16759411990642548,-3.7229835987091064,9.205705642700195,-0.1373291015625,-1.2969970703125,-0.06103515625
1.7299999,-0.16759411990642548,-3.7205893993377686,9.208099365234375,0.1068115234375,-1.251220703125,-0.152587890625
1.7499999,-0.16998831927776337,-3.6990416049957275,9.232041358947754,-1.8768310546875,-0.2593994140625,-0.42724609375
1.7699999,-0.19632454216480255,-3.450044631958008,9.32302188873291,-4.4708251953125,1.3885498046875,1.64794921875
1.7899999,-0.17477671802043915,-3.466804027557373,9.35654067993164,-0.579833984375,-0.18310546875,12.6190185546875
1.8099999,-0.3016694188117981,-3.6080620288848877,9.282320022583008,3.0670166015625,8.8043212890625,9.307861328125
1.8299999,-0.3519476354122162,-3.825934410095215,9.244012832641602,11.1236572265625,29.84619140625,-21.9268798828125
1.8499999,-0.5722141861915588,-4.484339714050293,9.193734169006348,-10.92529296875,31.402587890625,-28.3203125
1.8699999,-0.7469909191131592,-4.8482584953308105,9.739612579345703,12.054443359375,29.052734375,-54.19921875
1.8899999,-0.9792284965515137,-4.881777286529541,10.630255699157715,95.611572265625,17.333984375,-88.9739990234375
1.9099999,-1.0965443849563599,-5.044582843780518,11.245565414428711,5.18798828125,-39.61181640625,-66.0552978515625
1.9299998999999999,-0.9528923034667969,-3.9624037742614746,11.185709953308105,-63.5528564453125,-53.8330078125,-79.2083740234375
1.9499999,-0.7876923680305481,-3.6104562282562256,10.687716484069824,4.2572021484375,0.518798828125,-16.6015625
1.9699999,-0.36152446269989014,-2.6216509342193604,9.53849983215332,-12.6800537109375,7.4615478515625,12.2833251953125
1.9899999,-0.011971008032560349,-2.38462495803833,8.98543930053711,2.3651123046875,20.5535888671875,9.8724365234375
2.0099999,0.2346317619085312,-2.4468741416931152,8.793902397155762,18.3258056640625,5.523681640625,-0.5035400390625
2.0299999,0.3495534360408783,-2.695871114730835,8.827422142028809,17.76123046875,-23.895263671875,-18.00537109375
2.0499999,0.4141969084739685,-2.875436305999756,8.959102630615234,-2.3193359375,-25.2685546875,-16.2506103515625
2.0699999,0.49799394607543945,-2.894589900970459,9.01895809173584,-12.786865234375,-31.9976806640625,-5.2947998046875
2.0899999,0.5315127968788147,-3.313575267791748,8.832210540771484,-39.6728515625,-30.94482421875,5.7525634765625
2.1099999,0.629675030708313,-3.531447410583496,8.786720275878906,-41.412353515625,-19.59228515625,-27.496337890625
2.1299999,0.6416460275650024,-4.168305397033691,8.576030731201172,-9.552001953125,-20.1568603515625,-35.3851318359375
2.1499999,0.5602431893348694,-4.709394931793213,8.71489429473877,0.8697509765625,-18.8751220703125,-32.562255859375
2.1699999,0.5315127968788147,-4.857835292816162,9.0859956741333,43.2586669921875,12.1307373046875,-37.353515625
2.1899999,0.6272808313369751,-4.917690277099609,9.220070838928223,82.8094482421875,33.1573486328125,-13.763427734375
2.2099999,0.7757213711738586,-4.675876140594482,9.275136947631836,65.6280517578125,-1.0986328125,-1.1749267578125
2.2299999,0.8738836050033569,-4.302380561828613,9.150638580322266,6.65283203125,-27.0233154296875,5.4779052734375
2.2499999,0.9959878921508789,-3.869029998779297,8.899248123168945,-11.2457275390625,-23.956298828125,-1.9073486328125
2.2699999,0.8307880163192749,-3.380612850189209,8.731653213500977,18.73779296875,-28.3660888671875,-0.3204345703125
2.2899999,0.6871358752250671,-2.980781078338623,8.671798706054688,12.115478515625,-17.7764892578125,20.7672119140625
2.3099999,0.5171475410461426,-2.669534921646118,8.607154846191406,-23.2391357421875,-3.570556640625,15.7928466796875
2.3299999,0.3974374830722809,-2.557007312774658,8.576030731201172,-19.775390625,6.8359375,0.8544921875
2.3499999,0.40940847992897034,-2.583343744277954,8.710105895996094,-7.6904296875,18.829345703125,2.3651123046875
2.3699999,0.47644615173339844,-2.7054479122161865,8.865729331970215,-9.857177734375,31.3262939453125,8.514404296875
2.3899999,0.5937620401382446,-2.9041666984558105,8.980650901794434,-15.106201171875,30.120849609375,16.937255859375
2.4099999,0.6248866319656372,-3.069366693496704,9.105149269104004,-30.6854248046875,20.9197998046875,6.134033203125
2.4299999,0.6655880808830261,-3.1890766620635986,9.157821655273438,-28.1829833984375,14.2364501953125,-2.5482177734375
2.4499999,0.6105214357376099,-3.2632968425750732,9.191340446472168,-17.8985595703125,15.106201171875,-6.3629150390625
2.4699999,0.5027823448181152,-3.265691041946411,9.155426979064941,-19.10400390625,10.5743408203125,-10.1165771484375
2.4899999,0.40940847992897034,-3.265691041946411,9.057265281677246,-19.3023681640625,2.716064453125,-5.8441162109375
2.5099999,0.272938996553421,-3.294421434402466,8.947132110595703,-15.4876708984375,8.2244873046875,0.823974609375
2.5299999,0.1867477297782898,-3.4308910369873047,8.9064302444458,-13.6566162109375,12.9547119140625,3.6163330078125
2.5499999,0.1412578970193863,-3.5865142345428467,8.944737434387207,-14.892578125,6.072998046875,0.6103515625
2.5699999,0.13168109953403473,-3.7708675861358643,9.004592895507812,-4.241943359375,4.5318603515625,0.79345703125
2.5899999,0.13168109953403473,-3.9600095748901367,9.133879661560059,2.7313232421875,4.8370361328125,4.425048828125
2.6099999,0.14365209639072418,-4.055777549743652,9.258378028869629,7.3089599609375,1.9073486328125,8.2550048828125
2.6299999,0.14604631066322327,-4.072536945343018,9.366117477416992,12.7410888671875,8.1939697265625,8.97216796875
2.6499999,0.12449848651885986,-4.0294413566589355,9.457097053527832,12.2528076171875,12.5274658203125,6.2103271484375
2.6699999,0.0933738648891449,-3.9456443786621094,9.514557838439941,11.7340087890625,7.781982421875,6.7291259765625
2.6899999,0.05506663769483566,-3.799597978591919,9.50737476348877,15.1519775390625,3.0517578125,11.04736328125
2.7099999,0.011971008032560349,-3.6583402156829834,9.411606788635254,19.6533203125,6.439208984375,11.962890625
2.7299999,0.002394201699644327,-3.4979286193847656,9.255983352661133,13.5498046875,8.60595703125,10.8642578125
2.7499999,0.014365210197865963,-3.3470940589904785,9.059659004211426,7.476806640625,7.110595703125,8.575439453125
2.7699999,0.023942016065120697,-3.2417490482330322,8.856152534484863,6.89697265625,8.7432861328125,4.913330078125
2.7899999,0.023942016065120697,-3.181894063949585,8.741230010986328,-2.593994140625,10.040283203125,0.8544921875
2.8099999,-0.043095629662275314,-3.2082302570343018,8.755595207214355,-18.402099609375,12.26806640625,-2.25830078125
2.8299999,-0.16519992053508759,-3.3494882583618164,8.971074104309082,-24.2156982421875,10.80322265625,-0.6256103515625
2.8499999,-0.35434186458587646,-3.5697548389434814,9.334992408752441,-14.678955078125,9.1400146484375,2.288818359375
2.8699999,-0.5482721924781799,-3.840299606323242,9.691728591918945,-1.556396484375,9.1552734375,2.2735595703125
2.8899999,-0.7086837291717529,-4.0294413566589355,9.873687744140625,1.739501953125,10.3912353515625,2.0294189453125
2.9099999,-0.7805097699165344,-4.084507942199707,9.77791976928711,-0.3814697265625,8.4075927734375,2.288818359375
2.9299999,-0.7781155705451965,-4.048594951629639,9.488221168518066,-5.645751953125,4.45556640625,1.1444091796875
2.9499999,-0.706289529800415,-3.971980571746826,9.191340446472168,-12.1612548828125,3.4637451171875,-0.3814697265625
2.9699999,-0.5770025849342346,-3.907337188720703,9.02135181427002,-12.603759765625,2.7618408203125,0.54931640625
2.9899999,-0.4644751250743866,-3.890577793121338,9.016563415527344,-8.2855224609375,6.500244140625,1.9683837890625
3.0099999,-0.3758896589279175,-3.9240965843200684,9.119514465332031,-3.143310546875,6.988525390625,3.173828125
3.0299999,-0.35913026332855225,-3.9647979736328125,9.244012832641602,-0.42724609375,5.0201416015625,3.7994384765625
3.0499999,-0.3878606855869293,-4.000710964202881,9.315838813781738,1.2969970703125,7.843017578125,6.2408447265625
3.0699999,-0.4836287498474121,-3.9911341667175293,9.311050415039062,1.0223388671875,10.7879638671875,7.171630859375
3.0899999,-0.5961562395095825,-3.971980571746826,9.258378028869629,-1.52587890625,13.427734375,13.458251953125
3.1099999,-0.7326257228851318,-3.9432501792907715,9.217676162719727,-4.486083984375,17.669677734375,26.336669921875
3.1299999,-0.7254431247711182,-3.9025487899780273,9.141061782836914,1.7242431640625,18.218994140625,31.92138671875
3.1499999,-0.7972691655158997,-3.9432501792907715,9.181763648986816,-8.30078125,-24.47509765625,10.7421875
3.1699999,-0.7422025203704834,-3.883395195007324,9.114726066589355,-10.772705078125,-22.3388671875,6.988525390625
3.1899999,-0.811634361743927,-3.9264907836914062,9.059659004211426,3.448486328125,-41.9769287109375,-1.312255859375
3.2099999,-0.8068459630012512,-3.9217023849487305,9.078812599182129,-13.4429931640625,0.1373291015625,16.7694091796875
3.2299999,-0.8475474119186401,-3.998316764831543,9.069235801696777,-2.5482177734375,-4.0130615234375,-1.3275146484375
3.2499999,-0.7661445140838623,-4.041412353515625,9.188945770263672,1.3427734375,-6.2103271484375,-4.1961669921875
3.2699999,-0.6775590777397156,-4.0749311447143555,9.248801231384277,3.7994384765625,-0.4425048828125,1.4801025390625
3.2899999,-0.6033388376235962,-4.046200752258301,9.23682975769043,0.701904296875,-2.3040771484375,1.9378662109375
3.3099999,-0.5602431893348694,-3.9863457679748535,9.131484985351562,-1.9989013671875,-2.227783203125,2.899169921875
3.3299999000000002,-0.5913678407669067,-3.9264907836914062,9.014169692993164,-6.34765625,-4.119873046875,1.678466796875
3.3499999,-0.667982280254364,-3.909731388092041,8.951920509338379,-6.2103271484375,-1.4190673828125,2.44140625
3.3699999,-0.7541735172271729,-3.912125587463379,8.973467826843262,-0.42724609375,0.79345703125,4.57763671875
3.3899999,-0.8020575642585754,-3.9217023849487305,9.047688484191895,3.96728515625,0.0457763671875,4.4403076171875
3.4099999,-0.8259995579719543,-3.9240965843200684,9.10993766784668,5.401611328125,1.40380859375,2.6397705078125
3.4299999,-0.790086567401886,-3.8977603912353516,9.119514465332031,3.0364990234375,-0.1373291015625,2.0599365234375
3.4499999,-0.7709329724311829,-3.8738183975219727,9.081207275390625,-1.2969970703125,-1.7242431640625,1.617431640625
3.4699999,-0.7445967197418213,-3.8738183975219727,9.069235801696777,-3.4332275390625,-1.312255859375,0.48828125
3.4899999,-0.727837324142456,-3.88818359375,9.078812599182129,-0.7781982421875,0.3814697265625,0.8087158203125
3.5099999,-0.7230489253997803,-3.9193081855773926,9.0859956741333,4.3487548828125,3.173828125,1.3885498046875
3.5299999,-0.7206547260284424,-3.928884983062744,9.0859956741333,1.7242431640625,1.068115234375,2.0751953125
3.5499999,-0.730231523513794,-3.9217023849487305,9.050082206726074,-3.6468505859375,-2.349853515625,0.6103515625
3.5699999,-0.7445967197418213,-3.907337188720703,9.026140213012695,-5.950927734375,-1.2359619140625,-0.06103515625
3.5899999,-0.768538773059845,-3.914519786834717,9.004592895507812,-5.0201416015625,0.6256103515625,-0.6103515625
3.6099999,-0.790086567401886,-3.93367338180542,9.01895809173584,-11.3525390625,1.0986328125,1.495361328125
3.6299999,-0.8068459630012512,-3.974374771118164,9.02135181427002,-13.2598876953125,-0.823974609375,1.6326904296875
3.6499999,-0.811634361743927,-4.003105163574219,9.028534889221191,-8.85009765625,-2.288818359375,0.7476806640625
3.6699999,-0.811634361743927,-4.031835556030273,9.035717010498047,-5.1116943359375,-0.1678466796875,2.25830078125
3.6899999,-0.8140285611152649,-4.050989151000977,9.042900085449219,-2.9754638671875,1.1444091796875,2.74658203125
3.7099999,-0.8164227604866028,-4.065354347229004,9.040505409240723,-1.9989013671875,-0.579833984375,1.8463134765625
3.7299999,-0.8212111592292786,-4.084507942199707,9.033323287963867,-1.8463134765625,-0.6561279296875,1.7547607421875
3.7499999,-0.828393816947937,-4.101267337799072,9.026140213012695,-0.9307861328125,-0.1373291015625,0.8544921875
3.7699999,-0.8259995579719543,-4.1156325340271,9.016563415527344,-1.1138916015625,-0.152587890625,1.129150390625
3.7899999,-0.8307880163192749,-4.125209331512451,9.004592895507812,-2.1820068359375,0.244140625,1.7242431640625
3.8099999,-0.8403648138046265,-4.144362926483154,8.992621421813965,-1.6632080078125,-0.1983642578125,1.3275146484375
3.8299999000000002,-0.8547300100326538,-4.156333923339844,8.992621421813965,-0.79345703125,-0.8087158203125,2.349853515625
3.8499999,-0.8619126081466675,-4.165910720825195,8.990227699279785,0.274658203125,-0.457763671875,2.5787353515625
3.8699999,-0.8643068075180054,-4.151545524597168,8.983044624328613,-0.91552734375,-0.1068115234375,1.495361328125
3.8899999,-0.8619126081466675,-4.146757125854492,8.980650901794434,-2.2735595703125,-0.79345703125,0.8087158203125
3.9099999,-0.8547300100326538,-4.1395745277404785,8.987833023071289,-1.6937255859375,-1.373291015625,1.1444091796875
3.9299999,-0.8547300100326538,-4.14915132522583,8.999804496765137,0.3814697265625,-0.8392333984375,1.64794921875
3.9499999,-0.8451532125473022,-4.1611223220825195,9.016563415527344,0.42724609375,0.762939453125,2.532958984375
3.9699999,-0.8427590131759644,-4.1611223220825195,9.009381294250488,-0.1068115234375,-0.457763671875,2.01416015625
3.9899999,-0.8307880163192749,-4.151545524597168,8.995016098022461,-0.7476806640625,0.2899169921875,2.4566650390625
4.0099999,-0.8379706144332886,-4.144362926483154,8.973467826843262,-0.91552734375,1.03759765625,2.2430419921875
4.029999900000001,-0.849941611289978,-4.129997730255127,8.956708908081055,-1.2969970703125,-0.2593994140625,1.434326171875
4.0499999,-0.8786720037460327,-4.134786128997803,8.956708908081055,-2.0751953125,-0.48828125,0.8544921875
4.069999900000001,-0.9097966551780701,-4.144362926483154,8.978256225585938,-1.5106201171875,0.4425048828125,2.1820068359375
4.0899999000000005,-0.933738648891449,-4.158728122711182,8.992621421813965,0.6103515625,1.03759765625,2.8228759765625
4.1099999,-0.9361328482627869,-4.163516521453857,8.992621421813965,0.9765625,1.617431640625,2.44140625
4.1299999000000005,-0.933738648891449,-4.151545524597168,8.966285705566406,-2.1514892578125,0.946044921875,1.5106201171875
4.1499999,-0.9289502501487732,-4.144362926483154,8.942343711853027,-4.638671875,-0.6866455078125,1.007080078125
4.1699999000000005,-0.9313444495201111,-4.144362926483154,8.942343711853027,-3.021240234375,0.640869140625,2.4261474609375
4.1899999,-0.9385270476341248,-4.156333923339844,8.951920509338379,-0.2288818359375,1.4190673828125,2.6702880859375
4.209999900000001,-0.9409212470054626,-4.158728122711182,8.96149730682373,-1.3275146484375,0.5950927734375,1.953125
4.2299999,-0.9457096457481384,-4.158728122711182,8.944737434387207,-4.4097900390625,-0.3662109375,0.640869140625
4.249999900000001,-0.9457096457481384,-4.14915132522583,8.916007041931152,-5.5084228515625,-0.79345703125,0.091552734375
4.2699999,-0.9552865028381348,-4.156333923339844,8.901641845703125,-4.9285888671875,-0.0762939453125,0.8697509765625
4.289999900000001,-0.9744400978088379,-4.185064792633057,8.9064302444458,-4.8370361328125,0.5645751953125,1.4801025390625
4.3099999,-0.9840168952941895,-4.230554580688477,8.939949035644531,-4.364013671875,0.8392333984375,1.8768310546875
4.329999900000001,-0.9911994934082031,-4.2760443687438965,8.971074104309082,-1.9683837890625,1.1749267578125,1.2969970703125
4.3499999,-0.9864110946655273,-4.307168960571289,8.990227699279785,0.274658203125,2.5787353515625,0.701904296875
4.369999900000001,-0.9816226959228516,-4.323928356170654,8.987833023071289,-0.885009765625,2.8228759765625,1.617431640625
4.3899999,-0.993593692779541,-4.323928356170654,8.966285705566406,-2.197265625,0.91552734375,1.3427734375
4.409999900000001,-1.0247182846069336,-4.3191399574279785,8.935160636901855,-1.28173828125,-0.6103515625,0.5035400390625
4.4299999,-1.070208191871643,-4.3191399574279785,8.923190116882324,-0.6103515625,-0.0762939453125,0.762939453125
4.449999900000001,-1.1061211824417114,-4.314351558685303,8.916007041931152,-0.091552734375,-0.06103515625,1.0833740234375
4.4699999,-1.113303780555725,-4.304774761199951,8.908824920654297,-0.1373291015625,1.2359619140625,1.8157958984375
4.489999900000001,-1.094150185585022,-4.28322696685791,8.884882926940918,-0.9765625,0.1678466796875,0.885009765625
4.5099999,-1.0606313943862915,-4.261679172515869,8.851364135742188,-3.509521484375,-0.7781982421875,0.30517578125
4.529999900000001,-1.039083480834961,-4.244919776916504,8.827422142028809,-7.080078125,-0.8087158203125,0.9307861328125
4.5499999,-1.0438719987869263,-4.252102375030518,8.834604263305664,-7.0648193359375,-0.8087158203125,1.068115234375
4.569999900000001,-1.0654197931289673,-4.290409564971924,8.87291145324707,-3.387451171875,0.335693359375,1.4190673828125
4.5899999000000005,-1.0845733880996704,-4.335899353027344,8.920795440673828,-1.28173828125,-0.518798828125,0.6256103515625
4.609999900000001,-1.091755986213684,-4.37420654296875,8.935160636901855,-0.6561279296875,-1.2359619140625,-0.0762939453125
4.6299999000000005,-1.0845733880996704,-4.400542736053467,8.932766914367676,-2.044677734375,-0.0457763671875,0.91552734375
4.6499999,-1.0821791887283325,-4.424484729766846,8.93037223815918,-2.1209716796875,-0.54931640625,0.7171630859375
4.6699999000000005,-1.0845733880996704,-4.4292731285095215,8.920795440673828,1.1444091796875,-1.2969970703125,0.0762939453125
4.6899999,-1.0989385843276978,-4.426878929138184,8.913613319396973,2.6092529296875,-0.6561279296875,0.0762939453125
4.709999900000001,-1.1061211824417114,-4.405331134796143,8.901641845703125,0.1220703125,0.1068115234375,0.5950927734375
4.7299999,-1.1013327836990356,-4.371812343597412,8.865729331970215,-1.03759765625,-1.0223388671875,-0.1220703125
4.749999900000001,-1.091755986213684,-4.347870349884033,8.83939266204834,-0.5645751953125,-1.4190673828125,-0.396728515625
4.7699999,-1.0821791887283325,-4.347870349884033,8.844181060791016,-0.5340576171875,-0.7476806640625,0.1983642578125
4.789999900000001,-1.0845733880996704,-4.347870349884033,8.856152534484863,0.4730224609375,-1.8463134765625,-0.274658203125
4.8099999,-1.091755986213684,-4.350264549255371,8.87051773071289,1.190185546875,-0.7781982421875,0.6866455078125
4.829999900000001,-1.094150185585022,-4.333505153656006,8.865729331970215,0.1220703125,-0.946044921875,0.579833984375
4.8499999,-1.094150185585022,-4.321534156799316,8.853757858276367,-2.0904541015625,-1.4801025390625,0
4.869999900000001,-1.091755986213684,-4.314351558685303,8.83939266204834,-2.9754638671875,-1.6021728515625,-0.0152587890625
4.8899999,-1.0893617868423462,-4.335899353027344,8.841787338256836,-2.0599365234375,-1.0223388671875,0.2593994140625
4.909999900000001,-1.091755986213684,-4.37420654296875,8.858546257019043,-0.885009765625,-0.4730224609375,0.5340576171875
4.9299999,-1.091755986213684,-4.4077253341674805,8.853757858276367,-0.579833984375,-0.1983642578125,1.15966796875
4.949999900000001,-1.094150185585022,-4.417302131652832,8.846575736999512,-3.448486328125,-0.8544921875,1.2054443359375
4.9699999,-1.1013327836990356,-4.422090530395508,8.83699893951416,-3.0059814453125,-0.640869140625,1.068115234375
4.989999900000001,-1.1109095811843872,-4.424484729766846,8.856152534484863,-1.4190673828125,0.54931640625,1.800537109375
5.0099999,-1.1252747774124146,-4.431667327880859,8.880094528198242,1.861572265625,-0.7171630859375,0.7171630859375
5.029999900000001,-1.1324573755264282,-4.441244125366211,8.908824920654297,2.9449462890625,-0.732421875,0.67138671875
5.0499999,-1.1300631761550903,-4.431667327880859,8.89685344696045,0.9918212890625,-0.79345703125,0.5950927734375
5.069999900000001,-1.1204863786697388,-4.405331134796143,8.87051773071289,-0.244140625,-0.9307861328125,0.0762939453125
5.0899999000000005,-1.113303780555725,-4.388571739196777,8.848969459533691,0.1068115234375,-0.6866455078125,0.0457763671875
5.109999900000001,-1.113303780555725,-4.378994941711426,8.844181060791016,1.251220703125,-1.373291015625,0.0762939453125
5.1299999000000005,-1.1180921792984009,-4.381389141082764,8.853757858276367,1.52587890625,-0.885009765625,0.67138671875
5.1499999,-1.1252747774124146,-4.369418144226074,8.851364135742188,1.2359619140625,-1.2969970703125,0.1373291015625
5.1699999000000005,-1.1276689767837524,-4.355052947998047,8.83699893951416,-0.18310546875,-0.8544921875,0.030517578125
5.1899999,-1.1276689767837524,-4.3406877517700195,8.825027465820312,-1.5716552734375,-0.7476806640625,0.030517578125
5.209999900000001,-1.1300631761550903,-4.347870349884033,8.834604263305664,-1.129150390625,-1.2969970703125,0.1220703125
5.2299999,-1.1324573755264282,-4.357447147369385,8.848969459533691,0.9613037109375,-1.434326171875,0.1373291015625
5.249999900000001,-1.1348515748977661,-4.367023944854736,8.853757858276367,1.0223388671875,-1.4495849609375,-0.030517578125
5.2699999,-1.1276689767837524,-4.37420654296875,8.844181060791016,-1.8768310546875,-0.3662109375,0.762939453125
5.289999900000001,-1.1252747774124146,-4.376600742340088,8.832210540771484,-3.8299560546875,-1.2359619140625,0.6103515625
5.3099999,-1.1276689767837524,-4.388571739196777,8.834604263305664,-2.6397705078125,-0.8392333984375,0.79345703125
5.329999900000001,-1.139639973640442,-4.400542736053467,8.856152534484863,0.91552734375,-0.1068115234375,0.7476806640625
5.3499999,-1.1516109704971313,-4.405331134796143,8.87291145324707,1.312255859375,0.1678466796875,0.67138671875
5.369999900000001,-1.1540051698684692,-4.393360137939453,8.868123054504395,-0.5035400390625,-0.79345703125,0.1373291015625
5.3899999,-1.1516109704971313,-4.3861775398254395,8.853757858276367,-1.0833740234375,-0.8087158203125,0.091552734375
5.409999900000001,-1.1492167711257935,-4.388571739196777,8.848969459533691,-0.762939453125,-1.251220703125,-0.335693359375
5.4299999,-1.1468225717544556,-4.395754337310791,8.853757858276367,0.1983642578125,-0.946044921875,0.152587890625
5.449999900000001,-1.1468225717544556,-4.390965938568115,8.851364135742188,1.007080078125,0.6256103515625,1.2054443359375
5.4699999,-1.1444283723831177,-4.369418144226074,8.829815864562988,-0.335693359375,-0.030517578125,0.457763671875
5.489999900000001,-1.1468225717544556,-4.347870349884033,8.803479194641113,-3.3721923828125,-0.9307861328125,-0.030517578125
5.5099999,-1.1468225717544556,-4.345476150512695,8.789113998413086,-4.302978515625,-1.6632080078125,-0.3662109375
5.529999900000001,-1.1563993692398071,-4.364629745483398,8.791508674621582,-2.2735595703125,-2.01416015625,-0.48828125
5.5499999,-1.1683704853057861,-4.4077253341674805,8.813055992126465,-1.251220703125,0.0152587890625,0.6256103515625
5.569999900000001,-1.173158884048462,-4.455609321594238,8.851364135742188,-1.5716552734375,-0.3509521484375,-0.152587890625
5.5899999000000005,-1.1755530834197998,-4.491522312164307,8.87291145324707,-0.1983642578125,-1.0223388671875,-0.3814697265625
5.609999900000001,-1.173158884048462,-4.503493309020996,8.882488250732422,1.3885498046875,-0.42724609375,0.4119873046875
5.6299999000000005,-1.170764684677124,-4.49870491027832,8.875306129455566,0.8697509765625,-0.823974609375,0.0152587890625
5.6499999,-1.1659762859344482,-4.469974517822266,8.856152534484863,-0.1678466796875,-0.732421875,0.1220703125
5.6699999000000005,-1.158793568611145,-4.438849925994873,8.829815864562988,-0.396728515625,-0.335693359375,0.5035400390625
5.6899999,-1.1540051698684692,-4.41969633102417,8.827422142028809,-0.335693359375,-1.2359619140625,0.0762939453125
5.709999900000001,-1.1540051698684692,-4.417302131652832,8.829815864562988,0.2899169921875,-1.4801025390625,0.18310546875
5.7299999,-1.161187767982483,-4.422090530395508,8.83699893951416,1.190185546875,-0.9307861328125,0.5950927734375
5.749999900000001,-1.1635819673538208,-4.426878929138184,8.834604263305664,1.220703125,-0.9307861328125,0.579833984375
5.7699999,-1.1635819673538208,-4.41969633102417,8.815450668334961,0.4119873046875,-1.2969970703125,0.213623046875
5.789999900000001,-1.158793568611145,-4.410119533538818,8.810662269592285,-1.2664794921875,-0.8544921875,0.213623046875
5.8099999,-1.1683704853057861,-4.414907932281494,8.81784439086914,-0.701904296875,-0.9918212890625,-0.06103515625
5.829999900000001,-1.1755530834197998,-4.424484729766846,8.83699893951416,1.46484375,-0.518798828125,0.701904296875
5.8499999,-1.1851298809051514,-4.4292731285095215,8.841787338256836,2.166748046875,0.1068115234375,0.5950927734375
5.869999900000001,-1.1827356815338135,-4.41969633102417,8.822632789611816,-0.2899169921875,-1.1444091796875,-0.7476806640625
5.8899999,-1.1803414821624756,-4.410119533538818,8.803479194641113,-2.9144287109375,-1.251220703125,-0.3509521484375
5.909999900000001,-1.1827356815338135,-4.412513732910156,8.801085472106934,-1.617431640625,-1.1138916015625,0.213623046875
5.9299999,-1.1875240802764893,-4.426878929138184,8.820239067077637,1.2969970703125,-1.434326171875,0.06103515625
5.949999900000001,-1.192312479019165,-4.438849925994873,8.83939266204834,1.7242431640625,-0.518798828125,0.579833984375
5.9699999,-1.1899182796478271,-4.434061527252197,8.832210540771484,-0.2288818359375,-1.3580322265625,-0.3662109375
5.989999900000001,-1.1851298809051514,-4.4292731285095215,8.829815864562988,-1.922607421875,-1.1749267578125,-0.030517578125
6.0099999,-1.1851298809051514,-4.426878929138184,8.820239067077637,-0.1678466796875,-0.762939453125,0.42724609375
6.029999900000001,-1.1851298809051514,-4.4292731285095215,8.827422142028809,1.4495849609375,-1.0986328125,0.0762939453125
6.0499999,-1.1851298809051514,-4.434061527252197,8.829815864562988,0.67138671875,-1.434326171875,-0.18310546875
6.069999900000001,-1.1803414821624756,-4.424484729766846,8.822632789611816,-0.7171630859375,-0.9002685546875,0.4730224609375
6.0899999000000005,-1.1851298809051514,-4.412513732910156,8.810662269592285,-0.518798828125,-0.9918212890625,0.335693359375
6.109999900000001,-1.1875240802764893,-4.412513732910156,8.813055992126465,-0.3509521484375,-0.5950927734375,0.701904296875
6.1299999000000005,-1.192312479019165,-4.412513732910156,8.813055992126465,-0.1373291015625,-1.190185546875,0.030517578125
6.149999900000001,-1.1899182796478271,-4.422090530395508,8.820239067077637,-0.6256103515625,-1.0833740234375,-0.06103515625
6.1699999000000005,-1.1875240802764893,-4.4292731285095215,8.820239067077637,-0.5645751953125,-1.52587890625,-0.274658203125
6.1899999,-1.1875240802764893,-4.438849925994873,8.827422142028809,-0.18310546875,-0.3662109375,0.6866455078125
6.209999900000001,-1.194706678390503,-4.441244125366211,8.827422142028809,0.396728515625,0.4425048828125,1.007080078125
6.2299999,-1.2066776752471924,-4.446032524108887,8.834604263305664,0.1220703125,-0.30517578125,0.457763671875
6.249999900000001,-1.2210428714752197,-4.448426723480225,8.841787338256836,0.06103515625,-0.946044921875,0.3662109375
6.2699999,-1.2306196689605713,-4.4508209228515625,8.83939266204834,1.15966796875,-0.701904296875,0.2899169921875
6.289999900000001,-1.2306196689605713,-4.446032524108887,8.832210540771484,1.2664794921875,-0.42724609375,0.091552734375
6.3099999,-1.216254472732544,-4.434061527252197,8.820239067077637,-0.0762939453125,-0.18310546875,0.1068115234375
6.329999900000001,-1.2042834758758545,-4.417302131652832,8.808267593383789,-1.251220703125,-0.8544921875,-0.244140625
6.3499999,-1.1994950771331787,-4.410119533538818,8.813055992126465,-0.4425048828125,-1.5411376953125,-0.2593994140625
6.369999900000001,-1.2018892765045166,-4.412513732910156,8.832210540771484,0.5950927734375,-0.1983642578125,1.03759765625
6.3899999,-1.213860273361206,-4.41969633102417,8.853757858276367,1.129150390625,-0.518798828125,1.0223388671875
6.409999900000001,-1.2425906658172607,-4.46518611907959,8.899248123168945,0.640869140625,-1.5411376953125,0.213623046875
6.4299999,-1.3072341680526733,-4.534617900848389,8.978256225585938,2.8533935546875,-1.9989013671875,-0.8392333984375
6.449999900000001,-1.4173674583435059,-4.642356872558594,9.114726066589355,7.720947265625,-1.8463134765625,0.244140625
6.4699999,-1.6376339197158813,-4.841075897216797,9.337387084960938,9.796142578125,-4.1656494140625,0.9918212890625
6.489999900000001,-2.006340980529785,-5.123591423034668,9.648633003234863,12.0086669921875,-10.2996826171875,2.532958984375
6.5099999,-2.5067291259765625,-5.5329999923706055,10.06043529510498,16.6778564453125,-23.1475830078125,2.50244140625
6.529999900000001,-3.066972494125366,-5.971138954162598,10.536881446838379,22.6287841796875,-36.041259765625,4.791259765625
6.5499999,-3.5170822143554688,-6.289567947387695,10.977415084838867,31.3262939453125,-36.9415283203125,19.7601318359375
6.569999900000001,-3.758896589279175,-6.406883716583252,11.410765647888184,35.09521484375,-34.7137451171875,32.0892333984375
6.5899999000000005,-3.7277719974517822,-6.414066314697266,11.887211799621582,30.4412841796875,-45.41015625,30.7464599609375
6.609999900000001,-3.450044631958008,-6.3949127197265625,12.445060729980469,33.8134765625,-60.2569580078125,27.923583984375
6.6299999000000005,-2.940079689025879,-6.404489517211914,13.053187370300293,61.1572265625,-68.4814453125,34.48486328125
6.649999900000001,-2.2577321529388428,-6.370970726013184,13.515268325805664,97.747802734375,-71.685791015625,42.449951171875
6.6699999000000005,-1.4844050407409668,-6.232107162475586,13.680468559265137,109.6343994140625,-67.3675537109375,46.661376953125
6.6899999,-0.7637503147125244,-5.91128396987915,13.402741432189941,116.5924072265625,-61.9659423828125,50.6439208984375
6.709999900000001,-0.3256114423274994,-5.485116004943848,12.780248641967773,119.62890625,-64.8651123046875,49.6978759765625
6.7299999,-0.2849099934101105,-5.073313236236572,11.93509578704834,112.4725341796875,-65.97900390625,52.1087646484375
6.749999900000001,-0.5985504388809204,-4.642356872558594,10.960655212402344,102.72216796875,-49.4384765625,75.714111328125
6.7699999,-1.1204863786697388,-4.323928356170654,9.950302124023438,89.3707275390625,-34.8968505859375,92.926025390625
6.789999900000001,-1.6663644313812256,-4.062960147857666,9.016563415527344,71.8994140625,-45.196533203125,79.9560546875
6.8099999,-2.054224967956543,-3.8570590019226074,8.111555099487305,91.705322265625,-78.3233642578125,66.8182373046875
6.829999900000001,-2.188300371170044,-3.648763418197632,7.299921035766602,128.8299560546875,-95.7489013671875,86.151123046875
6.8499999,-1.9632453918457031,-3.265691041946411,6.490680694580078,165.71044921875,-98.7548828125,126.7547607421875
6.869999900000001,-1.1755530834197998,-2.655169725418091,5.518634796142578,203.5675048828125,-98.480224609375,173.187255859375
6.8899999,0.49559974670410156,-1.742978811264038,4.326322555541992,214.29443359375,-96.7559814453125,209.8846435546875
6.909999900000001,3.1100680828094482,-0.45250412821769714,3.0095114707946777,180.389404296875,-89.996337890625,211.7767333984375
6.9299999,6.550535678863525,1.0319008827209473,1.6950948238372803,135.3759765625,-82.2906494140625,175.4913330078125
6.949999900000001,10.32858657836914,2.5713725090026855,0.6009446382522583,80.56640625,-89.5843505859375,118.3624267578125
6.9699999,13.73074722290039,4.017470359802246,-0.17956513166427612,17.2882080078125,-87.7227783203125,57.9376220703125
6.989999900000001,16.10579490661621,5.099649429321289,-0.7086837291717529,-35.7513427734375,-39.5355224609375,0.4730224609375
7.0099999,17.044321060180664,5.758055210113525,-0.9840168952941895,-78.3233642578125,18.9208984375,-60.8673095703125
7.029999900000001,16.306907653808594,5.889736175537109,-1.015141487121582,-107.7423095703125,81.085205078125,-124.603271484375
7.0499999,14.044386863708496,5.463568210601807,-0.7086837291717529,-132.2021484375,140.411376953125,-148.5748291015625
7.069999900000001,10.319009780883789,4.458003520965576,0.2825157940387726,-174.041748046875,183.9599609375,-138.24462890625
7.0899999000000005,4.78122091293335,2.4875755310058594,2.518700122833252,-233.6273193359375,201.59912109375,-160.2783203125
7.109999900000001,-2.7772738933563232,-1.1324573755264282,6.603208065032959,-272.857666015625,135.19287109375,-230.3009033203125
7.1299999000000005,-10.802638053894043,-5.717353820800781,12.00452709197998,-178.741455078125,-78.857421875,-240.78369140625
7.149999900000001,-17.549497604370117,-10.256759643554688,17.523162841796875,0.4119873046875,-274.5361328125,-93.5516357421875
7.1699999000000005,-20.791248321533203,-13.405135154724121,21.44486427307129,149.2767333984375,-271.1029052734375,95.2301025390625
7.1899999,-19.436128616333008,-13.991714477539062,22.656330108642578,272.6593017578125,-242.5079345703125,209.564208984375
7.209999900000001,-14.202404022216797,-12.533645629882812,20.95884132385254,220.64208984375,-103.94287109375,214.0350341796875
7.2299999,-7.067683219909668,-9.96945571899414,17.00840950012207,244.659423828125,-72.9522705078125,241.76025390625
7.249999900000001,0.9074024558067322,-7.158663272857666,11.930307388305664,242.889404296875,-86.7462158203125,286.5142822265625
7.2699999,8.456320762634277,-4.503493309020996,6.6127848625183105,202.81982421875,-26.7181396484375,270.5841064453125
7.289999900000001,15.150507926940918,-2.1332337856292725,1.656787633895874,195.8465576171875,16.78466796875,195.98388671875
7.3099999,20.499155044555664,0.043095629662275314,-2.185906171798706,150.6500244140625,-36.1785888671875,80.322265625
7.329999900000001,23.896526336669922,1.9393033981323242,-4.795586109161377,50.933837890625,-52.3681640625,-23.4527587890625
7.3499999,24.890121459960938,3.292027235031128,-6.04775333404541,-32.89794921875,-6.4697265625,-122.344970703125
7.369999900000001,23.427263259887695,3.9887399673461914,-5.975927352905273,-67.352294921875,46.08154296875,-180.1300048828125
7.3899999,20.003555297851562,3.912125587463379,-4.891354084014893,-72.8912353515625,103.2562255859375,-178.6651611328125
7.409999900000001,15.46175479888916,3.270479440689087,-3.203441858291626,-69.4427490234375,162.811279296875,-154.296875
7.4299999,10.54645824432373,2.406172752380371,-1.1875240802764893,-70.526123046875,223.57177734375,-129.0435791015625
7.449999900000001,5.403713226318359,1.5275006294250488,1.259350061416626,-64.2852783203125,295.6085205078125,-95.4437255859375
7.4699999,-0.524330198764801,0.524330198764801,4.438849925994873,-51.727294921875,379.6844482421875,-89.35546875
7.489999900000001,-7.9846625328063965,-0.871489405632019,8.482656478881836,-34.3780517578125,405.029296875,-146.6217041015625
7.5099999,-16.27817726135254,-2.255337953567505,12.555193901062012,52.1240234375,294.5556640625,-171.32568359375
7.529999900000001,-23.44402313232422,-3.0526070594787598,15.492878913879395,135.7421875,121.6278076171875,-5.2947998046875
7.5499999,-27.40403175354004,-3.0166940689086914,16.59421157836914,86.8988037109375,40.34423828125,206.97021484375
7.569999900000001,-26.72886848449707,-2.0183119773864746,15.749058723449707,10.9405517578125,6.805419921875,264.6942138671875
7.5899999000000005,-21.69146728515625,-0.9481038451194763,13.785813331604004,13.458251953125,-17.547607421875,242.0501708984375
7.609999900000001,-13.979743957519531,-0.3519476354122162,11.882423400878906,19.5770263671875,-70.0531005859375,231.781005859375
7.6299999000000005,-5.281609058380127,-0.2825157940387726,10.314221382141113,32.40966796875,-143.1732177734375,196.044921875
7.649999900000001,3.318363666534424,-0.40222588181495667,9.129091262817383,50.7354736328125,-187.957763671875,137.5885009765625
7.6699999000000005,10.893617630004883,-0.22026655077934265,8.010998725891113,52.9937744140625,-195.648193359375,81.878662109375
7.6899999,16.855180740356445,0.49559974670410156,6.584054470062256,40.4205322265625,-173.065185546875,32.6995849609375
7.709999900000001,20.60449981689453,1.6615760326385498,4.869806289672852,-1.5106201171875,-118.316650390625,-28.86962890625
7.7299999,21.842302322387695,3.0550012588500977,2.9927520751953125,-39.9322509765625,-56.1676025390625,-99.945068359375
7.749999900000001,20.64999008178711,4.311957359313965,1.381454348564148,-69.305419921875,14.617919921875,-147.186279296875
7.7699999,17.520767211914062,5.054159641265869,0.5003881454467773,-91.5679931640625,97.0458984375,-158.38623046875
7.789999900000001,13.287819862365723,5.102043628692627,0.5147533416748047,-91.796875,165.2679443359375,-155.1971435546875
7.8099999,8.588001251220703,4.4292731285095215,1.4437036514282227,-85.2203369140625,187.43896484375,-157.867431640625
7.829999900000001,4.132391929626465,3.287238836288452,3.0166940689086914,-76.7059326171875,185.4705810546875,-144.8516845703125
7.8499999,0.181959331035614,1.9967641830444336,4.7620673179626465,-51.3153076171875,190.97900390625,-115.4327392578125
7.869999900000001,-3.2848446369171143,0.8020575642585754,6.14831018447876,-42.694091796875,228.45458984375,-87.5091552734375
7.8899999,-6.01423454284668,-0.12449848651885986,7.103596210479736,-73.3489990234375,278.594970703125,-7.598876953125
7.909999900000001,-8.60236644744873,-0.9457096457481384,7.479485988616943,-82.061767578125,294.3267822265625,-12.939453125
7.9299999,-10.623072624206543,-1.4748282432556152,7.307103633880615,-34.60693359375,271.6522216796875,-41.107177734375
7.949999900000001,-12.483367919921875,-1.6160861253738403,6.596025466918945,3.7841796875,213.43994140625,-47.36328125
7.9699999,-13.836091995239258,-1.3455413579940796,5.284003257751465,9.613037109375,206.6497802734375,-42.2210693359375
7.989999900000001,-14.460978507995605,-0.5363011956214905,3.507505416870117,-7.32421875,258.2244873046875,-14.46533203125
8.0099999,-14.437036514282227,0.5171475410461426,1.501164436340332,-22.979736328125,244.20166015625,-47.30224609375
8.0299999,-13.627796173095703,1.5155296325683594,-0.3256114423274994,-51.544189453125,228.3935546875,-74.0966796875
8.049999900000001,-12.33253288269043,2.233790159225464,-1.8555063009262085,-79.1778564453125,273.1781005859375,-39.8101806640625
8.069999900000001,-10.970232009887695,2.580949544906616,-2.8874073028564453,-111.9842529296875,325.8819580078125,6.34765625
8.0899999,-10.055646896362305,2.5091233253479004,-3.507505416870117,-137.3138427734375,319.793701171875,3.4332275390625
8.1099999,-10.000580787658691,2.075772762298584,-3.9264907836914062,-126.3885498046875,286.9873046875,-32.989501953125
8.129999900000001,-10.917559623718262,1.2521674633026123,-4.1611223220825195,-132.75146484375,321.6400146484375,-19.378662109375
8.149999900000001,-12.713211059570312,0.1628057211637497,-4.474762916564941,-153.6712646484375,347.869873046875,0.2288818359375
8.1699999,-15.21275806427002,-1.256955862045288,-4.580107688903809,-180.8013916015625,340.6524658203125,-8.758544921875
8.1899999,-17.98524284362793,-2.9448680877685547,-4.10366153717041,-191.650390625,311.798095703125,-5.4168701171875
8.2099999,-20.872650146484375,-5.145139217376709,-3.2776620388031006,0.67138671875,353.69873046875,25.5889892578125
8.229999900000001,-23.45120620727539,-6.052541732788086,-0.9145850539207458,327.362060546875,384.1705322265625,7.1868896484375
8.2499999,-25.3905086517334,-6.993463039398193,1.5849615335464478,-37.4603271484375,113.7847900390625,17.1356201171875
8.2699999,-26.2021427154541,-6.497863292694092,4.730942726135254,-49.774169921875,-17.3797607421875,67.7947998046875
8.2899999,-25.711332321166992,-5.631162166595459,7.275979042053223,35.064697265625,-91.9342041015625,100.5401611328125
8.309999900000001,-23.925256729125977,-4.829104900360107,8.698134422302246,89.447021484375,-183.807373046875,121.5057373046875
8.3299999,-21.155166625976562,-4.072536945343018,8.571242332458496,175.10986328125,-287.841796875,122.650146484375
8.3499999,-17.537527084350586,-3.7852327823638916,7.575253963470459,235.0616455078125,-443.7408447265625,49.530029296875
8.3699999,-14.250288963317871,-3.201047658920288,5.099649429321289,213.348388671875,-500,8.5906982421875
8.389999900000001,-11.508927345275879,-3.203441858291626,2.875436305999756,270.355224609375,-500,72.3876953125
8.4099999,-10.192116737365723,-3.2106244564056396,0.44532153010368347,358.2916259765625,-490.3717041015625,90.2557373046875
8.4299999,-10.259154319763184,-3.5410242080688477,-1.5825673341751099,411.8194580078125,-476.62353515625,103.4088134765625
8.4499999,-11.259930610656738,-4.079719543457031,-3.3207578659057617,426.6204833984375,-444.9920654296875,139.5416259765625
8.469999900000001,-12.49055004119873,-4.378994941711426,-4.944026470184326,384.307861328125,-389.6331787109375,169.7540283203125
8.4899999,-13.168108940124512,-4.031835556030273,-6.5265936851501465,330.047607421875,-323.66943359375,194.732666015625
8.5099999,-12.564770698547363,-2.82515811920166,-7.910442352294922,278.3355712890625,-239.6087646484375,218.017578125
8.5299999,-10.33098030090332,-0.7038952708244324,-8.798690795898438,201.3397216796875,-135.9405517578125,222.83935546875
8.549999900000001,-6.581660270690918,2.0446481704711914,-9.026140213012695,116.7755126953125,-51.025390625,200.3936767578125
8.569999900000001,-1.778891921043396,5.054159641265869,-8.523358345031738,61.004638671875,13.1072998046875,168.15185546875
8.5899999,3.28963303565979,7.8960771560668945,-7.376535415649414,17.578125,59.051513671875,147.5677490234375
8.6099999,7.69735860824585,10.271124839782715,-5.803544998168945,-42.17529296875,53.5888671875,106.475830078125
8.629999900000001,10.855310440063477,11.801020622253418,-4.039018154144287,-112.4725341796875,48.6602783203125,26.3671875
8.649999900000001,12.267889976501465,12.476184844970703,-2.1715409755706787,-180.17578125,102.7984619140625,-59.295654296875
8.6699999,11.717223167419434,12.131420135498047,-0.4405331015586853,-219.4976806640625,159.2864990234375,-147.4456787109375
8.6899999,9.102754592895508,10.8720703125,1.0869675874710083,-231.475830078125,185.211181640625,-219.9859619140625
8.709999900000001,4.369418144226074,8.734047889709473,2.3319525718688965,-242.8131103515625,156.18896484375,-253.1890869140625
8.729999900000001,-2.7892448902130127,5.434837818145752,3.7397429943084717,-273.529052734375,47.7447509765625,-271.1944580078125
8.7499999,-12.040440559387207,0.828393816947937,5.473145008087158,-211.8682861328125,-2.105712890625,-260.6353759765625
8.7699999,-21.20065689086914,-4.041412353515625,7.6782050132751465,-66.8792724609375,-27.4810791015625,-98.358154296875
8.7899999,-27.63866424560547,-7.9415669441223145,9.478644371032715,26.67236328125,45.074462890625,111.6943359375
8.809999900000001,-29.446287155151367,-9.751583099365234,10.8720703125,53.6956787109375,97.3052978515625,178.375244140625
8.8299999,-25.912445068359375,-8.798690795898438,11.092336654663086,150.4669189453125,84.77783203125,174.0264892578125
8.8499999,-18.871097564697266,-5.913678169250488,10.627861022949219,196.5484619140625,18.7225341796875,186.2945556640625
8.8699999,-10.606313705444336,-2.1787235736846924,9.57201862335205,214.05029296875,-106.01806640625,203.9794921875
8.889999900000001,-2.7102363109588623,1.6352397203445435,8.061277389526367,236.663818359375,-127.0294189453125,229.0191650390625
8.9099999,4.017470359802246,5.0685248374938965,6.066906929016113,239.56298828125,-134.5062255859375,226.9744873046875
8.9299999,9.373299598693848,7.915230751037598,3.7277719974517822,191.3604736328125,-86.3037109375,198.1658935546875
8.9499999,13.15613842010498,10.072406768798828,1.2665326595306396,128.60107421875,-17.425537109375,106.9488525390625
8.969999900000001,15.306131362915039,11.439496040344238,-0.9097966551780701,62.5152587890625,3.2196044921875,-12.51220703125
8.9899999,15.796942710876465,11.868058204650879,-2.341529369354248,-20.1873779296875,28.6407470703125,-104.4921875
9.0099999,14.736311912536621,11.231200218200684,-2.9688100814819336,-38.909912109375,60.5316162109375,-177.6580810546875
9.0299999,12.430695533752441,9.854534149169922,-2.6623523235321045,-92.1478271484375,51.9561767578125,-252.50244140625
9.049999900000001,8.959102630615234,8.032546997070312,-2.0183119773864746,-146.1944580078125,44.4793701171875,-331.573486328125
9.069999900000001,4.309563159942627,6.186617374420166,-1.5418659448623657,-231.9793701171875,46.600341796875,-438.8580322265625
9.0899999,-1.137245774269104,3.5673606395721436,-1.7310078144073486,-389.9383544921875,-61.2945556640625,-500
9.1099999,-6.835445880889893,-0.7637503147125244,-2.9927520751953125,-500,-185.882568359375,-422.05810546875
9.129999900000001,-13.469779014587402,-7.503427982330322,-3.021482467651367,-465.9271240234375,-211.0748291015625,-345.3216552734375
9.149999900000001,-19.560626983642578,-14.401123046875,-2.3750481605529785,-428.009033203125,-185.1959228515625,-273.2086181640625
9.1699999,-24.339454650878906,-19.99158477783203,-0.31842881441116333,-251.251220703125,181.2591552734375,-31.6619873046875
9.1899999,-26.19017219543457,-21.911733627319336,2.3798365592956543,-8.5601806640625,499.9847412109375,160.064697265625
9.209999900000001,-24.255657196044922,-20.149600982666016,4.520252704620361,-157.5164794921875,499.9847412109375,76.629638671875
9.229999900000001,-19.780895233154297,-16.510414123535156,6.596025466918945,-368.682861328125,266.9830322265625,-156.1431884765625
9.2499999,-15.298949241638184,-13.017274856567383,8.767566680908203,-295.013427734375,82.82470703125,-192.657470703125
9.2699999,-12.368446350097656,-10.515334129333496,11.66694450378418,-263.00048828125,82.5042724609375,-61.065673828125
9.2899999,-11.48259162902832,-9.057265281677246,14.444218635559082,-217.5445556640625,45.5169677734375,42.78564453125
9.309999900000001,-11.674127578735352,-8.389283180236816,16.491260528564453,-76.1566162109375,-80.74951171875,118.2403564453125
9.3299999,-11.480196952819824,-7.577648162841797,17.14966583251953,9.063720703125,-166.50390625,189.0869140625
9.3499999,-10.47702693939209,-6.0597243309021,16.251840591430664,-16.90673828125,-212.127685546875,171.2646484375
9.3699999,-8.746018409729004,-3.6367924213409424,14.573505401611328,-2.99072265625,-247.650146484375,80.6732177734375
9.389999900000001,-6.658275127410889,-0.6033388376235962,12.878411293029785,149.2462158203125,-339.4622802734375,49.8199462890625
9.4099999,-4.819528102874756,2.140416383743286,11.350910186767578,370.086669921875,-438.812255859375,106.8115234375
9.4299999,-3.6774938106536865,3.8546648025512695,9.938331604003906,499.9847412109375,-454.4830322265625,119.903564453125
9.4499999,-2.786850690841675,4.082113742828369,7.38132381439209,499.9847412109375,-346.1761474609375,54.38232421875
9.469999900000001,-2.209848165512085,3.7229835987091064,3.995922565460205,391.510009765625,-225.1129150390625,-2.01416015625
9.4899999,-1.9991583824157715,3.6320040225982666,-0.31842881441116333,249.93896484375,-76.0040283203125,-9.8724365234375
9.5099999,-2.647987127304077,3.7421371936798096,-4.786009311676025,128.5247802734375,-88.287353515625,-61.1572265625
9.5299999,-4.2760443687438965,3.6990416049957275,-7.82185697555542,-128.631591796875,-78.91845703125,-148.3917236328125
9.549999900000001,-6.967126846313477,2.80361008644104,-9.150638580322266,-311.9049072265625,42.938232421875,-159.393310546875
9.569999900000001,-10.187328338623047,0.5099649429321289,-8.47547435760498,-371.795654296875,126.5716552734375,-178.3905029296875
9.5899999,-13.809755325317383,-3.3446998596191406,-6.184223175048828,-409.60693359375,181.3812255859375,-188.5528564453125
9.6099999,-17.223886489868164,-7.7883381843566895,-3.4524388313293457,-455.047607421875,335.5865478515625,-44.8760986328125
9.629999900000001,-19.529502868652344,-11.820174217224121,-1.0606313943862915,-477.2186279296875,445.0531005859375,119.62890625
9.649999900000001,-20.568586349487305,-14.585476875305176,0.6440402865409851,-477.4322509765625,360.7177734375,94.5587158203125
9.6699999,-19.886240005493164,-15.990873336791992,1.556231141090393,-472.320556640625,228.1341552734375,-37.3077392578125
9.6899999,-18.418594360351562,-16.81926727294922,2.959233283996582,-382.9803466796875,183.10546875,-100.494384765625
9.709999900000001,-16.881515502929688,-17.38429832458496,4.944026470184326,-110.4736328125,64.453125,-23.3917236328125
9.729999900000001,-15.413870811462402,-17.705121994018555,7.807491779327393,132.5531005859375,-186.82861328125,118.5302734375
9.7499999,-13.728352546691895,-16.857574462890625,10.99656867980957,206.6192626953125,-392.608642578125,114.532470703125
9.7699999,-11.523292541503906,-14.27423095703125,13.663708686828613,177.7191162109375,-375.152587890625,80.5206298828125
9.7899999,-8.597578048706055,-10.350133895874023,15.205574989318848,223.8922119140625,-300.689697265625,106.5216064453125
9.809999900000001,-5.57370138168335,-5.679046630859375,15.576676368713379,403.9154052734375,-329.16259765625,97.9156494140625
9.8299999,-2.719813108444214,-1.0558429956436157,14.535198211669922,499.9847412109375,-321.4263916015625,87.066650390625
9.8499999,-0.3280056416988373,2.920926094055176,11.927912712097168,499.9847412109375,-247.1771240234375,57.2662353515625
9.8699999,1.2761094570159912,6.004657745361328,7.841010570526123,463.68408203125,-125.79345703125,9.613037109375
9.889999900000001,2.1523873805999756,8.027758598327637,2.983175277709961,294.7540283203125,-10.986328125,-9.9334716796875
9.9099999,2.1787235736846924,9.157821655273438,-1.9991583824157715,183.9447021484375,30.242919921875,-14.7705078125
9.9299999,1.2186486721038818,9.299078941345215,-6.277596950531006,60.3790283203125,58.6700439453125,-77.056884765625
9.9499999,-0.849941611289978,8.26239013671875,-9.459490776062012,-117.00439453125,132.2021484375,-172.4853515625
9.969999900000001,-3.9384617805480957,5.628767967224121,-11.456254959106445,-309.5245361328125,205.4901123046875,-282.928466796875
9.9899999,-7.69735860824585,0.9600749015808105,-12.691662788391113,-466.400146484375,213.653564453125,-378.2958984375
10.0099999,-12.102689743041992,-5.985504150390625,-13.012486457824707,-500,200.3631591796875,-388.00048828125
10.0299999,-16.323667526245117,-14.010868072509766,-11.815385818481445,-500,205.810546875,-242.9962158203125
10.049999900000001,-18.9644718170166,-21.301212310791016,-8.044517517089844,-500,173.5382080078125,-46.783447265625
10.069999900000001,-20.676326751708984,-26.173412322998047,-2.3487119674682617,-189.7735595703125,32.04345703125,-44.097900390625
10.0899999,-20.128053665161133,-27.020959854125977,4.58968448638916,70.6024169921875,-105.52978515625,-27.4658203125
10.1099999,-17.9924259185791,-24.756046295166016,10.881647109985352,161.346435546875,-134.4146728515625,-9.6435546875
10.129999900000001,-15.114595413208008,-20.008342742919922,14.990097045898438,169.097900390625,-167.7703857421875,-41.4581298828125
10.149999900000001,-11.6430025100708,-14.45619010925293,17.269376754760742,161.92626953125,-197.0977783203125,-60.6231689453125
10.1699999,-8.525752067565918,-8.87291145324707,17.966089248657227,260.6201171875,-231.781005859375,-23.62060546875
10.1899999,-6.279991149902344,-3.9600095748901367,17.396268844604492,486.5570068359375,-332.1685791015625,35.5682373046875
10.209999900000001,-4.912901878356934,-0.21787235140800476,15.31570816040039,499.9847412109375,-298.6907958984375,107.2540283203125
10.229999900000001,-4.264073371887207,2.2577321529388428,11.370063781738281,499.9847412109375,-329.6356201171875,139.6484375
10.2499999,-3.7397429943084717,3.622427225112915,5.5114521980285645,499.9847412109375,-310.7757568359375,154.1290283203125
10.2699999,-3.399766445159912,4.548983097076416,-1.525106430053711,499.9847412109375,-173.52294921875,135.4827880859375
10.2899999,-2.8347349166870117,5.497087001800537,-8.164227485656738,236.7095947265625,10.650634765625,116.058349609375
10.309999900000001,-2.123656988143921,6.835445880889893,-12.842497825622559,-74.5391845703125,119.598388671875,94.1314697265625
10.3299999,-1.5059528350830078,8.1139497756958,-14.666879653930664,-291.07666015625,158.5540771484375,17.5933837890625
10.3499999,-1.1827356815338135,8.525752067565918,-13.809755325317383,-409.3017578125,158.172607421875,-92.5140380859375
10.3699999,-1.9847931861877441,6.947973251342773,-11.27190113067627,-486.663818359375,186.70654296875,-192.4285888671875
10.389999900000001,-4.4939165115356445,2.1739351749420166,-7.999027729034424,-500,214.1571044921875,-190.673828125
10.4099999,-8.549694061279297,-5.178658485412598,-4.7189717292785645,-500,234.1461181640625,-129.3182373046875
10.4299999,-13.160926818847656,-13.608642578125,-1.460463047027588,-500,177.9937744140625,-76.2176513671875
10.4499999,-16.752229690551758,-20.930110931396484,3.531447410583496,-385.2386474609375,68.0694580078125,-45.2117919921875
10.469999900000001,-19.01714324951172,-24.811111450195312,9.47146224975586,-189.27001953125,-86.36474609375,3.6773681640625
10.4899999,-18.672378540039062,-24.933216094970703,16.172832489013672,70.7550048828125,-160.064697265625,38.1011962890625
10.5099999,-16.721105575561523,-21.88539695739746,21.713014602661133,233.7799072265625,-141.6778564453125,92.742919921875
10.5299999,-13.144166946411133,-16.711528778076172,24.420856475830078,280.4107666015625,-138.2598876953125,153.5491943359375
10.549999900000001,-8.56884765625,-10.599130630493164,23.8247013092041,359.92431640625,-159.3170166015625,140.68603515625
10.569999900000001,-3.9671921730041504,-4.4292731285095215,20.377050399780273,499.9847412109375,-211.2884521484375,111.907958984375
10.5899999,-0.11252748221158981,0.8906430602073669,14.870387077331543,499.9847412109375,-297.576904296875,65.093994140625
10.6099999,2.22660756111145,4.865017890930176,8.085219383239746,499.9847412109375,-337.738037109375,29.632568359375
10.629999900000001,3.1004912853240967,7.259219646453857,0.8619126081466675,499.9847412109375,-209.136962890625,39.73388671875
10.649999900000001,2.7748796939849854,8.504204750061035,-5.717353820800781,266.2200927734375,-26.2298583984375,47.05810546875
10.6699999,1.867477297782898,9.057265281677246,-10.687716484069824,62.6678466796875,98.8311767578125,39.0777587890625
10.6899999,0.8068459630012512,9.344569206237793,-13.539210319519043,-83.984375,177.520751953125,5.7525634765625
10.709999900000001,-0.22266076505184174,9.387664794921875,-14.226346969604492,-198.089599609375,245.849609375,-46.630859375
10.729999900000001,-1.2186486721038818,9.009381294250488,-13.266271591186523,-288.3453369140625,308.502197265625,-93.597412109375
10.7499999,-2.5091233253479004,7.817068576812744,-11.372458457946777,-398.3306884765625,379.82177734375,-134.246826171875
10.7699999,-4.659116744995117,4.833893299102783,-9.244012832641602,-500,389.5263671875,-232.7423095703125
10.7899999,-8.276755332946777,-0.9289502501487732,-7.067683219909668,-500,321.441650390625,-339.0045166015625
10.809999900000001,-12.813767433166504,-8.094796180725098,-3.9193081855773926,-500,246.4141845703125,-298.614501953125
10.8299999,-17.1807918548584,-15.342044830322266,0.7398083209991455,-463.531494140625,181.2286376953125,-86.7767333984375
10.8499999,-20.53506851196289,-20.013132095336914,6.971915245056152,-172.393798828125,21.05712890625,53.4820556640625
10.8699999,-21.152772903442383,-20.915746688842773,14.034810066223145,100.0213623046875,-154.0679931640625,33.26416015625
10.889999900000001,-19.57978057861328,-18.322826385498047,20.0538330078125,217.193603515625,-205.5816650390625,-13.946533203125
10.9099999,-16.22071647644043,-13.769054412841797,23.535001754760742,271.66748046875,-225.0213623046875,-50.4150390625
10.9299999,-12.018892288208008,-8.487444877624512,23.822307586669922,284.637451171875,-192.5048828125,-23.7884521484375
10.9499999,-7.908048152923584,-3.3423056602478027,21.112070083618164,295.2728271484375,-172.088623046875,5.79833984375
10.969999900000001,-4.563348293304443,0.8930372595787048,16.352397918701172,296.69189453125,-196.685791015625,29.693603515625
10.9899999,-2.518700122833252,4.173093795776367,10.347740173339844,365.1275634765625,-193.1304931640625,30.57861328125
11.0099999,-1.6879122257232666,6.294356346130371,4.4532151222229,389.3280029296875,-194.5343017578125,17.974853515625
11.0299999,-1.9105730056762695,7.7428483963012695,-0.7350199222564697,300.5218505859375,-123.9013671875,33.87451171875
11.049999900000001,-2.7509377002716064,8.719682693481445,-4.553771495819092,152.8167724609375,9.7198486328125,76.0498046875
11.069999900000001,-3.533841609954834,9.509769439697266,-6.629544734954834,18.61572265625,99.6856689453125,106.26220703125
11.0899999,-4.129997730255127,10.127472877502441,-7.129932880401611,-75.1800537109375,145.0653076171875,98.7396240234375
11.1099999,-4.608838081359863,10.474632263183594,-6.473921298980713,-147.491455078125,185.97412109375,47.8363037109375
11.129999900000001,-5.183446884155273,10.244789123535156,-5.406107425689697,-201.507568359375,232.5592041015625,-4.8675537109375
11.149999900000001,-6.090848922729492,9.229647636413574,-4.563348293304443,-271.0418701171875,271.148681640625,-54.168701171875
11.1699999,-7.204153060913086,7.261613845825195,-4.247313976287842,-383.758544921875,266.8609619140625,-91.3238525390625
11.1899999,-8.614337921142578,4.060565948486328,-4.683058738708496,-500,246.4599609375,-79.071044921875
11.209999900000001,-10.457873344421387,-1.0031704902648926,-5.027823448181152,-500,216.949462890625,-54.9774169921875
11.229999900000001,-12.303802490234375,-6.933608055114746,-4.067748546600342,-487.0147705078125,246.2158203125,-56.2896728515625
11.2499999,-13.998897552490234,-12.54801082611084,-1.1803414821624756,-414.1693115234375,271.484375,-73.2574462890625
11.2699999,-14.939818382263184,-16.682798385620117,3.5458126068115234,-307.7239990234375,140.6707763671875,-39.4134521484375
11.2899999,-14.82968521118164,-18.215085983276367,8.944737434387207,-105.52978515625,3.021240234375,19.6380615234375
11.309999900000001,-13.855245590209961,-17.520767211914062,13.412318229675293,-36.7431640625,-60.8673095703125,-1.373291015625
11.3299999,-12.382811546325684,-15.442601203918457,15.804125785827637,-13.36669921875,-98.388671875,-7.9498291015625
11.3499999,-10.714052200317383,-12.648567199707031,16.079458236694336,60.546875,-121.4752197265625,39.947509765625
11.3699999,-8.83699893951416,-9.44752025604248,14.626177787780762,110.595703125,-148.5137939453125,68.2373046875
11.389999900000001,-7.261613845825195,-6.282385349273682,12.38759994506836,144.287109375,-174.591064453125,54.26025390625
11.4099999,-5.762843608856201,-3.1699230670928955,10.127472877502441,213.31787109375,-193.84765625,75.6378173828125
11.4299999,-4.728548526763916,-0.33039984107017517,8.458714485168457,327.63671875,-200.6072998046875,67.7642822265625
11.4499999,-4.019864559173584,2.1811177730560303,7.232883453369141,432.6324462890625,-163.8336181640625,57.769775390625
11.469999900000001,-3.6942532062530518,4.213795185089111,5.846640586853027,499.9847412109375,-132.1868896484375,81.4361572265625
11.4899999,-3.4572272300720215,5.796362400054932,3.7421371936798096,463.68408203125,-97.9766845703125,115.234375
11.5099999,-3.3686418533325195,7.062894821166992,0.8954314589500427,296.1883544921875,14.8162841796875,122.894287109375
11.5299999,-3.287238836288452,8.142680168151855,-2.3367409706115723,109.2071533203125,120.269775390625,92.529296875
11.549999900000001,-3.4356794357299805,8.990227699279785,-5.360617637634277,-9.8419189453125,163.5894775390625,37.872314453125
11.569999900000001,-4.290409564971924,9.215282440185547,-7.465120792388916,-111.7401123046875,193.6492919921875,-36.07177734375
11.5899999,-5.9088897705078125,8.396465301513672,-8.62391471862793,-223.419189453125,247.6806640625,-73.1201171875
11.6099999,-8.374917984008789,6.325480937957764,-8.846575736999512,-326.5838623046875,297.36328125,-149.0936279296875
11.629999900000001,-11.599906921386719,3.1938650608062744,-8.195352554321289,-413.299560546875,289.2608642578125,-242.828369140625
11.649999900000001,-14.832079887390137,-1.5275006294250488,-7.007828235626221,-469.5281982421875,208.8775634765625,-331.1614990234375
11.6699999,-17.81525421142578,-6.653486728668213,-4.594472885131836,-457.5347900390625,178.3905029296875,-258.0718994140625
11.6899999,-19.364303588867188,-11.367670059204102,-0.9074024558067322,-399.749755859375,158.0047607421875,-91.9952392578125
11.709999900000001,-19.594146728515625,-14.76264762878418,3.4356794357299805,-223.6175537109375,92.34619140625,-33.477783203125
11.729999900000001,-17.98045539855957,-15.907075881958008,7.675810813903809,-42.327880859375,72.08251953125,-79.5135498046875
11.7499999,-15.399505615234375,-15.229516983032227,10.378864288330078,47.8057861328125,46.1578369140625,-126.03759765625
11.7699999,-12.320562362670898,-13.623007774353027,11.1474027633667,48.828125,-13.0767822265625,-149.96337890625
11.7899999,-9.478644371032715,-11.559206008911133,10.450690269470215,21.270751953125,-70.86181640625,-126.922607421875
11.809999900000001,-7.249642848968506,-9.315838813781738,9.186552047729492,-6.28662109375,-99.06005859375,-73.18115234375
11.8299999,-5.652710437774658,-6.7923502922058105,8.066065788269043,11.9171142578125,-139.7857666015625,-32.867431640625
11.8499999,-4.790797710418701,-4.199429988861084,7.532158374786377,61.21826171875,-166.7022705078125,-66.5130615234375
11.8699999,-4.347870349884033,-1.5682021379470825,7.615955829620361,115.386962890625,-170.2728271484375,-55.0689697265625
11.889999900000001,-4.153939723968506,0.7829039692878723,8.26239013671875,230.40771484375,-224.7161865234375,-18.2647705078125
11.9099999,-4.395754337310791,2.7485435009002686,9.038111686706543,296.539306640625,-234.31396484375,-6.6986083984375
11.9299999,-4.730942726135254,4.3191399574279785,9.919178009033203,291.595458984375,-129.0130615234375,1.922607421875
11.9499999,-5.1595048904418945,5.56173038482666,9.828198432922363,367.73681640625,-8.514404296875,46.38671875
11.969999900000001,-5.765237808227539,6.251260757446289,8.480262756347656,499.9847412109375,-52.093505859375,55.023193359375
11.9899999,-6.246472358703613,6.315904140472412,5.370194435119629,469.8333740234375,-61.46240234375,46.81396484375
12.0099999,-7.156269073486328,5.781997203826904,0.811634361743927,255.7220458984375,33.0352783203125,26.702880859375
12.0299999,-8.334216117858887,4.67827033996582,-3.825934410095215,-7.26318359375,124.20654296875,-6.988525390625
12.049999900000001,-10.06043529510498,3.19865345954895,-7.249642848968506,-230.4229736328125,151.30615234375,-46.1578369140625
12.069999900000001,-12.0021333694458,1.194706678390503,-8.78432559967041,-343.6737060546875,139.0380859375,-138.0157470703125
12.0899999,-13.66610336303711,-1.3120225667953491,-8.508993148803711,-398.98681640625,129.39453125,-180.2978515625
12.1099999,-14.990097045898438,-5.231330871582031,-7.240066051483154,-487.8082275390625,114.105224609375,-188.3392333984375
12.129999900000001,-16.012420654296875,-10.086771965026855,-5.331887245178223,-500,72.4334716796875,-189.6820068359375
12.149999900000001,-16.687585830688477,-15.389928817749023,-2.8179752826690674,-451.7364501953125,108.306884765625,-107.7423095703125
12.1699999,-16.27338981628418,-19.20149803161621,0.5003881454467773,-244.81201171875,225.4486083984375,111.14501953125
12.1899999,-14.79616641998291,-21.126436233520508,4.426878929138184,-149.993896484375,91.339111328125,111.4044189453125
12.209999900000001,-12.143390655517578,-20.331560134887695,8.159439086914062,-92.46826171875,-15.0604248046875,-38.87939453125
12.229999900000001,-8.925583839416504,-17.808073043823242,10.972626686096191,73.5321044921875,11.8560791015625,-52.5054931640625
12.2499999,-6.275202751159668,-14.571111679077148,12.255918502807617,175.1251220703125,-17.8070068359375,-35.2630615234375
12.2699999,-4.733336925506592,-11.224017143249512,11.97100830078125,251.64794921875,-44.586181640625,-61.492919921875
12.289999900000002,-4.378994941711426,-8.310274124145508,10.007762908935547,262.8021240234375,-15.80810546875,-103.668212890625
12.309999900000001,-4.809951305389404,-6.098031520843506,7.728483200073242,136.4898681640625,-62.8509521484375,-193.6798095703125
12.3299999,-5.803544998168945,-4.910507678985596,5.310339450836182,126.4495849609375,-133.97216796875,-256.4849853515625
12.3499999,-7.122750282287598,-4.642356872558594,3.4141316413879395,238.494873046875,-169.342041015625,-189.117431640625
12.3699999,-7.996633529663086,-5.195417881011963,2.829946517944336,226.0589599609375,-162.6434326171875,-171.3409423828125
12.389999900000001,-8.796297073364258,-6.5265936851501465,3.1723172664642334,241.0888671875,-161.92626953125,-190.826416015625
12.4099999,-9.188945770263672,-8.015787124633789,3.507505416870117,367.767333984375,-151.0009765625,-91.2933349609375
12.4299999,-9.816226959228516,-10.36449909210205,5.281609058380127,328.6285400390625,-189.178466796875,-36.62109375
12.4499999,-10.529699325561523,-11.707646369934082,5.116408824920654,294.677734375,-325.714111328125,-247.6043701171875
12.469999900000001,-11.30063247680664,-12.083536148071289,4.41969633102417,146.9879150390625,-330.322265625,-383.97216796875
12.4899999,-10.319009780883789,-8.47547435760498,3.84269380569458,-203.1097412109375,-216.9036865234375,-500
12.5099999,-8.62630844116211,-5.238513469696045,2.940079689025879,-120.4833984375,-125.335693359375,-335.87646484375
12.5299999,-5.559336185455322,-0.3423708379268646,3.6080620288848877,-146.2554931640625,-212.310791015625,-239.654541015625
12.549999900000001,-2.559401512145996,1.7980455160140991,4.76924991607666,-148.1781005859375,-159.5458984375,-250.5035400390625
12.569999900000001,-0.8044517636299133,1.2449848651885986,5.858611583709717,-8.9874267578125,-93.0633544921875,-184.417724609375
12.5899999,0.1364694982767105,-0.42616790533065796,6.852205276489258,-162.811279296875,-83.465576171875,-200.6683349609375
12.6099999,0.038307227194309235,-2.6144683361053467,8.360552787780762,-189.9261474609375,-74.6002197265625,-339.3402099609375
12.629999900000001,-0.6775590777397156,-3.885789394378662,10.618284225463867,-155.181884765625,-126.5869140625,-386.6729736328125
12.649999900000001,-1.3503297567367554,-4.0294413566589355,12.641385078430176,-147.4456787109375,-227.11181640625,-338.9739990234375
12.6699999,-1.2689268589019775,-3.3710360527038574,13.412318229675293,-56.6864013671875,-308.04443359375,-285.675048828125
12.6899999,-1.7190368175506592,-3.5027170181274414,12.938265800476074,-38.4674072265625,-350.128173828125,-239.2425537109375
12.709999900000001,-1.036689281463623,-4.050989151000977,10.340557098388672,-176.3153076171875,-387.786865234375,-316.2994384765625
12.729999900000001,-0.20111294090747833,-5.2911858558654785,8.001421928405762,-195.587158203125,-415.71044921875,-339.385986328125
12.7499999,0.0071826050989329815,-6.035782337188721,5.413290023803711,-50.6439208984375,-414.6881103515625,-265.7623291015625
12.7699999,0.6943184733390808,-6.979097843170166,3.203441858291626,-29.5867919921875,-385.0555419921875,-203.0487060546875
12.789999900000002,-0.1364694982767105,-6.430825710296631,1.8531121015548706,-101.62353515625,-300.4150390625,-263.4735107421875
12.809999900000001,-1.0606313943862915,-5.341464042663574,-1.3958195447921753,150.4058837890625,-397.1710205078125,-328.277587890625
12.8299999,-0.7565677165985107,-2.894589900970459,-4.225766181945801,119.07958984375,-330.108642578125,-357.208251953125
12.8499999,-0.6224924325942993,0.9361328482627869,-9.016563415527344,127.3651123046875,-269.4549560546875,-320.9686279296875
12.8699999,1.3479355573654175,6.189011573791504,-14.67406177520752,58.837890625,-178.2379150390625,-297.7294921875
12.889999900000001,3.1699230670928955,11.729193687438965,-19.950881958007812,64.5751953125,-0.9765625,-241.9891357421875
12.9099999,5.568912982940674,18.057069778442383,-23.70499038696289,36.163330078125,153.3660888671875,-145.0653076171875
12.9299999,8.458714485168457,23.116018295288086,-24.66267204284668,-99.79248046875,122.1160888671875,69.3206787109375
12.9499999,11.293449401855469,25.63471794128418,-22.54380226135254,-67.68798828125,134.82666015625,202.789306640625
12.969999900000001,12.878411293029785,24.825477600097656,-18.555063247680664,-13.5498046875,193.17626953125,257.4310302734375
12.9899999,12.883199691772461,20.812795639038086,-14.09466552734375,9.674072265625,236.1602783203125,282.2265625
13.0099999,11.142614364624023,14.877569198608398,-10.321403503417969,7.2174072265625,252.8533935546875,321.563720703125
13.0299999,8.130708694458008,8.542511940002441,-7.383718013763428,-21.6064453125,263.153076171875,384.796142578125
13.049999900000001,4.347870349884033,2.940079689025879,-4.7405195236206055,-1.40380859375,285.6292724609375,388.458251953125
13.069999900000001,0.5051765441894531,-1.3287819623947144,-2.1164743900299072,21.514892578125,282.684326171875,372.802734375
13.0899999,-3.2417490482330322,-4.266467571258545,0.7182605266571045,12.1612548828125,252.7923583984375,318.115234375
13.1099999,-6.3063273429870605,-6.36378812789917,3.5625722408294678,-47.7447509765625,294.6319580078125,246.3836669921875
13.129999900000001,-8.719682693481445,-8.461109161376953,5.74129581451416,-124.9237060546875,295.135498046875,149.96337890625
13.149999900000001,-10.156203269958496,-11.731588363647461,7.553706169128418,-111.81640625,314.1632080078125,35.552978515625
13.1699999,-10.390835762023926,-15.76581859588623,8.60236644744873,-111.02294921875,296.2646484375,-25.1922607421875
13.1899999,-9.516951560974121,-19.412187576293945,9.643844604492188,-128.6468505859375,215.39306640625,-227.996826171875
13.209999900000001,-7.63989782333374,-21.104888916015625,10.819397926330566,-6.8206787109375,80.7647705078125,-440.36865234375
13.229999900000001,-5.243301868438721,-19.230228424072266,11.511322021484375,124.7406005859375,-100.5096435546875,-500
13.2499999,-2.3511061668395996,-13.03403377532959,10.558429718017578,232.574462890625,-276.458740234375,-489.6697998046875
13.2699999,1.4963760375976562,-3.488351821899414,7.723694801330566,282.318115234375,-229.6142578125,-284.7442626953125
13.289999900000002,6.672640323638916,8.391676902770996,2.3702597618103027,211.0137939453125,-144.0582275390625,-248.6419677734375
13.309999900000001,13.086706161499023,19.337966918945312,-3.004723072052002,220.5047607421875,-79.742431640625,-221.00830078125
13.3299999,18.392257690429688,26.115951538085938,-6.907271862030029,151.336669921875,-37.7197265625,44.3267822265625
13.3499999,21.590911865234375,27.485435485839844,-8.334216117858887,108.82568359375,15.56396484375,151.7791748046875
13.3699999,21.39458656311035,23.63316535949707,-6.962338447570801,192.1539306640625,49.9725341796875,105.1483154296875
13.389999900000001,18.461688995361328,17.152061462402344,-4.2329487800598145,242.523193359375,18.2647705078125,109.4512939453125
13.4099999,14.377181053161621,10.876858711242676,-1.094150185585022,231.3690185546875,16.937255859375,129.852294921875
13.4299999,10.232817649841309,6.473921298980713,1.9608511924743652,140.7318115234375,68.2373046875,145.99609375
13.4499999,6.461950302124023,4.477157115936279,4.855441093444824,99.9908447265625,149.7344970703125,167.1905517578125
13.469999900000001,3.557783842086792,4.6471452713012695,7.82185697555542,129.8370361328125,111.663818359375,188.5986328125
13.4899999,1.4844050407409668,6.308721542358398,10.515334129333496,58.349609375,-15.045166015625,236.14501953125
13.5099999,-0.05506663769483566,7.999027729034424,12.600683212280273,-36.80419921875,-58.28857421875,320.2972412109375
13.5299999,-1.3886369466781616,8.78193187713623,13.529633522033691,-107.8033447265625,-63.629150390625,366.5618896484375
13.549999900000001,-2.9472622871398926,7.802703380584717,12.911930084228516,-111.175537109375,-99.4720458984375,416.0614013671875
13.569999900000001,-5.307945251464844,4.920084476470947,11.152191162109375,-111.3128662109375,-202.117919921875,499.9847412109375
13.5899999,-8.346187591552734,0.2585737705230713,8.465897560119629,-201.2176513671875,-326.4007568359375,499.9847412109375
13.6099999,-11.523292541503906,-6.215347766876221,4.2090067863464355,-398.468017578125,-340.6982421875,452.850341796875
13.629999900000001,-14.238317489624023,-13.82172679901123,-2.0877439975738525,-497.8485107421875,-261.5814208984375,221.8475341796875
13.649999900000001,-15.528792381286621,-21.19347381591797,-10.417171478271484,-369.6136474609375,-116.241455078125,-10.6658935546875
13.6699999,-14.556746482849121,-25.610774993896484,-19.86469078063965,-218.5516357421875,167.5262451171875,-225.5706787109375
13.6899999,-11.604695320129395,-25.893291473388672,-27.365724563598633,-166.168212890625,268.73779296875,-434.5245361328125
13.709999900000001,-6.715735912322998,-20.791248321533203,-31.215600967407227,-123.53515625,436.2640380859375,-500
13.729999900000001,-0.6153098344802856,-11.72201156616211,-29.597122192382812,-10.8184814453125,497.5128173828125,-500
13.7499999,5.568912982940674,-1.338358759880066,-23.860614776611328,115.0360107421875,362.1063232421875,-346.5118408203125
13.7699999,11.243170738220215,8.307879447937012,-16.007633209228516,69.122314453125,284.1644287109375,-133.026123046875
13.789999900000002,15.021221160888672,14.968548774719238,-8.465897560119629,56.915283203125,339.2486572265625,-56.488037109375
13.809999900000001,16.393098831176758,17.764976501464844,-2.5713725090026855,58.746337890625,382.3394775390625,-47.2564697265625
13.8299999,15.346833229064941,17.350780487060547,1.8124107122421265,49.835205078125,360.16845703125,-110.198974609375
13.8499999,12.72757625579834,14.81771469116211,5.446808815002441,45.3948974609375,271.820068359375,-84.320068359375
13.8699999,9.251194953918457,11.310209274291992,8.214506149291992,-33.8287353515625,93.7347412109375,34.027099609375
13.889999900000001,6.004657745361328,7.723694801330566,10.225635528564453,-86.822509765625,36.9110107421875,135.1318359375
13.9099999,3.2082302570343018,4.268861770629883,11.006145477294922,-87.6922607421875,92.71240234375,188.8885498046875
13.9299999,0.7422025203704834,0.9983820915222168,10.781089782714844,-50.750732421875,133.4075927734375,208.099365234375
13.9499999,-1.4915876388549805,-2.0590133666992188,10.27591323852539,8.4228515625,147.52197265625,200.1953125
13.969999900000001,-3.514688014984131,-4.886565685272217,10.139444351196289,29.7393798828125,122.8485107421875,166.900634765625
13.9899999,-5.018246650695801,-7.484274387359619,10.66137981414795,11.8560791015625,70.6024169921875,82.6873779296875
14.0099999,-5.710171222686768,-9.66299819946289,11.372458457946777,-38.818359375,-31.6314697265625,-21.820068359375
14.0299999,-5.212177276611328,-11.12106704711914,11.508927345275879,-39.947509765625,-134.063720703125,-96.8475341796875
14.049999900000001,-3.4308910369873047,-11.559206008911133,10.20887565612793,54.01611328125,-163.02490234375,-136.810302734375
14.069999900000001,-0.23942017555236816,-10.654197692871094,7.1251444816589355,44.7540283203125,-173.797607421875,-208.2061767578125
14.0899999,4.54419469833374,-6.962338447570801,1.314416766166687,-3.2196044921875,-353.94287109375,-356.4910888671875
14.1099999,10.417171478271484,-1.4508862495422363,-4.699818134307861,56.2896728515625,-271.2860107421875,-425.78125
14.129999900000001,16.22311019897461,5.430049419403076,-10.484209060668945,101.2420654296875,-44.6929931640625,-279.23583984375
14.149999900000001,20.616470336914062,11.884817123413086,-13.603854179382324,-4.5623779296875,119.9798583984375,-35.247802734375
14.1699999,22.033838272094727,15.744270324707031,-13.117831230163574,-60.11962890625,184.478759765625,84.5184326171875
14.1899999,20.48000144958496,16.57984733581543,-9.619902610778809,36.3311767578125,127.5787353515625,101.0894775390625
14.209999900000001,16.496049880981445,14.745888710021973,-4.2975921630859375,96.1456298828125,80.1849365234375,113.922119140625
14.229999900000001,11.647790908813477,11.298237800598145,1.3311761617660522,55.267333984375,68.5577392578125,152.7862548828125
14.2499999,6.8162922859191895,7.127538681030273,5.963956356048584,1.4190673828125,-13.6260986328125,190.73486328125
14.2699999,2.8419175148010254,3.141192674636841,9.141061782836914,-63.9801025390625,-106.1248779296875,227.691650390625
14.289999900000002,0.0694318488240242,-0.6392518281936646,11.058817863464355,-111.38916015625,-183.77685546875,228.7445068359375
14.309999900000001,-1.5753847360610962,-3.9887399673461914,12.263101577758789,-45.867919921875,-207.09228515625,156.036376953125
14.3299999,-2.3343467712402344,-6.854599475860596,12.957419395446777,-6.1492919921875,-230.5755615234375,58.1207275390625
14.3499999,-2.2816741466522217,-8.863334655761719,12.627019882202148,46.7529296875,-222.991943359375,-41.1376953125
14.3699999,-1.6041151285171509,-9.677363395690918,10.599130630493164,28.3050537109375,-204.4525146484375,-110.53466796875
14.389999900000001,0.004788403399288654,-8.643068313598633,5.894524574279785,-160.125732421875,-278.25927734375,-154.47998046875
14.4099999,3.490746021270752,-5.446808815002441,-1.7262194156646729,-249.3438720703125,-309.1888427734375,-215.9423828125
14.4299999,8.494627952575684,-0.5626373887062073,-10.675745010375977,-92.0867919921875,-204.803466796875,-199.554443359375
14.4499999,13.891158103942871,4.924872875213623,-18.428171157836914,103.6376953125,-9.2926025390625,-37.2467041015625
14.469999900000001,18.380287170410156,9.224859237670898,-22.570138931274414,211.6851806640625,115.4327392578125,82.977294921875
14.4899999,20.41775131225586,11.307814598083496,-21.966800689697266,239.3798828125,209.1522216796875,138.8397216796875
14.5099999,19.823989868164062,10.740388870239258,-17.51119041442871,148.284912109375,252.899169921875,225.6622314453125
14.5299999,17.38429832458496,8.583212852478027,-11.367670059204102,62.3321533203125,215.4388427734375,242.828369140625
14.549999900000001,13.93664836883545,5.590460777282715,-5.178658485412598,74.951171875,162.811279296875,238.7237548828125
14.569999900000001,10.091560363769531,2.765302896499634,0.2753331959247589,90.545654296875,121.002197265625,184.0667724609375
14.5899999,6.390124320983887,0.3423708379268646,5.094861030578613,54.351806640625,115.7073974609375,97.2747802734375
14.6099999,3.2824504375457764,-1.3335703611373901,8.973467826843262,4.486083984375,106.99462890625,14.007568359375
14.629999900000001,0.768538773059845,-2.557007312774658,11.932701110839844,21.575927734375,32.1044921875,-16.41845703125
14.649999900000001,-0.8331822156906128,-3.557783842086792,13.673285484313965,74.2034912109375,-66.10107421875,42.144775390625
14.6699999,-2.1284453868865967,-4.6471452713012695,13.931859970092773,47.05810546875,-134.0789794921875,143.2647705078125
14.6899999,-3.179499864578247,-6.246472358703613,12.777854919433594,-30.3802490234375,-166.7938232421875,154.754638671875
14.709999900000001,-3.995922565460205,-8.123526573181152,9.979032516479492,-100.341796875,-201.8890380859375,93.4600830078125
14.729999900000001,-4.434061527252197,-10.034099578857422,5.307945251464844,-146.30126953125,-308.7615966796875,1.6632080078125
14.7499999,-3.5434184074401855,-11.044452667236328,-1.647210717201233,-158.99658203125,-419.0673828125,-124.481201171875
14.7699999,-0.2992752194404602,-9.916783332824707,-10.340557098388672,-106.3995361328125,-387.5274658203125,-278.80859375
14.789999900000002,5.109226226806641,-6.524199485778809,-18.83039665222168,54.290771484375,-192.56591796875,-257.5225830078125
14.809999900000001,11.587936401367188,-1.4772224426269531,-25.067291259765625,137.3291015625,10.1470947265625,-86.5478515625
14.8299999,17.475278854370117,3.7900211811065674,-27.030536651611328,73.8677978515625,177.154541015625,-30.94482421875
14.8499999,20.875043869018555,7.556100368499756,-24.42325210571289,18.341064453125,293.1976318359375,-13.9007568359375
14.8699999,21.042638778686523,9.222464561462402,-18.320430755615234,35.125732421875,318.0084228515625,38.116455078125
14.889999900000001,18.63646697998047,8.971074104309082,-10.498574256896973,77.7130126953125,262.5579833984375,90.4998779296875
14.9099999,14.621389389038086,7.422025203704834,-2.765302896499634,24.383544921875,178.5888671875,121.917724609375
14.9299999,9.945513725280762,4.991910457611084,3.756502389907837,-81.8634033203125,130.3558349609375,127.9296875
14.9499999,5.592854976654053,2.252943754196167,8.487444877624512,-162.4908447265625,133.48388671875,97.0001220703125
14.969999900000001,2.0805611610412598,-0.5386953949928284,11.113883972167969,-255.889892578125,127.86865234375,60.4400634765625
14.9899999,-0.569819986820221,-3.098097085952759,12.11705493927002,-294.4488525390625,82.82470703125,38.9251708984375
15.0099999,-2.3271639347076416,-5.458779811859131,11.839327812194824,-218.32275390625,-15.869140625,37.6739501953125
15.0299999,-3.5051112174987793,-7.620744228363037,10.575188636779785,-134.063720703125,-121.8109130859375,56.1676025390625
15.049999900000001,-4.113238334655762,-9.639056205749512,8.638279914855957,-102.996826171875,-214.019775390625,40.2679443359375
15.069999900000001,-4.129997730255127,-11.192893028259277,5.985504150390625,-77.81982421875,-298.9349365234375,-41.9769287109375
15.0899999,-3.0190882682800293,-11.528080940246582,2.1763293743133545,-29.5562744140625,-422.4395751953125,-99.67041015625
15.1099999,-0.35434186458587646,-10.113107681274414,-2.940079689025879,50.2471923828125,-495.30029296875,-70.25146484375
15.129999900000001,3.0837318897247314,-7.955932140350342,-9.32541561126709,29.937744140625,-409.9273681640625,55.2520751953125
15.149999900000001,6.916848659515381,-5.669469833374023,-16.10340118408203,-95.21484375,-240.7379150390625,99.1668701171875
15.1699999,9.639056205749512,-4.323928356170654,-21.483171463012695,-87.158203125,-56.2591552734375,43.609619140625
15.1899999,10.76193618774414,-4.213795185089111,-24.068910598754883,35.1715087890625,69.8394775390625,3.23486328125
15.209999900000001,10.278307914733887,-4.548983097076416,-23.156719207763672,76.568603515625,88.31787109375,1.129150390625
15.229999900000001,8.734047889709473,-4.898536682128906,-19.292476654052734,47.91259765625,56.9610595703125,17.51708984375
15.2499999,6.75883150100708,-5.102043628692627,-14.077905654907227,2.4871826171875,46.0662841796875,19.3328857421875
15.2699999,4.934449672698975,-5.003881454467773,-9.124302864074707,24.1851806640625,33.3099365234375,18.5089111328125
15.289999900000002,3.4739866256713867,-4.824316501617432,-5.592854976654053,52.734375,-0.9765625,52.581787109375
15.309999900000001,2.4827871322631836,-4.797980308532715,-3.957615375518799,21.820068359375,-8.3770751953125,72.44873046875
15.3299999,1.9177556037902832,-5.063736438751221,-4.223371982574463,9.613037109375,-22.3236083984375,48.1109619140625
15.3499999,2.5977089405059814,-5.279214859008789,-5.590460777282715,78.18603515625,-57.525634765625,-1.9073486328125
15.3699999,4.352658748626709,-4.259284973144531,-7.936778545379639,259.9639892578125,-70.2667236328125,-92.041015625
15.389999900000001,7.053318023681641,-3.7205893993377686,-10.78348445892334,132.9345703125,-45.5169677734375,17.5323486328125
15.4099999,9.311050415039062,-2.408566951751709,-13.424288749694824,-78.1097412109375,108.9324951171875,65.948486328125
15.4299999,10.383652687072754,-2.494758129119873,-15.028404235839844,56.1676025390625,216.5679931640625,-24.96337890625
15.4499999,9.679757118225098,-3.6176388263702393,-15.296554565429688,120.4681396484375,192.0318603515625,-41.3360595703125
15.469999900000001,7.910442352294922,-5.070919036865234,-13.7666597366333,110.870361328125,170.135498046875,-39.1998291015625
15.4899999,5.975927352905273,-6.344634532928467,-11.161767959594727,132.8887939453125,186.9964599609375,-54.87060546875
15.5099999,4.271255970001221,-6.931213855743408,-8.219294548034668,137.6495361328125,245.880126953125,-69.915771484375
15.5299999,2.9305028915405273,-6.629544734954834,-5.190629482269287,126.4801025390625,292.8466796875,-82.977294921875
15.549999900000001,1.6759412288665771,-5.623979568481445,-2.1380221843719482,118.4844970703125,307.5103759765625,-83.8165283203125
15.569999900000001,-0.035913024097681046,-4.252102375030518,1.2425906658172607,112.640380859375,330.7342529296875,-80.963134765625
15.5899999,-2.1547815799713135,-3.00711727142334,5.190629482269287,147.064208984375,304.3670654296875,-105.621337890625
15.6099999,-4.266467571258545,-2.518700122833252,9.066842079162598,127.25830078125,144.6533203125,-115.447998046875
15.629999900000001,-6.1315507888793945,-2.8371291160583496,12.09550666809082,21.17919921875,-74.554443359375,-81.1767578125
15.649999900000001,-6.660669326782227,-3.93367338180542,13.352462768554688,-5.8135986328125,-198.333740234375,-90.1031494140625
15.6699999,-5.779603004455566,-5.310339450836182,12.251130104064941,38.9556884765625,-297.79052734375,-172.6531982421875
15.6899999,-3.3638534545898438,-5.702988624572754,8.427590370178223,32.2113037109375,-357.0098876953125,-297.1954345703125
15.709999900000001,1.1971008777618408,-3.7900211811065674,2.650381326675415,-45.1507568359375,-378.7078857421875,-420.074462890625
15.729999900000001,7.769184589385986,0.3232172429561615,-4.355052947998047,-23.3306884765625,-257.2174072265625,-422.8363037109375
15.7499999,15.62216567993164,5.710171222686768,-11.537657737731934,28.99169921875,-143.8751220703125,-187.4237060546875
15.7699999,22.72576332092285,10.591948509216309,-17.017986297607422,41.656494140625,-27.3895263671875,43.9453125
15.789999900000002,27.255592346191406,13.182474136352539,-19.730615615844727,103.33251953125,142.51708984375,153.1829833984375
15.809999900000001,27.571626663208008,13.175292015075684,-19.31881332397461,119.7357177734375,304.962158203125,136.41357421875
15.8299999,23.992294311523438,11.350910186767578,-16.20635223388672,81.84814453125,369.4000244140625,115.7989501953125
15.8499999,18.265365600585938,8.645462036132812,-11.463438034057617,90.3778076171875,337.2802734375,135.5438232421875
15.869999900000002,11.66455078125,5.705382823944092,-6.251260757446289,121.9024658203125,293.45703125,194.64111328125
15.889999900000001,5.616796970367432,3.00711727142334,-1.3503297567367554,140.594482421875,308.3038330078125,308.9447021484375
15.9099999,0.8595184087753296,0.5434837937355042,2.6144683361053467,83.404541015625,241.88232421875,340.51513671875
15.9299999,-4.259284973144531,-1.3934253454208374,5.801150798797607,-16.0369873046875,18.00537109375,230.224609375
15.9499999,-6.464344501495361,-3.2776620388031006,8.9064302444458,10.5133056640625,-230.621337890625,98.602294921875
15.969999900000001,-6.979097843170166,-4.671087741851807,12.148179054260254,158.6761474609375,-207.7178955078125,109.7564697265625
15.9899999,-5.918466567993164,-5.705382823944092,14.903905868530273,39.031982421875,-61.248779296875,139.2974853515625
16.0099999,-3.7038300037384033,-6.433219909667969,16.531963348388672,-167.633056640625,-96.7254638671875,143.157958984375
16.0299999,-2.0398597717285156,-6.742072105407715,15.98129653930664,-136.53564453125,-201.202392578125,79.9407958984375
16.0499999,-1.3958195447921753,-6.734889507293701,13.232752799987793,-64.94140625,-243.6981201171875,-37.6434326171875
16.0699999,-0.10295066982507706,-6.203376770019531,9.004592895507812,-128.387451171875,-254.974365234375,-115.66162109375
16.089999900000002,2.0015525817871094,-5.315127849578857,4.37420654296875,-175.29296875,-194.39697265625,-146.7742919921875
16.109999900000002,4.529829502105713,-4.0749311447143555,-0.07182604819536209,-163.4063720703125,-151.7791748046875,-118.0877685546875
16.1299999,6.761225700378418,-3.028665065765381,-3.624821424484253,-90.1947021484375,-213.775634765625,-69.976806640625
16.1499999,7.967903137207031,-2.5713725090026855,-6.095637321472168,-57.4798583984375,-310.5010986328125,-58.2733154296875
16.1699999,8.398859977722168,-2.4851813316345215,-8.006210327148438,-126.8768310546875,-357.0404052734375,-110.16845703125
16.1899999,8.283937454223633,-2.070984363555908,-10.096348762512207,-154.266357421875,-284.576416015625,-144.8974609375
16.2099999,8.525752067565918,-1.4963760375976562,-12.36605167388916,-77.0416259765625,-144.4549560546875,-80.2459716796875
16.2299999,9.193734169006348,-0.3423708379268646,-14.748282432556152,-19.04296875,-86.151123046875,-42.8009033203125
16.249999900000002,10.345345497131348,0.7398083209991455,-16.40985870361328,60.821533203125,7.110595703125,-67.840576171875
16.269999900000002,11.717223167419434,1.5418659448623657,-16.754623413085938,108.184814453125,104.9957275390625,-57.55615234375
16.2899999,12.950237274169922,2.051830768585205,-15.830461502075195,104.30908203125,167.0684814453125,-8.087158203125
16.3099999,13.608642578125,2.0422539710998535,-13.778631210327148,56.2286376953125,214.935302734375,58.135986328125
16.3299999,13.417106628417969,1.482010841369629,-11.003750801086426,56.8084716796875,230.1483154296875,86.8377685546875
16.3499999,12.279860496520996,0.3998316824436188,-7.649474620819092,69.0155029296875,207.9315185546875,94.9554443359375
16.3699999,10.290278434753418,-0.8978256583213806,-4.134786128997803,0.54931640625,184.2041015625,136.322021484375
16.3899999,7.836222171783447,-2.1068975925445557,-0.8810662031173706,-117.706298828125,178.863525390625,176.2237548828125
16.4099999,5.449203014373779,-2.9903578758239746,1.9273324012756348,-162.7655029296875,195.80078125,150.3143310546875
16.429999900000002,3.4165258407592773,-3.490746021270752,4.1156325340271,-174.7894287109375,203.4912109375,122.1771240234375
16.4499999,1.4915876388549805,-3.754108190536499,5.5329999923706055,-210.63232421875,129.119873046875,116.6839599609375
16.4699999,-0.14604631066322327,-4.197035789489746,6.356605529785156,-215.8966064453125,8.636474609375,152.7252197265625
16.4899999,-1.678335428237915,-5.197812080383301,6.303933143615723,-203.0792236328125,-90.0726318359375,179.656982421875
16.5099999,-2.937685489654541,-7.038952827453613,5.003881454467773,-216.9036865234375,-143.280029296875,139.068603515625
16.5299999,-3.514688014984131,-9.706093788146973,2.4588451385498047,-199.3408203125,-214.1571044921875,54.443359375
16.5499999,-3.464409828186035,-12.516886711120605,-1.460463047027588,-151.8096923828125,-268.2342529296875,-56.854248046875
16.5699999,-2.715024709701538,-14.745888710021973,-6.54574728012085,-111.75537109375,-299.346923828125,-181.7626953125
16.589999900000002,-1.7070658206939697,-15.595829963684082,-12.188880920410156,-54.8553466796875,-231.4605712890625,-290.496826171875
16.609999900000002,-0.0694318488240242,-14.238317489624023,-17.776947021484375,25.482177734375,-124.9237060546875,-371.4141845703125
16.6299999,2.5067291259765625,-10.644620895385742,-22.191856384277344,165.802001953125,11.383056640625,-394.4854736328125
16.6499999,5.896918773651123,-5.640739440917969,-24.353818893432617,285.0341796875,162.53662109375,-313.2171630859375
16.6699999,10.11550235748291,-0.028730420395731926,-24.040180206298828,253.3721923828125,246.124267578125,-220.1080322265625
16.6899999,14.463372230529785,4.7620673179626465,-21.418527603149414,225.4180908203125,313.41552734375,-151.5655517578125
16.7099999,17.824831008911133,7.8314337730407715,-17.338808059692383,245.8038330078125,378.4942626953125,-75.775146484375
16.7299999,19.57020378112793,9.042900085449219,-12.856863021850586,221.86279296875,342.376708984375,-27.5726318359375
16.749999900000002,19.213468551635742,8.398859977722168,-8.516175270080566,209.47265625,270.08056640625,-23.5137939453125
16.769999900000002,16.905458450317383,6.466738700866699,-4.738125324249268,211.24267578125,254.39453125,23.1170654296875
16.7899999,13.086706161499023,4.252102375030518,-1.7812861204147339,213.348388671875,258.72802734375,109.9090576171875
16.8099999,8.798690795898438,2.5761611461639404,0.4141969084739685,235.8245849609375,285.4461669921875,169.8150634765625
16.8299999,4.479551315307617,1.802833914756775,2.1954829692840576,257.6141357421875,326.080322265625,187.80517578125
16.8499999,0.6344634294509888,2.2194249629974365,3.6583402156829834,287.59765625,272.2930908203125,176.7730712890625
16.8699999,-2.7940332889556885,3.529053211212158,5.578489780426025,349.54833984375,156.005859375,190.4144287109375
16.8899999,-5.137956619262695,5.173870086669922,8.022970199584961,263.885498046875,27.679443359375,188.446044921875
16.9099999,-6.481103897094727,6.737283706665039,10.436325073242188,77.880859375,6.9580078125,158.2183837890625
16.929999900000002,-6.890512466430664,7.723694801330566,12.375628471374512,-67.3828125,80.0018310546875,173.7518310546875
16.9499999,-6.414066314697266,7.352593421936035,13.735535621643066,-62.347412109375,63.446044921875,246.2921142578125
16.9699999,-6.121973514556885,6.052541732788086,13.55118179321289,-197.2808837890625,-33.0963134765625,236.4959716796875
16.9899999,-5.990292549133301,3.3686418533325195,12.389993667602539,-352.813720703125,-100.738525390625,157.9742431640625
17.0099999,-5.947196960449219,-0.2992752194404602,10.125079154968262,-365.478515625,-125.732421875,54.5806884765625
17.0299999,-5.889736175537109,-4.537012100219727,6.540958881378174,-321.3653564453125,-205.3070068359375,49.62158203125
17.0499999,-5.51624059677124,-9.102754592895508,2.207453966140747,-189.27001953125,-329.0252685546875,125.6103515625
17.0699999,-5.193023681640625,-13.541604995727539,-1.9488801956176758,-266.021728515625,-393.6920166015625,132.8887939453125
17.089999900000002,-4.414907932281494,-17.338808059692383,-7.445967197418213,-426.3763427734375,-454.6356201171875,-47.4853515625
17.109999900000002,-2.7676970958709717,-20.034679412841797,-12.521675109863281,-287.7960205078125,-342.0257568359375,-329.925537109375
17.1299999,-0.047884032130241394,-20.518308639526367,-17.6141414642334,-42.2515869140625,-181.671142578125,-454.8797607421875
17.1499999,3.732560396194458,-18.495208740234375,-20.95405387878418,130.615234375,-46.2799072265625,-359.31396484375
17.1699999,8.04691219329834,-13.893552780151367,-21.62921905517578,153.8543701171875,42.9534912109375,-337.3870849609375
17.1899999,12.042834281921387,-7.975085735321045,-19.910181045532227,86.8988037109375,100.4791259765625,-375.8544921875
17.2099999,15.358803749084473,-1.8531121015548706,-16.867151260375977,170.8984375,146.087646484375,-338.775634765625
17.2299999,17.630901336669922,3.224989652633667,-13.599065780639648,343.414306640625,152.4810791015625,-225.1739501953125
17.249999900000002,18.210298538208008,6.624756336212158,-10.465055465698242,402.5115966796875,129.5318603515625,-89.6148681640625
17.269999900000002,17.116147994995117,8.101978302001953,-7.915230751037598,350.4638671875,143.280029296875,-60.455322265625
17.2899999,14.544775009155273,7.869740962982178,-5.803544998168945,374.755859375,181.732177734375,-95.7794189453125
17.3099999,10.94150161743164,7.029376029968262,-3.97916316986084,499.298095703125,199.6307373046875,-71.6094970703125
17.3299999,7.287950038909912,6.627150535583496,-1.9393033981323242,460.5865478515625,137.3748779296875,4.9591064453125
17.3499999,3.8115692138671875,7.2568254470825195,0.47165772318840027,215.5609130859375,57.647705078125,43.0755615234375
17.3699999,1.1013327836990356,8.705317497253418,3.861847400665283,1.5411376953125,0.091552734375,33.6151123046875
17.3899999,-0.9864110946655273,10.153809547424316,6.825869083404541,-110.382080078125,106.6741943359375,53.1005859375
17.409999900000003,-2.3965959548950195,10.757147789001465,9.521739959716797,-200.2105712890625,105.194091796875,122.86376953125
17.429999900000002,-3.3494882583618164,10.223240852355957,10.96544361114502,-332.9925537109375,26.5350341796875,187.01171875
17.4499999,-4.0964789390563965,8.683769226074219,11.159374237060547,-495.9564208984375,-63.4765625,236.4501953125
17.4699999,-4.1611223220825195,5.853823184967041,9.962273597717285,-497.772216796875,-168.5028076171875,228.6376953125
17.4899999,-4.07014274597168,2.1140801906585693,7.1706342697143555,-497.4517822265625,-298.4161376953125,261.260986328125
17.5099999,-3.3255462646484375,-2.5785553455352783,2.7700912952423096,-496.3836669921875,-399.84130859375,214.4012451171875
17.5299999,-1.235408067703247,-7.513004779815674,-3.866635799407959,-299.8809814453125,-307.9986572265625,20.08056640625
17.5499999,2.449268341064453,-12.155362129211426,-10.955866813659668,-159.0728759765625,-185.6842041015625,-165.771484375
17.5699999,7.5968017578125,-15.327679634094238,-17.535133361816406,-14.5263671875,24.4293212890625,-175.048828125
17.589999900000002,13.457807540893555,-16.733076095581055,-21.56936264038086,48.8128662109375,153.25927734375,-112.0147705078125
17.609999900000002,18.514362335205078,-15.852009773254395,-22.026655197143555,65.9027099609375,162.445068359375,-187.80517578125
17.6299999,21.416133880615234,-13.232752799987793,-19.529502868652344,32.440185546875,153.4423828125,-250.152587890625
17.6499999,22.045808792114258,-9.612719535827637,-15.260642051696777,36.1328125,137.20703125,-248.9776611328125
17.6699999,20.211851119995117,-5.9088897705078125,-10.548852920532227,53.5430908203125,137.9241943359375,-186.21826171875
17.6899999,17.209522247314453,-2.9065608978271484,-6.473921298980713,68.9849853515625,179.534912109375,-126.64794921875
17.7099999,13.46259593963623,-1.0223240852355957,-3.361459255218506,55.572509765625,220.1385498046875,-79.7882080078125
17.7299999,10.005369186401367,-0.2059013396501541,-1.6352397203445435,30.8990478515625,211.3189697265625,-26.2603759765625
17.749999900000002,7.129932880401611,-0.33039984107017517,-0.7589619159698486,45.6390380859375,173.828125,-2.8076171875
17.769999900000002,5.011064052581787,-0.8427590131759644,-0.5746083855628967,71.319580078125,198.18115234375,21.1944580078125
17.7899999,3.162740468978882,-1.3503297567367554,-0.4908113479614258,63.9801025390625,117.5384521484375,-9.1552734375
17.8099999,1.7142484188079834,-1.5179238319396973,-0.05746084079146385,11.138916015625,66.4825439453125,5.1116943359375
17.8299999,0.4429273009300232,-1.2282254695892334,0.8690952062606812,-25.909423828125,55.267333984375,48.248291015625
17.8499999,-0.6655880808830261,-0.6033388376235962,2.4013843536376953,17.730712890625,33.8134765625,68.29833984375
17.8699999,-1.9321208000183105,0.17477671802043915,4.426878929138184,34.1033935546875,-30.975341796875,43.4112548828125
17.8899999,-2.4636335372924805,0.9265560507774353,6.524199485778809,5.9967041015625,-150.45166015625,63.04931640625
17.909999900000003,-2.8371291160583496,1.400607943534851,8.17141056060791,-7.2174072265625,-204.5135498046875,75.3936767578125
17.929999900000002,-2.5067291259765625,1.5538369417190552,8.71728801727295,-63.6749267578125,-187.92724609375,43.6859130859375
17.9499999,-1.1300631761550903,1.2018892765045166,7.536946773529053,-89.1876220703125,-137.298583984375,-4.4097900390625
17.9699999,1.1420341730117798,0.49799394607543945,4.7836151123046875,-77.5299072265625,-169.5556640625,-64.0106201171875
17.9899999,4.505887508392334,-0.3734954595565796,0.6368576288223267,-7.659912109375,-236.4044189453125,-68.66455078125
18.0099999,9.725247383117676,-0.9409212470054626,-4.4532151222229,-22.491455078125,-227.4932861328125,-66.6961669921875
18.0299999,15.456966400146484,-1.5179238319396973,-8.880094528198242,-84.2132568359375,-84.228515625,-79.89501953125
18.0499999,21.13601303100586,-1.644816517829895,-12.325350761413574,24.1546630859375,33.050537109375,-32.8369140625
18.0699999,25.325864791870117,-1.8914192914962769,-13.582305908203125,85.784912109375,30.5328369140625,65.0482177734375
18.089999900000002,26.774356842041016,-2.1930887699127197,-12.751518249511719,90.5914306640625,93.93310546875,94.6807861328125
18.109999900000002,25.505430221557617,-2.7509377002716064,-10.170568466186523,76.7364501953125,138.946533203125,83.8775634765625
18.1299999,21.978771209716797,-3.643975019454956,-7.386112213134766,181.182861328125,246.7041015625,159.912109375
18.1499999,16.83363151550293,-4.733336925506592,-4.347870349884033,172.2412109375,193.450927734375,220.15380859375
18.1699999,11.101913452148438,-5.817910194396973,-2.1978771686553955,109.2376708984375,28.167724609375,96.282958984375
18.1899999,5.635950565338135,-6.624756336212158,-0.42377370595932007,85.3271484375,-41.046142578125,-26.2603759765625
18.2099999,1.3838485479354858,-6.806715488433838,0.7876923680305481,85.0982666015625,35.8734130859375,-47.3175048828125
18.2299999,-1.3072341680526733,-6.3973069190979,1.6160861253738403,80.01708984375,9.8419189453125,-58.16650390625
18.249999900000002,-3.1962592601776123,-5.25527286529541,2.075772762298584,54.351806640625,-74.9969482421875,-73.2879638671875
18.269999900000002,-3.9432501792907715,-3.77565598487854,2.6575639247894287,6.744384765625,-119.2626953125,-77.0111083984375
18.2899999,-4.369418144226074,-2.0638017654418945,3.3423056602478027,-0.67138671875,-144.47021484375,-95.6878662109375
18.3099999,-3.8163576126098633,-0.33518823981285095,4.1180267333984375,9.1705322265625,-104.8583984375,-77.789306640625
18.3299999,-2.1308395862579346,1.0845733880996704,4.4292731285095215,-6.1492919921875,-107.5439453125,-24.169921875
18.3499999,1.0630255937576294,1.9728221893310547,3.6966474056243896,-115.5242919921875,-199.9053955078125,9.6435546875
18.3699999,5.604825973510742,2.0231003761291504,1.4508862495422363,-201.9500732421875,-270.9503173828125,7.171630859375
18.3899999,11.08994197845459,1.2258312702178955,-2.255337953567505,-252.0294189453125,-296.1883544921875,35.0341796875
18.409999900000003,16.510414123535156,-0.4189853072166443,-6.9455790519714355,-260.7421875,-275.1007080078125,88.07373046875
18.429999900000002,20.767305374145508,-2.1930887699127197,-11.796232223510742,-184.4635009765625,-190.0177001953125,137.1002197265625
18.4499999,22.64914894104004,-3.603273630142212,-15.638925552368164,-71.47216796875,-48.4619140625,149.0936279296875
18.4699999,22.574928283691406,-3.8977603912353516,-17.159242630004883,-57.891845703125,138.763427734375,140.3350830078125
18.4899999,20.532672882080078,-3.1723172664642334,-16.318878173828125,-12.8021240234375,197.20458984375,82.122802734375
18.5099999,17.173608779907227,-1.5682021379470825,-13.354857444763184,28.13720703125,158.4625244140625,80.8563232421875
18.5299999,12.67250919342041,-0.1604115068912506,-8.911218643188477,-20.0347900390625,219.0704345703125,127.7923583984375
18.5499999,7.86734676361084,0.9481038451194763,-4.113238334655762,-185.272216796875,336.090087890625,213.56201171875
18.5699999,3.7612907886505127,1.0558429956436157,0.33518823981285095,-377.62451171875,305.7403564453125,240.6768798828125
18.589999900000002,3.023876667022705,0.13407529890537262,2.8371291160583496,-267.27294921875,140.80810546875,171.6461181640625
18.609999900000002,1.4269442558288574,-0.19871874153614044,3.557783842086792,23.5595703125,-38.4368896484375,-17.303466796875
18.6299999,1.5466543436050415,-1.2545616626739502,2.669534921646118,-32.3486328125,-168.792724609375,-101.043701171875
18.6499999,-0.7948749661445618,-1.8124107122421265,1.01753568649292,-48.065185546875,-274.6734619140625,-155.6243896484375
18.6699999,-3.1914708614349365,-2.652775526046753,-0.26096799969673157,18.6767578125,-220.5657958984375,-157.012939453125
18.6899999,-3.7397429943084717,-3.4332852363586426,-1.7860745191574097,83.5113525390625,-171.630859375,-164.48974609375
18.7099999,-1.7764976024627686,-4.086902141571045,-3.6104562282562256,52.2308349609375,-158.1878662109375,-176.3458251953125
18.7299999,1.9369091987609863,-4.165910720825195,-5.856217384338379,-46.7529296875,-147.7508544921875,-115.509033203125
18.749999900000002,5.772420406341553,-3.907337188720703,-7.989450931549072,-70.892333984375,-104.1107177734375,-43.5791015625
18.769999900000002,8.293514251708984,-3.6846764087677,-9.27034854888916,-48.2025146484375,-119.1558837890625,-27.9388427734375
18.7899999,9.059659004211426,-3.442862033843994,-9.3828763961792,-0.2593994140625,-96.9085693359375,-33.4320068359375
18.8099999,8.89445972442627,-3.3925838470458984,-8.485051155090332,35.6292724609375,-48.52294921875,-60.05859375
18.8299999,8.14028549194336,-3.4308910369873047,-7.3669586181640625,-18.37158203125,-116.424560546875,-31.5399169921875
18.8499999,7.4770917892456055,-3.3734302520751953,-6.66785192489624,-68.5577392578125,-203.277587890625,-28.4271240234375
18.8699999,6.732495307922363,-3.404554843902588,-7.079654216766357,-97.8851318359375,-151.18408203125,-88.409423828125
18.8899999,6.229712963104248,-3.1962592601776123,-8.465897560119629,-88.56201171875,29.2205810546875,-147.4609375
18.909999900000003,6.107608318328857,-2.7533318996429443,-10.15141487121582,-53.16162109375,127.86865234375,-175.6591796875
18.929999900000002,6.507440090179443,-1.9823989868164062,-11.583148002624512,-63.690185546875,131.500244140625,-155.94482421875
18.9499999,7.577648162841797,-0.9074024558067322,-12.63899040222168,-98.6328125,108.551025390625,-141.17431640625
18.9699999,9.461885452270508,0.6224924325942993,-13.115436553955078,-114.8223876953125,60.1806640625,-47.821044921875
18.9899999,11.791443824768066,2.2361843585968018,-13.476961135864258,-68.3441162109375,110.9619140625,6.103515625
19.0099999,14.350845336914062,3.971980571746826,-13.498509407043457,-37.0941162109375,139.3280029296875,27.740478515625
19.0299999,16.376338958740234,5.4444146156311035,-12.921506881713867,37.04833984375,141.082763671875,18.951416015625
19.0499999,17.0203800201416,6.464344501495361,-11.554417610168457,31.2957763671875,174.6826171875,-38.0401611328125
19.0699999,16.11058235168457,7.151480674743652,-8.647856712341309,-146.209716796875,127.8533935546875,66.9708251953125
19.089999900000002,14.12818431854248,7.261613845825195,-5.183446884155273,-57.2509765625,41.839599609375,109.5123291015625
19.109999900000002,11.884817123413086,6.912060260772705,-1.115697979927063,-33.599853515625,33.4930419921875,96.1151123046875
19.1299999,9.804255485534668,5.940014362335205,2.2912509441375732,-48.0804443359375,-24.10888671875,111.541748046875
19.1499999,8.540117263793945,4.702212333679199,5.044582843780518,-73.2879638671875,-95.062255859375,153.7322998046875
19.1699999,7.769184589385986,3.308786630630493,6.63433313369751,-101.4556884765625,-130.7373046875,236.2518310546875
19.1899999,7.3693528175354,2.250549554824829,7.237671852111816,-133.636474609375,-155.914306640625,278.50341796875
19.2099999,7.42681360244751,1.5634137392044067,6.897695064544678,-139.495849609375,-172.4700927734375,227.8289794921875
19.2299999,7.513004779815674,1.3670891523361206,5.834669589996338,-142.76123046875,-186.7218017578125,169.9981689453125
19.249999900000002,6.8378400802612305,1.3335703611373901,4.335899353027344,-183.2427978515625,-222.2747802734375,156.280517578125
19.269999900000002,5.374982833862305,1.623268723487854,2.959233283996582,-219.451904296875,-223.5565185546875,158.75244140625
19.2899999,2.6815059185028076,1.824381709098816,1.644816517829895,-195.343017578125,-225.128173828125,6.7901611328125
19.3099999,-0.5147533416748047,2.1499931812286377,0.5793967843055725,-209.4879150390625,-284.3170166015625,-89.53857421875
19.3299999,-3.797203779220581,2.4827871322631836,-0.6105214357376099,-238.22021484375,-304.8858642578125,-142.8680419921875
19.3499999,-6.251260757446289,3.488351821899414,-2.0159177780151367,-272.94921875,-265.3656005859375,-158.782958984375
19.3699999,-7.086836814880371,5.542576789855957,-4.302380561828613,-277.9998779296875,-230.8349609375,-132.598876953125
19.3899999,-6.3518171310424805,8.904036521911621,-7.582436561584473,-245.4681396484375,-166.4886474609375,-56.1065673828125
19.409999900000003,-4.003105163574219,12.564770698547363,-11.465831756591797,-93.841552734375,-66.2078857421875,-8.209228515625
19.429999900000002,-1.1755530834197998,15.61019515991211,-15.368380546569824,100.9368896484375,-21.8658447265625,-10.7879638671875
19.4499999,1.4413094520568848,16.862361907958984,-18.241422653198242,197.32666015625,-14.4805908203125,-55.11474609375
19.4699999,3.2537200450897217,16.242263793945312,-19.31641960144043,208.31298828125,-37.7349853515625,-48.27880859375
19.4899999,4.266467571258545,14.202404022216797,-18.63886070251465,233.3984375,47.3480224609375,-17.0745849609375
19.5099999,4.793191909790039,11.468226432800293,-16.452953338623047,312.042236328125,160.400390625,-51.5289306640625
19.5299999,4.63517427444458,8.571242332458496,-13.548787117004395,290.557861328125,161.7279052734375,-69.3359375
19.5499999,3.9600095748901367,5.681440830230713,-10.558429718017578,153.6407470703125,78.67431640625,24.1241455078125
19.5699999,2.4636335372924805,2.980781078338623,-7.7883381843566895,78.125,-67.0166015625,136.0321044921875
19.589999900000002,0.2801215946674347,0.6943184733390808,-5.796362400054932,111.6485595703125,-96.4813232421875,109.8480224609375
19.609999900000002,-2.2577321529388428,-1.1683704853057861,-4.367023944854736,203.9947509765625,-74.7528076171875,41.3665771484375
19.6299999,-4.809951305389404,-2.9041666984558105,-3.35667085647583,285.125732421875,-96.13037109375,-33.6151123046875
19.6499999,-7.074865818023682,-3.885789394378662,-2.7461493015289307,232.421875,-101.6082763671875,-74.3408203125
19.6699999,-8.7484130859375,-4.95120906829834,-2.9089550971984863,53.7872314453125,-42.755126953125,-20.172119140625
19.6899999,-9.349357604980469,-6.143521785736084,-2.7964274883270264,279.35791015625,41.3970947265625,55.1605224609375
19.7099999,-9.619902610778809,-6.6630635261535645,-3.4141316413879395,396.331787109375,117.4468994140625,94.635009765625
19.7299999,-8.159439086914062,-7.484274387359619,-4.752490520477295,214.29443359375,132.32421875,195.0836181640625
19.749999900000002,-5.552153587341309,-7.275979042053223,-6.562506675720215,222.1221923828125,42.083740234375,365.997314453125
19.769999900000002,-0.45489832758903503,-6.471527099609375,-10.496180534362793,267.242431640625,135.0250244140625,499.9847412109375
19.7899999,2.427720546722412,-8.609549522399902,-10.951078414916992,499.9847412109375,306.94580078125,499.9847412109375
19.8099999,4.4292731285095215,-9.651026725769043,-11.293449401855469,321.8841552734375,144.3939208984375,337.2955322265625
19.8299999,2.051830768585205,-12.646173477172852,-7.8529815673828125,92.4072265625,28.9764404296875,373.3367919921875
19.8499999,-2.6886885166168213,-13.67807388305664,-4.378994941711426,394.1192626953125,209.7320556640625,392.2882080078125
19.8699999,-6.821080684661865,-14.571111679077148,-0.524330198764801,92.6971435546875,233.5357666015625,499.9847412109375
19.8899999,-9.57201862335205,-14.00607967376709,0.9313444495201111,-34.759521484375,101.654052734375,379.9591064453125
19.909999900000003,-9.864110946655273,-15.21275806427002,0.8834604024887085,-75.2105712890625,124.45068359375,229.1412353515625
19.929999900000002,-9.835380554199219,-15.351621627807617,-1.6759412288665771,-384.429931640625,280.914306640625,224.0142822265625
19.9499999,-8.398859977722168,-14.482525825500488,-3.7636849880218506,-31.341552734375,209.5184326171875,104.8126220703125
19.9699999,-7.886500358581543,-12.48815631866455,-6.2201361656188965,-157.04345703125,12.0849609375,106.353759765625
19.9899999,-6.720524311065674,-10.232817649841309,-5.590460777282715,89.3707275390625,-36.56005859375,87.7838134765625
