# Time (seconds),Accel_X,Accel_Y,Accel_Z,Gyro_X,Gyro_Y,Gyro_Z
0.0099999,0.4692635238170624,0.090979665517807,9.888052940368652,0.091552734375,-1.3580322265625,-0.1373291015625
0.029999900000000003,0.47165772318840027,0.090979665517807,9.890447616577148,0,-1.28173828125,-0.1068115234375
0.0499999,0.47165772318840027,0.090979665517807,9.888052940368652,0.030517578125,-1.28173828125,-0.1678466796875
0.0699999,0.4692635238170624,0.090979665517807,9.888052940368652,-0.030517578125,-1.3275146484375,-0.1373291015625
0.08999990000000001,0.4692635238170624,0.090979665517807,9.888052940368652,-0.030517578125,-1.312255859375,-0.1678466796875
0.10999990000000001,0.4668693244457245,0.090979665517807,9.890447616577148,0,-1.312255859375,-0.152587890625
0.1299999,0.4668693244457245,0.090979665517807,9.890447616577148,0,-1.3580322265625,-0.1373291015625
0.14999990000000002,0.4692635238170624,0.090979665517807,9.890447616577148,-0.0152587890625,-1.3427734375,-0.1068115234375
0.1699999,0.47165772318840027,0.090979665517807,9.890447616577148,-0.0762939453125,-1.3885498046875,-0.1068115234375
0.1899999,0.47405192255973816,0.090979665517807,9.888052940368652,-0.06103515625,-1.3427734375,-0.1678466796875
0.20999990000000002,0.47405192255973816,0.08858546614646912,9.885659217834473,-0.030517578125,-1.251220703125,-0.1068115234375
0.2299999,0.47405192255973816,0.08858546614646912,9.883264541625977,-0.091552734375,-1.3275146484375,-0.1220703125
0.2499999,0.47165772318840027,0.08858546614646912,9.8784761428833,-0.0152587890625,-1.251220703125,-0.152587890625
0.2699999,0.47165772318840027,0.08858546614646912,9.8784761428833,0.0152587890625,-1.28173828125,-0.152587890625
0.28999990000000003,0.47165772318840027,0.08858546614646912,9.8784761428833,-0.1220703125,-1.3580322265625,-0.1068115234375
0.3099999,0.47165772318840027,0.08858546614646912,9.883264541625977,-0.06103515625,-1.3427734375,-0.1678466796875
0.3299999,0.4692635238170624,0.090979665517807,9.885659217834473,-0.091552734375,-1.3885498046875,-0.1220703125
0.34999990000000003,0.4692635238170624,0.0933738648891449,9.888052940368652,-0.0152587890625,-1.3885498046875,-0.1068115234375
0.3699999,0.47165772318840027,0.0933738648891449,9.890447616577148,-0.0457763671875,-1.2969970703125,-0.1220703125
0.3899999,0.47165772318840027,0.0933738648891449,9.890447616577148,-0.152587890625,-1.312255859375,-0.1678466796875
0.40999990000000003,0.47405192255973816,0.090979665517807,9.890447616577148,-0.1068115234375,-1.2969970703125,-0.213623046875
0.4299999,0.47644615173339844,0.08858546614646912,9.890447616577148,-0.1068115234375,-1.251220703125,-0.18310546875
0.4499999,0.47644615173339844,0.08858546614646912,9.890447616577148,-0.091552734375,-1.28173828125,-0.0762939453125
0.4699999,0.47405192255973816,0.090979665517807,9.890447616577148,-0.091552734375,-1.2664794921875,-0.1678466796875
0.4899999,0.47405192255973816,0.09576806426048279,9.892841339111328,-0.152587890625,-1.2664794921875,-0.18310546875
0.5099999,0.47165772318840027,0.09576806426048279,9.892841339111328,-0.1068115234375,-1.3885498046875,-0.1373291015625
0.5299999,0.47165772318840027,0.09576806426048279,9.890447616577148,-0.1373291015625,-1.28173828125,-0.1220703125
0.5499999,0.47165772318840027,0.090979665517807,9.890447616577148,-0.1373291015625,-1.2664794921875,-0.091552734375
0.5699999,0.47405192255973816,0.08858546614646912,9.888052940368652,-0.091552734375,-1.2969970703125,-0.152587890625
0.5899998999999999,0.47405192255973816,0.08619125932455063,9.888052940368652,-0.091552734375,-1.312255859375,-0.2288818359375
0.6099998999999999,0.47644615173339844,0.08619125932455063,9.888052940368652,-0.0457763671875,-1.373291015625,-0.1373291015625
0.6299999,0.47405192255973816,0.08619125932455063,9.890447616577148,-0.06103515625,-1.3580322265625,-0.1220703125
0.6499999,0.47405192255973816,0.08379705995321274,9.890447616577148,0.0457763671875,-1.2969970703125,-0.213623046875
0.6699999,0.47405192255973816,0.08619125932455063,9.890447616577148,0.0152587890625,-1.3275146484375,-0.1373291015625
0.6899999,0.47405192255973816,0.08619125932455063,9.890447616577148,-0.1373291015625,-1.28173828125,-0.091552734375
0.7099999,0.47165772318840027,0.08858546614646912,9.9000244140625,-0.7171630859375,-1.1749267578125,-0.1983642578125
0.7299998999999999,0.47165772318840027,0.0933738648891449,9.892841339111328,0.518798828125,-1.4801025390625,-0.1068115234375
0.7499998999999999,0.4692635238170624,0.0933738648891449,9.895236015319824,-0.335693359375,-1.2359619140625,-0.1220703125
0.7699999,0.4692635238170624,0.09816227108240128,9.888052940368652,-0.67138671875,-1.2054443359375,-0.2288818359375
0.7899999,0.4692635238170624,0.09816227108240128,9.8784761428833,0.42724609375,-1.4190673828125,-0.213623046875
0.8099999,0.4668693244457245,0.09816227108240128,9.880870819091797,-0.244140625,-1.2359619140625,-0.1678466796875
0.8299999,0.4692635238170624,0.0933738648891449,9.885659217834473,-0.48828125,-1.190185546875,-0.152587890625
0.8499998999999999,0.4692635238170624,0.090979665517807,9.888052940368652,0.30517578125,-1.3427734375,-0.1983642578125
0.8699998999999999,0.47165772318840027,0.08858546614646912,9.890447616577148,-0.030517578125,-1.3275146484375,-0.1983642578125
0.8899999,0.47165772318840027,0.08619125932455063,9.892841339111328,-0.42724609375,-1.2359619140625,-0.2288818359375
0.9099999,0.47405192255973816,0.08619125932455063,9.890447616577148,0.152587890625,-1.373291015625,-0.1678466796875
0.9299999,0.47405192255973816,0.08619125932455063,9.890447616577148,0,-1.3275146484375,-0.152587890625
0.9499999,0.47165772318840027,0.08619125932455063,9.888052940368652,-0.396728515625,-1.2664794921875,-0.1220703125
0.9699998999999999,0.47405192255973816,0.08379705995321274,9.890447616577148,-0.030517578125,-1.3275146484375,-0.1373291015625
0.9899998999999999,0.47405192255973816,0.08379705995321274,9.888052940368652,-0.0457763671875,-1.3580322265625,-0.1678466796875
1.0099999,0.47405192255973816,0.08379705995321274,9.890447616577148,-0.2593994140625,-1.28173828125,-0.1373291015625
1.0299999,0.47405192255973816,0.08379705995321274,9.890447616577148,-0.0457763671875,-1.2664794921875,-0.091552734375
1.0499999,0.47405192255973816,0.08140286058187485,9.892841339111328,0,-1.251220703125,-0.1678466796875
1.0699999,0.47644615173339844,0.08379705995321274,9.892841339111328,-0.2899169921875,-1.28173828125,-0.1220703125
1.0899999,0.47644615173339844,0.08379705995321274,9.892841339111328,0.0152587890625,-1.2969970703125,-0.1068115234375
1.1099999,0.47405192255973816,0.08379705995321274,9.895236015319824,0.0152587890625,-1.3275146484375,-0.06103515625
1.1299999,0.47405192255973816,0.08379705995321274,9.892841339111328,-0.213623046875,-1.2664794921875,-0.1068115234375
1.1499999,0.47165772318840027,0.08379705995321274,9.892841339111328,-0.091552734375,-1.2969970703125,-0.1678466796875
1.1699998999999999,0.47165772318840027,0.08140286058187485,9.888052940368652,-0.06103515625,-1.2664794921875,-0.18310546875
1.1899998999999999,0.47165772318840027,0.08140286058187485,9.888052940368652,-0.091552734375,-1.2664794921875,-0.1373291015625
1.2099999,0.47405192255973816,0.07900865375995636,9.885659217834473,-0.06103515625,-1.2969970703125,-0.091552734375
1.2299999,0.47405192255973816,0.07900865375995636,9.888052940368652,-0.0152587890625,-1.312255859375,-0.1373291015625
1.2499999,0.47644615173339844,0.07900865375995636,9.888052940368652,-0.1068115234375,-1.3427734375,-0.213623046875
1.2699999,0.47644615173339844,0.08140286058187485,9.890447616577148,0,-1.2969970703125,-0.18310546875
1.2899999,0.47644615173339844,0.08140286058187485,9.888052940368652,-0.06103515625,-1.251220703125,-0.18310546875
1.3099999,0.47405192255973816,0.08379705995321274,9.890447616577148,-0.152587890625,-1.3427734375,-0.1678466796875
1.3299999,0.47405192255973816,0.08379705995321274,9.888052940368652,-0.030517578125,-1.2969970703125,-0.213623046875
1.3499999,0.47405192255973816,0.08379705995321274,9.885659217834473,-0.06103515625,-1.251220703125,-0.1373291015625
1.3699999,0.47165772318840027,0.08379705995321274,9.888052940368652,-0.1220703125,-1.2969970703125,-0.091552734375
1.3899999,0.47165772318840027,0.08140286058187485,9.890447616577148,0.0457763671875,-1.3427734375,-0.06103515625
1.4099999,0.47165772318840027,0.08140286058187485,9.892841339111328,0,-1.3580322265625,-0.091552734375
1.4299998999999999,0.47165772318840027,0.08140286058187485,9.892841339111328,-0.1220703125,-1.220703125,-0.1678466796875
1.4499999,0.47165772318840027,0.08140286058187485,9.895236015319824,-0.0762939453125,-1.2969970703125,-0.1068115234375
1.4699999,0.4692635238170624,0.08140286058187485,9.895236015319824,0.06103515625,-1.3275146484375,-0.1068115234375
1.4899999,0.4692635238170624,0.08379705995321274,9.895236015319824,-0.091552734375,-1.312255859375,-0.1373291015625
1.5099999,0.4668693244457245,0.08619125932455063,9.895236015319824,-0.0457763671875,-1.373291015625,-0.1068115234375
1.5299999,0.4668693244457245,0.08619125932455063,9.892841339111328,-0.030517578125,-1.3427734375,-0.091552734375
1.5499999,0.4668693244457245,0.08619125932455063,9.892841339111328,-0.030517578125,-1.2969970703125,-0.1373291015625
1.5699999,0.4692635238170624,0.08619125932455063,9.890447616577148,-0.1068115234375,-1.28173828125,-0.1068115234375
1.5899999,0.47165772318840027,0.08619125932455063,9.888052940368652,-0.1373291015625,-1.3427734375,-0.1068115234375
1.6099999,0.47165772318840027,0.08619125932455063,9.885659217834473,-0.06103515625,-1.312255859375,-0.1373291015625
1.6299999,0.47165772318840027,0.08858546614646912,9.883264541625977,0.030517578125,-1.2969970703125,-0.1220703125
1.6499999,0.4692635238170624,0.08858546614646912,9.885659217834473,-0.091552734375,-1.312255859375,-0.1220703125
1.6699999,0.4692635238170624,0.08858546614646912,9.885659217834473,-0.091552734375,-1.3427734375,-0.1068115234375
1.6899998999999999,0.4692635238170624,0.08619125932455063,9.888052940368652,-0.0457763671875,-1.3427734375,-0.06103515625
1.7099999,0.47165772318840027,0.08379705995321274,9.890447616577148,-0.091552734375,-1.28173828125,-0.0762939453125
1.7299999,0.47405192255973816,0.08140286058187485,9.890447616577148,-0.091552734375,-1.2969970703125,-0.1373291015625
1.7499999,0.47405192255973816,0.08140286058187485,9.890447616577148,-0.030517578125,-1.3580322265625,-0.1983642578125
1.7699999,0.47405192255973816,0.07900865375995636,9.890447616577148,0.0152587890625,-1.28173828125,-0.1983642578125
1.7899999,0.47405192255973816,0.07900865375995636,9.890447616577148,-0.06103515625,-1.2664794921875,-0.1220703125
1.8099999,0.47405192255973816,0.07900865375995636,9.888052940368652,-0.0152587890625,-1.3427734375,-0.06103515625
1.8299999,0.47405192255973816,0.07900865375995636,9.890447616577148,0,-1.3427734375,-0.1220703125
1.8499999,0.47165772318840027,0.07900865375995636,9.888052940368652,-0.0762939453125,-1.373291015625,-0.213623046875
1.8699999,0.47165772318840027,0.07900865375995636,9.890447616577148,-0.0152587890625,-1.3427734375,-0.1220703125
1.8899999,0.4692635238170624,0.08140286058187485,9.888052940368652,-0.0762939453125,-1.312255859375,-0.1373291015625
1.9099999,0.4668693244457245,0.08140286058187485,9.888052940368652,-0.091552734375,-1.373291015625,-0.18310546875
1.9299998999999999,0.4644751250743866,0.08140286058187485,9.888052940368652,0.030517578125,-1.373291015625,-0.152587890625
1.9499999,0.4644751250743866,0.08140286058187485,9.885659217834473,-0.1220703125,-1.3427734375,-0.1983642578125
1.9699999,0.4668693244457245,0.07900865375995636,9.888052940368652,-0.1373291015625,-1.2664794921875,-0.1983642578125
1.9899999,0.4668693244457245,0.07900865375995636,9.890447616577148,0.0762939453125,-1.28173828125,-0.0762939453125
2.0099999,0.4692635238170624,0.07900865375995636,9.892841339111328,0,-1.3885498046875,-0.1373291015625
2.0299999,0.47165772318840027,0.07900865375995636,9.892841339111328,-0.1678466796875,-1.3275146484375,-0.213623046875
2.0499999,0.47405192255973816,0.08140286058187485,9.892841339111328,-0.030517578125,-1.373291015625,-0.152587890625
2.0699999,0.47405192255973816,0.07900865375995636,9.892841339111328,-0.152587890625,-1.28173828125,-0.152587890625
2.0899999,0.47405192255973816,0.07900865375995636,9.895236015319824,-0.0762939453125,-1.312255859375,-0.18310546875
2.1099999,0.47405192255973816,0.07900865375995636,9.895236015319824,0.0762939453125,-1.3885498046875,-0.1373291015625
2.1299999,0.47165772318840027,0.07900865375995636,9.892841339111328,-0.091552734375,-1.2969970703125,-0.152587890625
2.1499999,0.4692635238170624,0.08140286058187485,9.892841339111328,-0.0762939453125,-1.3275146484375,-0.1220703125
2.1699999,0.4644751250743866,0.08379705995321274,9.892841339111328,0.0152587890625,-1.3427734375,-0.1373291015625
2.1899999,0.4644751250743866,0.08619125932455063,9.892841339111328,-0.0457763671875,-1.28173828125,-0.244140625
2.2099999,0.4644751250743866,0.08858546614646912,9.892841339111328,-0.0457763671875,-1.28173828125,-0.2288818359375
2.2299999,0.4668693244457245,0.08858546614646912,9.890447616577148,-0.030517578125,-1.3427734375,-0.1068115234375
2.2499999,0.4692635238170624,0.08619125932455063,9.890447616577148,-0.0457763671875,-1.3275146484375,-0.1068115234375
2.2699999,0.47405192255973816,0.08619125932455063,9.890447616577148,-0.0457763671875,-1.3885498046875,-0.152587890625
2.2899999,0.47644615173339844,0.08619125932455063,9.892841339111328,0.0457763671875,-1.3275146484375,-0.1068115234375
2.3099999,0.47644615173339844,0.08619125932455063,9.892841339111328,-0.0457763671875,-1.3427734375,-0.091552734375
2.3299999,0.47644615173339844,0.08858546614646912,9.895236015319824,-0.1068115234375,-1.3427734375,-0.2288818359375
2.3499999,0.47405192255973816,0.08858546614646912,9.892841339111328,-0.0762939453125,-1.4190673828125,-0.18310546875
2.3699999,0.4692635238170624,0.08858546614646912,9.892841339111328,-0.091552734375,-1.3580322265625,-0.1373291015625
2.3899999,0.4692635238170624,0.08858546614646912,9.890447616577148,-0.0457763671875,-1.3275146484375,-0.1373291015625
2.4099999,0.4692635238170624,0.08858546614646912,9.890447616577148,0.0152587890625,-1.3885498046875,-0.1678466796875
2.4299999,0.4692635238170624,0.090979665517807,9.890447616577148,-0.06103515625,-1.312255859375,-0.152587890625
2.4499999,0.47165772318840027,0.08858546614646912,9.890447616577148,-0.0152587890625,-1.312255859375,-0.213623046875
2.4699999,0.47165772318840027,0.08619125932455063,9.890447616577148,0.06103515625,-1.312255859375,-0.213623046875
2.4899999,0.47165772318840027,0.08619125932455063,9.890447616577148,-0.1068115234375,-1.2054443359375,-0.213623046875
2.5099999,0.47405192255973816,0.08619125932455063,9.890447616577148,-0.091552734375,-1.3427734375,-0.1678466796875
2.5299999,0.47405192255973816,0.08619125932455063,9.890447616577148,-0.030517578125,-1.373291015625,-0.06103515625
2.5499999,0.47165772318840027,0.08619125932455063,9.888052940368652,-0.030517578125,-1.3427734375,-0.091552734375
2.5699999,0.47165772318840027,0.08619125932455063,9.885659217834473,0.0457763671875,-1.3427734375,-0.1373291015625
2.5899999,0.47165772318840027,0.08619125932455063,9.880870819091797,0.06103515625,-1.312255859375,-0.1678466796875
2.6099999,0.47405192255973816,0.08619125932455063,9.880870819091797,-0.030517578125,-1.312255859375,-0.091552734375
2.6299999,0.47644615173339844,0.08619125932455063,9.880870819091797,-0.0457763671875,-1.373291015625,-0.1068115234375
2.6499999,0.47644615173339844,0.08858546614646912,9.885659217834473,0.030517578125,-1.2969970703125,-0.18310546875
2.6699999,0.47644615173339844,0.090979665517807,9.890447616577148,0.1220703125,-1.312255859375,-0.1068115234375
2.6899999,0.47405192255973816,0.0933738648891449,9.892841339111328,-0.0457763671875,-1.2664794921875,-0.1983642578125
2.7099999,0.47165772318840027,0.0933738648891449,9.890447616577148,0.06103515625,-1.434326171875,-0.152587890625
2.7299999,0.47165772318840027,0.090979665517807,9.888052940368652,0.0762939453125,-1.4190673828125,-0.2288818359375
2.7499999,0.47165772318840027,0.08858546614646912,9.885659217834473,-0.0457763671875,-1.3275146484375,-0.18310546875
2.7699999,0.47165772318840027,0.08619125932455063,9.883264541625977,-0.0152587890625,-1.3275146484375,-0.1373291015625
2.7899999,0.47165772318840027,0.08379705995321274,9.883264541625977,-0.030517578125,-1.3275146484375,-0.18310546875
2.8099999,0.47165772318840027,0.08379705995321274,9.883264541625977,0.0152587890625,-1.3275146484375,-0.1373291015625
2.8299999,0.47165772318840027,0.08619125932455063,9.883264541625977,0.0457763671875,-1.3275146484375,-0.152587890625
2.8499999,0.47165772318840027,0.08858546614646912,9.883264541625977,-0.091552734375,-1.312255859375,-0.1373291015625
2.8699999,0.47405192255973816,0.090979665517807,9.885659217834473,0.091552734375,-1.3427734375,-0.1068115234375
2.8899999,0.47405192255973816,0.0933738648891449,9.885659217834473,0.0762939453125,-1.4190673828125,-0.0762939453125
2.9099999,0.47405192255973816,0.090979665517807,9.890447616577148,-0.1983642578125,-1.2664794921875,-0.06103515625
2.9299999,0.47405192255973816,0.090979665517807,9.890447616577148,0.06103515625,-1.3275146484375,-0.06103515625
2.9499999,0.47165772318840027,0.090979665517807,9.890447616577148,0.1678466796875,-1.373291015625,-0.18310546875
2.9699999,0.47165772318840027,0.0933738648891449,9.890447616577148,-0.1373291015625,-1.3427734375,-0.1983642578125
2.9899999,0.47165772318840027,0.0933738648891449,9.890447616577148,-0.244140625,-1.2664794921875,-0.152587890625
3.0099999,0.47405192255973816,0.0933738648891449,9.890447616577148,0.1068115234375,-1.3580322265625,-0.152587890625
3.0299999,0.47165772318840027,0.08858546614646912,9.895236015319824,0.06103515625,-1.312255859375,-0.152587890625
3.0499999,0.47165772318840027,0.08379705995321274,9.897629737854004,-0.152587890625,-1.312255859375,-0.1373291015625
3.0699999,0.47165772318840027,0.08379705995321274,9.90241813659668,0.0152587890625,-1.4190673828125,-0.1220703125
3.0899999,0.4692635238170624,0.08379705995321274,9.9000244140625,0.152587890625,-1.3275146484375,-0.152587890625
3.1099999,0.4692635238170624,0.08379705995321274,9.9000244140625,-0.091552734375,-1.2359619140625,-0.1983642578125
3.1299999,0.4692635238170624,0.08140286058187485,9.895236015319824,-0.0457763671875,-1.2054443359375,-0.1678466796875
3.1499999,0.4692635238170624,0.08379705995321274,9.892841339111328,0.030517578125,-1.28173828125,-0.244140625
3.1699999,0.47165772318840027,0.08619125932455063,9.890447616577148,-0.0457763671875,-1.3427734375,-0.1373291015625
3.1899999,0.47405192255973816,0.08858546614646912,9.890447616577148,-0.030517578125,-1.2969970703125,-0.18310546875
3.2099999,0.47644615173339844,0.08619125932455063,9.890447616577148,-0.091552734375,-1.312255859375,-0.1220703125
3.2299999,0.47644615173339844,0.08619125932455063,9.892841339111328,-0.1220703125,-1.3580322265625,-0.18310546875
3.2499999,0.47644615173339844,0.08619125932455063,9.892841339111328,0.030517578125,-1.3885498046875,-0.152587890625
3.2699999,0.47405192255973816,0.08858546614646912,9.890447616577148,0,-1.3580322265625,-0.1220703125
3.2899999,0.47405192255973816,0.090979665517807,9.888052940368652,-0.244140625,-1.2664794921875,-0.1983642578125
3.3099999,0.47405192255973816,0.090979665517807,9.888052940368652,-0.152587890625,-1.2664794921875,-0.1373291015625
3.3299999000000002,0.47405192255973816,0.090979665517807,9.885659217834473,0.2288818359375,-1.40380859375,-0.1220703125
3.3499999,0.47165772318840027,0.090979665517807,9.885659217834473,-0.1678466796875,-1.251220703125,-0.18310546875
3.3699999,0.47165772318840027,0.0933738648891449,9.885659217834473,-0.30517578125,-1.3427734375,-0.1678466796875
3.3899999,0.47405192255973816,0.09576806426048279,9.888052940368652,0.1220703125,-1.3580322265625,-0.1373291015625
3.4099999,0.47405192255973816,0.090979665517807,9.888052940368652,-0.1373291015625,-1.2969970703125,-0.1068115234375
3.4299999,0.47405192255973816,0.08619125932455063,9.890447616577148,-0.2288818359375,-1.312255859375,-0.1678466796875
3.4499999,0.47644615173339844,0.08379705995321274,9.888052940368652,0.1220703125,-1.3427734375,-0.1068115234375
3.4699999,0.47644615173339844,0.08140286058187485,9.888052940368652,-0.1068115234375,-1.312255859375,-0.1678466796875
3.4899999,0.47644615173339844,0.08379705995321274,9.885659217834473,-0.3204345703125,-1.2969970703125,-0.2288818359375
3.5099999,0.47644615173339844,0.08379705995321274,9.885659217834473,-0.0152587890625,-1.3275146484375,-0.1220703125
3.5299999,0.47405192255973816,0.08619125932455063,9.888052940368652,0,-1.3275146484375,-0.091552734375
3.5499999,0.47165772318840027,0.08858546614646912,9.888052940368652,-0.1068115234375,-1.2969970703125,-0.152587890625
3.5699999,0.4692635238170624,0.08858546614646912,9.892841339111328,-0.0152587890625,-1.3885498046875,-0.1068115234375
3.5899999,0.4692635238170624,0.090979665517807,9.892841339111328,-0.0457763671875,-1.373291015625,-0.1068115234375
3.6099999,0.47165772318840027,0.090979665517807,9.895236015319824,-0.1373291015625,-1.312255859375,-0.152587890625
3.6299999,0.47165772318840027,0.08858546614646912,9.892841339111328,0.0457763671875,-1.3427734375,-0.1068115234375
3.6499999,0.47405192255973816,0.08858546614646912,9.892841339111328,-0.06103515625,-1.3580322265625,-0.1373291015625
3.6699999,0.47405192255973816,0.08858546614646912,9.892841339111328,-0.1373291015625,-1.3275146484375,-0.18310546875
3.6899999,0.47405192255973816,0.08858546614646912,9.890447616577148,0,-1.3275146484375,-0.1220703125
3.7099999,0.47165772318840027,0.08858546614646912,9.892841339111328,-0.0762939453125,-1.2359619140625,-0.152587890625
3.7299999,0.47405192255973816,0.08858546614646912,9.892841339111328,-0.0762939453125,-1.28173828125,-0.2288818359375
3.7499999,0.47165772318840027,0.08619125932455063,9.9000244140625,-0.79345703125,-1.1138916015625,-0.1678466796875
3.7699999,0.47405192255973816,0.08619125932455063,9.892841339111328,0.244140625,-1.3275146484375,-0.1068115234375
3.7899999,0.47405192255973816,0.08379705995321274,9.895236015319824,-0.3662109375,-1.15966796875,-0.091552734375
3.8099999,0.47405192255973816,0.08379705995321274,9.890447616577148,-0.2899169921875,-1.15966796875,-0.1678466796875
3.8299999000000002,0.47644615173339844,0.08619125932455063,9.885659217834473,0.335693359375,-1.4495849609375,-0.1983642578125
3.8499999,0.47644615173339844,0.08858546614646912,9.890447616577148,-0.1068115234375,-1.3580322265625,-0.1373291015625
3.8699999,0.47405192255973816,0.08858546614646912,9.890447616577148,-0.30517578125,-1.2359619140625,-0.1068115234375
3.8899999,0.47165772318840027,0.090979665517807,9.895236015319824,0.3204345703125,-1.40380859375,-0.0457763671875
3.9099999,0.4692635238170624,0.090979665517807,9.892841339111328,0.1068115234375,-1.4190673828125,-0.152587890625
3.9299999,0.4668693244457245,0.090979665517807,9.895236015319824,-0.2593994140625,-1.28173828125,-0.152587890625
3.9499999,0.4692635238170624,0.0933738648891449,9.890447616577148,0.030517578125,-1.40380859375,-0.18310546875
3.9699999,0.47405192255973816,0.090979665517807,9.888052940368652,-0.1678466796875,-1.2969970703125,-0.18310546875
3.9899999,0.47644615173339844,0.08858546614646912,9.888052940368652,-0.6256103515625,-1.15966796875,-0.152587890625
4.0099999,0.47884035110473633,0.08619125932455063,9.888052940368652,-0.2899169921875,-1.2664794921875,-0.152587890625
4.029999900000001,0.47644615173339844,0.08140286058187485,9.888052940368652,-0.030517578125,-1.2664794921875,-0.1068115234375
4.0499999,0.47405192255973816,0.08140286058187485,9.888052940368652,-0.3204345703125,-1.15966796875,-0.152587890625
4.069999900000001,0.47405192255973816,0.08140286058187485,9.888052940368652,-0.2593994140625,-1.220703125,-0.1068115234375
4.0899999000000005,0.47405192255973816,0.07900865375995636,9.890447616577148,-0.1983642578125,-1.190185546875,-0.1220703125
4.1099999,0.47405192255973816,0.07422025501728058,9.892841339111328,-0.3662109375,-1.129150390625,-0.1220703125
4.1299999000000005,0.47644615173339844,0.0694318488240242,9.895236015319824,-0.274658203125,-1.15966796875,-0.1373291015625
4.1499999,0.47644615173339844,0.07182604819536209,9.895236015319824,0.0152587890625,-1.2054443359375,-0.152587890625
4.1699999000000005,0.47644615173339844,0.07182604819536209,9.892841339111328,0.0152587890625,-1.1444091796875,-0.1678466796875
4.1899999,0.47405192255973816,0.07422025501728058,9.890447616577148,-0.2593994140625,-1.068115234375,-0.152587890625
4.209999900000001,0.47165772318840027,0.07422025501728058,9.892841339111328,-0.9918212890625,-0.91552734375,-0.18310546875
4.2299999,0.4692635238170624,0.07422025501728058,9.892841339111328,-0.6103515625,-0.9307861328125,-0.1220703125
4.249999900000001,0.4692635238170624,0.07182604819536209,9.895236015319824,0.2899169921875,-1.190185546875,-0.091552734375
4.2699999,0.4668693244457245,0.07182604819536209,9.897629737854004,0.2288818359375,-1.1444091796875,-0.3662109375
4.289999900000001,0.4620809257030487,0.07182604819536209,9.892841339111328,0.823974609375,-1.0986328125,-1.129150390625
4.3099999,0.4572925269603729,0.07422025501728058,9.885659217834473,0.4730224609375,-1.1749267578125,-0.762939453125
4.329999900000001,0.45250412821769714,0.08619125932455063,9.880870819091797,-0.06103515625,-1.28173828125,-0.0152587890625
4.3499999,0.45250412821769714,0.0933738648891449,9.8784761428833,-0.18310546875,-1.3580322265625,-0.1068115234375
4.369999900000001,0.45489832758903503,0.09576806426048279,9.883264541625977,-0.06103515625,-1.3427734375,-0.2288818359375
4.3899999,0.4572925269603729,0.0933738648891449,9.885659217834473,0,-1.2359619140625,-0.1373291015625
4.409999900000001,0.4596867263317108,0.08858546614646912,9.890447616577148,-0.0152587890625,-1.312255859375,-0.152587890625
4.4299999,0.4596867263317108,0.08619125932455063,9.890447616577148,0.091552734375,-1.3580322265625,-0.1068115234375
4.449999900000001,0.4644751250743866,0.08379705995321274,9.890447616577148,0.0457763671875,-1.2664794921875,-0.152587890625
4.4699999,0.4644751250743866,0.08379705995321274,9.890447616577148,-0.1068115234375,-1.312255859375,-0.152587890625
4.489999900000001,0.4620809257030487,0.08140286058187485,9.888052940368652,-0.030517578125,-1.2664794921875,-0.091552734375
4.5099999,0.4596867263317108,0.08140286058187485,9.888052940368652,-0.0762939453125,-1.3580322265625,-0.1068115234375
4.529999900000001,0.4572925269603729,0.08619125932455063,9.885659217834473,-0.0762939453125,-1.40380859375,-0.18310546875
4.5499999,0.4572925269603729,0.08619125932455063,9.888052940368652,-0.0152587890625,-1.3885498046875,-0.1373291015625
4.569999900000001,0.45489832758903503,0.08858546614646912,9.888052940368652,-0.06103515625,-1.3275146484375,-0.091552734375
4.5899999000000005,0.4572925269603729,0.08379705995321274,9.890447616577148,-0.06103515625,-1.3885498046875,-0.091552734375
4.609999900000001,0.4572925269603729,0.08140286058187485,9.892841339111328,0,-1.3427734375,-0.1678466796875
4.6299999000000005,0.4596867263317108,0.08140286058187485,9.892841339111328,-0.0457763671875,-1.220703125,-0.1373291015625
4.6499999,0.4620809257030487,0.07900865375995636,9.892841339111328,-0.0762939453125,-1.2664794921875,-0.091552734375
4.6699999000000005,0.4644751250743866,0.08140286058187485,9.892841339111328,-0.0152587890625,-1.28173828125,-0.1068115234375
4.6899999,0.4620809257030487,0.08379705995321274,9.892841339111328,-0.030517578125,-1.2664794921875,-0.213623046875
4.709999900000001,0.4596867263317108,0.08619125932455063,9.892841339111328,0,-1.3275146484375,-0.1678466796875
4.7299999,0.4596867263317108,0.090979665517807,9.883264541625977,-0.1068115234375,-1.3427734375,-0.06103515625
4.749999900000001,0.45250412821769714,0.0933738648891449,9.890447616577148,-0.3509521484375,-1.3885498046875,-0.518798828125
4.7699999,0.4572925269603729,0.0933738648891449,9.873687744140625,2.0751953125,-1.434326171875,-1.9073486328125
4.789999900000001,0.4620809257030487,0.08140286058187485,9.892841339111328,-0.1983642578125,-1.0833740234375,-0.9918212890625
4.8099999,0.4644751250743866,0.08140286058187485,9.885659217834473,-0.946044921875,-1.0223388671875,-0.732421875
4.829999900000001,0.4668693244457245,0.07661445438861847,9.892841339111328,0.6866455078125,-1.4190673828125,-0.1983642578125
4.8499999,0.4596867263317108,0.08379705995321274,9.897629737854004,-0.5645751953125,-1.3885498046875,-0.091552734375
4.869999900000001,0.4572925269603729,0.08858546614646912,9.895236015319824,-0.4425048828125,-1.5106201171875,-0.274658203125
4.8899999,0.4596867263317108,0.08379705995321274,9.892841339111328,0.3204345703125,-1.3580322265625,-0.2899169921875
4.909999900000001,0.4620809257030487,0.08140286058187485,9.895236015319824,-0.1220703125,-1.2969970703125,-0.18310546875
4.9299999,0.4620809257030487,0.07900865375995636,9.890447616577148,-0.1068115234375,-1.3580322265625,-0.152587890625
4.949999900000001,0.4596867263317108,0.08858546614646912,9.888052940368652,-0.0762939453125,-1.5411376953125,-0.1373291015625
4.9699999,0.4644751250743866,0.08619125932455063,9.885659217834473,-0.244140625,-1.373291015625,-0.1220703125
4.989999900000001,0.4692635238170624,0.08140286058187485,9.885659217834473,0.091552734375,-1.251220703125,-0.213623046875
5.0099999,0.4668693244457245,0.07661445438861847,9.888052940368652,-0.0152587890625,-1.1138916015625,-0.213623046875
5.029999900000001,0.4620809257030487,0.07900865375995636,9.888052940368652,-0.1678466796875,-1.3580322265625,-0.1068115234375
5.0499999,0.4596867263317108,0.08858546614646912,9.873687744140625,1.556396484375,-1.953125,-0.0457763671875
5.069999900000001,0.4596867263317108,0.0933738648891449,9.885659217834473,0.1068115234375,-1.4495849609375,-0.274658203125
5.0899999000000005,0.4596867263317108,0.0933738648891449,9.883264541625977,-0.579833984375,-1.1444091796875,-0.244140625
5.109999900000001,0.4620809257030487,0.08858546614646912,9.890447616577148,1.1138916015625,-1.6021728515625,-0.1373291015625
5.1299999000000005,0.4572925269603729,0.090979665517807,9.892841339111328,-0.091552734375,-1.495361328125,-0.1678466796875
5.1499999,0.4572925269603729,0.0933738648891449,9.885659217834473,-0.0152587890625,-1.5106201171875,-0.1068115234375
5.1699999000000005,0.4620809257030487,0.09576806426048279,9.880870819091797,0.4425048828125,-1.46484375,-0.1373291015625
5.1899999,0.4692635238170624,0.0933738648891449,9.885659217834473,-0.0457763671875,-1.220703125,-0.1678466796875
5.209999900000001,0.4692635238170624,0.0933738648891449,9.888052940368652,0.5645751953125,-1.3885498046875,-0.1678466796875
5.2299999,0.4692635238170624,0.09816227108240128,9.90241813659668,0.885009765625,-1.5716552734375,-0.091552734375
5.249999900000001,0.4692635238170624,0.10773907601833344,9.897629737854004,1.0833740234375,-1.678466796875,0.1220703125
5.2699999,0.47165772318840027,0.11252748221158981,9.895236015319824,0.274658203125,-1.4495849609375,-0.091552734375
5.289999900000001,0.47165772318840027,0.11252748221158981,9.888052940368652,0.1983642578125,-1.40380859375,-0.152587890625
5.3099999,0.47165772318840027,0.11013327538967133,9.8784761428833,0.42724609375,-1.4801025390625,-0.0457763671875
5.329999900000001,0.47165772318840027,0.11013327538967133,9.8784761428833,-0.0762939453125,-1.3275146484375,-0.0457763671875
5.3499999,0.47405192255973816,0.11252748221158981,9.8784761428833,0.1983642578125,-1.3427734375,-0.152587890625
5.369999900000001,0.47405192255973816,0.11252748221158981,9.883264541625977,-0.152587890625,-1.251220703125,-0.1220703125
5.3899999,0.4692635238170624,0.11252748221158981,9.890447616577148,-0.518798828125,-1.190185546875,-0.1220703125
5.409999900000001,0.4668693244457245,0.11252748221158981,9.895236015319824,0.1220703125,-1.3885498046875,-0.2288818359375
5.4299999,0.4644751250743866,0.11252748221158981,9.895236015319824,0.4425048828125,-1.5106201171875,-0.1678466796875
5.449999900000001,0.4668693244457245,0.1149216815829277,9.892841339111328,-0.4730224609375,-1.28173828125,-0.18310546875
5.4699999,0.47165772318840027,0.11252748221158981,9.890447616577148,-0.762939453125,-1.15966796875,-0.1220703125
5.489999900000001,0.47405192255973816,0.11013327538967133,9.890447616577148,0.1068115234375,-1.373291015625,-0.1678466796875
5.5099999,0.47405192255973816,0.10534487664699554,9.888052940368652,0.18310546875,-1.3427734375,-0.1373291015625
5.529999900000001,0.47405192255973816,0.10295066982507706,9.888052940368652,-0.152587890625,-1.312255859375,-0.1373291015625
5.5499999,0.47644615173339844,0.10534487664699554,9.885659217834473,-0.1373291015625,-1.2359619140625,-0.1220703125
5.569999900000001,0.47405192255973816,0.10773907601833344,9.883264541625977,0.0762939453125,-1.312255859375,-0.18310546875
5.5899999000000005,0.47405192255973816,0.10773907601833344,9.880870819091797,-0.0152587890625,-1.2359619140625,-0.152587890625
5.609999900000001,0.4692635238170624,0.10773907601833344,9.883264541625977,0,-1.251220703125,-0.1220703125
5.6299999000000005,0.4692635238170624,0.11013327538967133,9.883264541625977,0.5645751953125,-1.434326171875,-0.0762939453125
5.6499999,0.4644751250743866,0.11013327538967133,9.8784761428833,0.06103515625,-1.2969970703125,0.42724609375
5.6699999000000005,0.4620809257030487,0.11013327538967133,9.880870819091797,-1.7852783203125,-0.8087158203125,0.54931640625
5.6899999,0.4620809257030487,0.10773907601833344,9.880870819091797,-0.06103515625,-1.28173828125,-0.1983642578125
5.709999900000001,0.4644751250743866,0.10534487664699554,9.883264541625977,0.5645751953125,-1.3885498046875,-0.1678466796875
5.7299999,0.4668693244457245,0.10295066982507706,9.888052940368652,0.030517578125,-1.28173828125,-0.091552734375
5.749999900000001,0.4692635238170624,0.10534487664699554,9.890447616577148,-0.244140625,-1.251220703125,-0.1220703125
5.7699999,0.4692635238170624,0.10773907601833344,9.888052940368652,0.2288818359375,-1.3275146484375,-0.213623046875
5.789999900000001,0.4644751250743866,0.10773907601833344,9.885659217834473,0.1373291015625,-1.3580322265625,-0.1220703125
5.8099999,0.4644751250743866,0.10534487664699554,9.883264541625977,0.1068115234375,-1.312255859375,-0.1220703125
5.829999900000001,0.4668693244457245,0.10773907601833344,9.880870819091797,0.274658203125,-1.373291015625,-0.1068115234375
5.8499999,0.4668693244457245,0.10773907601833344,9.880870819091797,0.18310546875,-1.3580322265625,-0.1220703125
5.869999900000001,0.4692635238170624,0.11013327538967133,9.880870819091797,0.1983642578125,-1.40380859375,-0.0457763671875
5.8899999,0.47165772318840027,0.11013327538967133,9.883264541625977,-0.0457763671875,-1.312255859375,-0.152587890625
5.909999900000001,0.47405192255973816,0.11013327538967133,9.885659217834473,0.06103515625,-1.28173828125,-0.1678466796875
5.9299999,0.47405192255973816,0.11013327538967133,9.890447616577148,0.030517578125,-1.28173828125,-0.18310546875
5.949999900000001,0.47165772318840027,0.11013327538967133,9.895236015319824,0.091552734375,-1.40380859375,-0.1373291015625
5.9699999,0.4644751250743866,0.10534487664699554,9.880870819091797,-0.2288818359375,-1.3275146484375,0.5340576171875
5.989999900000001,0.4644751250743866,0.10534487664699554,9.890447616577148,-3.509521484375,-0.3662109375,1.52587890625
6.0099999,0.4644751250743866,0.10055647045373917,9.880870819091797,0.42724609375,-1.4801025390625,-0.1373291015625
6.029999900000001,0.47165772318840027,0.10295066982507706,9.890447616577148,1.0986328125,-1.678466796875,-0.1373291015625
6.0499999,0.47405192255973816,0.10295066982507706,9.897629737854004,0.4119873046875,-1.5411376953125,-0.0762939453125
6.069999900000001,0.47165772318840027,0.10055647045373917,9.892841339111328,0.2593994140625,-1.434326171875,0.1220703125
6.0899999000000005,0.47405192255973816,0.10534487664699554,9.892841339111328,-1.739501953125,-0.8392333984375,0.9307861328125
6.109999900000001,0.4692635238170624,0.10295066982507706,9.888052940368652,-0.3814697265625,-1.1749267578125,0.0457763671875
6.1299999000000005,0.47165772318840027,0.10773907601833344,9.888052940368652,0.1373291015625,-1.3427734375,-0.2593994140625
6.149999900000001,0.47165772318840027,0.11252748221158981,9.890447616577148,-0.335693359375,-1.28173828125,-0.1068115234375
6.1699999000000005,0.47165772318840027,0.11252748221158981,9.888052940368652,-0.3509521484375,-1.3427734375,-0.1220703125
6.1899999,0.47165772318840027,0.10773907601833344,9.880870819091797,-0.5035400390625,-1.28173828125,-0.152587890625
6.209999900000001,0.4692635238170624,0.10055647045373917,9.890447616577148,-3.1585693359375,-0.6256103515625,-0.06103515625
6.2299999,0.47165772318840027,0.090979665517807,9.885659217834473,-0.6561279296875,-1.129150390625,-0.1373291015625
6.249999900000001,0.47165772318840027,0.08379705995321274,9.897629737854004,0.3662109375,-1.373291015625,-0.18310546875
6.2699999,0.47165772318840027,0.07661445438861847,9.9000244140625,0.18310546875,-1.312255859375,-0.152587890625
6.289999900000001,0.4692635238170624,0.07661445438861847,9.897629737854004,0.1068115234375,-1.2969970703125,-0.152587890625
6.3099999,0.4668693244457245,0.08379705995321274,9.895236015319824,0.3662109375,-1.3885498046875,-0.1373291015625
6.329999900000001,0.4620809257030487,0.090979665517807,9.890447616577148,0.6561279296875,-1.495361328125,-0.06103515625
6.3499999,0.4596867263317108,0.09576806426048279,9.890447616577148,-0.3662109375,-1.28173828125,-0.152587890625
6.369999900000001,0.4572925269603729,0.09816227108240128,9.888052940368652,-0.274658203125,-1.2664794921875,-0.152587890625
6.3899999,0.4572925269603729,0.09816227108240128,9.888052940368652,0.0762939453125,-1.3885498046875,-0.091552734375
6.409999900000001,0.4596867263317108,0.09816227108240128,9.890447616577148,-0.4119873046875,-1.220703125,-0.18310546875
6.4299999,0.4644751250743866,0.09576806426048279,9.892841339111328,-0.18310546875,-1.2359619140625,-0.18310546875
6.449999900000001,0.4692635238170624,0.090979665517807,9.895236015319824,0.152587890625,-1.3427734375,-0.1373291015625
6.4699999,0.47165772318840027,0.08619125932455063,9.895236015319824,-0.2899169921875,-1.190185546875,-0.1983642578125
6.489999900000001,0.47165772318840027,0.08379705995321274,9.890447616577148,-0.1678466796875,-1.2664794921875,-0.091552734375
6.5099999,0.4692635238170624,0.08140286058187485,9.890447616577148,-0.8087158203125,-1.1444091796875,-0.1373291015625
6.529999900000001,0.4668693244457245,0.08619125932455063,9.883264541625977,0.0152587890625,-1.40380859375,-0.1678466796875
6.5499999,0.4620809257030487,0.08619125932455063,9.883264541625977,-0.732421875,-1.190185546875,-0.244140625
6.569999900000001,0.4596867263317108,0.08619125932455063,9.883264541625977,-0.823974609375,-1.0528564453125,-0.1983642578125
6.5899999000000005,0.4596867263317108,0.08619125932455063,9.883264541625977,0.3662109375,-1.5106201171875,-0.1373291015625
6.609999900000001,0.4596867263317108,0.08619125932455063,9.890447616577148,-0.0762939453125,-1.434326171875,-0.1678466796875
6.6299999000000005,0.4620809257030487,0.08379705995321274,9.892841339111328,-0.2899169921875,-1.251220703125,-0.1373291015625
6.649999900000001,0.4668693244457245,0.08140286058187485,9.895236015319824,0.3814697265625,-1.3427734375,-0.1373291015625
6.6699999000000005,0.4692635238170624,0.07661445438861847,9.897629737854004,0.30517578125,-1.40380859375,-0.1373291015625
6.6899999,0.47165772318840027,0.07422025501728058,9.895236015319824,0.2593994140625,-1.3427734375,-0.244140625
6.709999900000001,0.47405192255973816,0.07900865375995636,9.890447616577148,0.06103515625,-1.312255859375,-0.1678466796875
6.7299999,0.47405192255973816,0.08379705995321274,9.888052940368652,-0.1678466796875,-1.312255859375,-0.1373291015625
6.749999900000001,0.4692635238170624,0.08858546614646912,9.883264541625977,-0.0762939453125,-1.3885498046875,-0.1373291015625
6.7699999,0.4668693244457245,0.08858546614646912,9.883264541625977,-0.0762939453125,-1.3427734375,-0.1678466796875
6.789999900000001,0.4668693244457245,0.08858546614646912,9.883264541625977,-0.0152587890625,-1.3580322265625,-0.213623046875
6.8099999,0.4668693244457245,0.08858546614646912,9.885659217834473,-0.0457763671875,-1.40380859375,-0.091552734375
6.829999900000001,0.4692635238170624,0.08858546614646912,9.888052940368652,-0.213623046875,-1.312255859375,-0.091552734375
6.8499999,0.4692635238170624,0.08858546614646912,9.890447616577148,-0.1220703125,-1.220703125,-0.152587890625
6.869999900000001,0.4692635238170624,0.08619125932455063,9.895236015319824,-0.0457763671875,-1.28173828125,-0.152587890625
6.8899999,0.4692635238170624,0.08379705995321274,9.897629737854004,0.091552734375,-1.2664794921875,-0.1373291015625
6.909999900000001,0.4692635238170624,0.08379705995321274,9.9000244140625,-0.06103515625,-1.312255859375,-0.1678466796875
6.9299999,0.4692635238170624,0.08858546614646912,9.897629737854004,-0.1220703125,-1.2969970703125,-0.152587890625
6.949999900000001,0.4668693244457245,0.090979665517807,9.895236015319824,-0.1220703125,-1.312255859375,-0.1678466796875
6.9699999,0.4644751250743866,0.08858546614646912,9.892841339111328,-0.1220703125,-1.3580322265625,-0.152587890625
6.989999900000001,0.4644751250743866,0.08619125932455063,9.890447616577148,-0.1068115234375,-1.312255859375,-0.18310546875
7.0099999,0.4644751250743866,0.08379705995321274,9.890447616577148,-0.0762939453125,-1.2969970703125,-0.1983642578125
7.029999900000001,0.4644751250743866,0.08140286058187485,9.888052940368652,0,-1.373291015625,-0.1678466796875
7.0499999,0.4644751250743866,0.08140286058187485,9.888052940368652,-0.030517578125,-1.3580322265625,-0.18310546875
7.069999900000001,0.4668693244457245,0.08379705995321274,9.885659217834473,-0.1068115234375,-1.2664794921875,-0.1678466796875
7.0899999000000005,0.4692635238170624,0.08619125932455063,9.885659217834473,-0.06103515625,-1.312255859375,-0.1678466796875
7.109999900000001,0.4692635238170624,0.08858546614646912,9.885659217834473,-0.030517578125,-1.3275146484375,-0.1678466796875
7.1299999000000005,0.4692635238170624,0.090979665517807,9.890447616577148,-0.030517578125,-1.3427734375,-0.1220703125
7.149999900000001,0.4692635238170624,0.0933738648891449,9.892841339111328,0.0152587890625,-1.3275146484375,-0.1373291015625
7.1699999000000005,0.4692635238170624,0.0933738648891449,9.895236015319824,0.1068115234375,-1.190185546875,-0.213623046875
7.1899999,0.4692635238170624,0.0933738648891449,9.897629737854004,0.213623046875,-1.2054443359375,-0.213623046875
7.209999900000001,0.4692635238170624,0.090979665517807,9.897629737854004,-0.1068115234375,-1.15966796875,-0.1373291015625
7.2299999,0.4668693244457245,0.090979665517807,9.895236015319824,-0.2899169921875,-1.129150390625,-0.1678466796875
7.249999900000001,0.4692635238170624,0.08858546614646912,9.895236015319824,0.2288818359375,-1.2054443359375,-0.2593994140625
7.2699999,0.4668693244457245,0.08858546614646912,9.892841339111328,0.3509521484375,-1.3885498046875,-0.1678466796875
7.289999900000001,0.4620809257030487,0.08858546614646912,9.890447616577148,-0.213623046875,-1.3885498046875,-0.1068115234375
7.3099999,0.4596867263317108,0.090979665517807,9.888052940368652,-0.1068115234375,-1.2969970703125,-0.1373291015625
7.329999900000001,0.4596867263317108,0.0933738648891449,9.885659217834473,-0.0762939453125,-1.495361328125,-0.1373291015625
7.3499999,0.4596867263317108,0.0933738648891449,9.885659217834473,-0.30517578125,-1.40380859375,-0.1373291015625
7.369999900000001,0.4596867263317108,0.090979665517807,9.888052940368652,-0.274658203125,-1.373291015625,-0.1068115234375
7.3899999,0.4620809257030487,0.08619125932455063,9.890447616577148,0.030517578125,-1.4495849609375,-0.091552734375
7.409999900000001,0.4620809257030487,0.08619125932455063,9.892841339111328,-0.030517578125,-1.312255859375,-0.1373291015625
7.4299999,0.4644751250743866,0.08379705995321274,9.892841339111328,0.06103515625,-1.312255859375,-0.18310546875
7.449999900000001,0.4668693244457245,0.08379705995321274,9.890447616577148,0.0152587890625,-1.312255859375,-0.152587890625
7.4699999,0.4644751250743866,0.08379705995321274,9.885659217834473,-0.1220703125,-1.28173828125,-0.091552734375
7.489999900000001,0.4644751250743866,0.08379705995321274,9.883264541625977,0.0152587890625,-1.312255859375,-0.091552734375
7.5099999,0.4644751250743866,0.08858546614646912,9.8784761428833,0.0152587890625,-1.3580322265625,-0.1373291015625
7.529999900000001,0.4644751250743866,0.08858546614646912,9.8784761428833,-0.2593994140625,-1.312255859375,-0.152587890625
7.5499999,0.4644751250743866,0.090979665517807,9.876082420349121,-0.1983642578125,-1.3427734375,-0.213623046875
7.569999900000001,0.4644751250743866,0.08619125932455063,9.8784761428833,0.152587890625,-1.373291015625,-0.213623046875
7.5899999000000005,0.4644751250743866,0.08379705995321274,9.876082420349121,0.0152587890625,-1.3885498046875,-0.152587890625
7.609999900000001,0.4644751250743866,0.08379705995321274,9.880870819091797,-0.1373291015625,-1.2969970703125,-0.1220703125
7.6299999000000005,0.4644751250743866,0.08379705995321274,9.883264541625977,0.0457763671875,-1.3580322265625,-0.1220703125
7.649999900000001,0.4644751250743866,0.08619125932455063,9.885659217834473,-0.0457763671875,-1.40380859375,-0.1068115234375
7.6699999000000005,0.4644751250743866,0.090979665517807,9.888052940368652,-0.1220703125,-1.312255859375,-0.091552734375
7.6899999,0.4620809257030487,0.090979665517807,9.885659217834473,0.0152587890625,-1.3885498046875,-0.1373291015625
7.709999900000001,0.4620809257030487,0.090979665517807,9.885659217834473,0.0152587890625,-1.3275146484375,-0.18310546875
7.7299999,0.4644751250743866,0.08858546614646912,9.883264541625977,-0.030517578125,-1.3427734375,-0.1678466796875
7.749999900000001,0.4644751250743866,0.08619125932455063,9.883264541625977,-0.091552734375,-1.312255859375,-0.1373291015625
7.7699999,0.4668693244457245,0.08379705995321274,9.885659217834473,-0.06103515625,-1.2664794921875,-0.18310546875
7.789999900000001,0.4692635238170624,0.08140286058187485,9.888052940368652,-0.0762939453125,-1.3275146484375,-0.1983642578125
7.8099999,0.4668693244457245,0.08379705995321274,9.888052940368652,-0.091552734375,-1.312255859375,-0.1983642578125
7.829999900000001,0.4668693244457245,0.08619125932455063,9.888052940368652,-0.18310546875,-1.2969970703125,-0.152587890625
7.8499999,0.4668693244457245,0.08858546614646912,9.888052940368652,-0.18310546875,-1.3427734375,-0.0762939453125
7.869999900000001,0.4668693244457245,0.090979665517807,9.888052940368652,-0.06103515625,-1.3427734375,-0.1678466796875
7.8899999,0.4644751250743866,0.08858546614646912,9.888052940368652,-0.091552734375,-1.312255859375,-0.1983642578125
7.909999900000001,0.4668693244457245,0.08858546614646912,9.885659217834473,-0.091552734375,-1.3275146484375,-0.1068115234375
7.9299999,0.4668693244457245,0.08858546614646912,9.885659217834473,-0.1373291015625,-1.3885498046875,-0.1220703125
7.949999900000001,0.4668693244457245,0.08858546614646912,9.885659217834473,-0.1068115234375,-1.312255859375,-0.1678466796875
7.9699999,0.4692635238170624,0.08858546614646912,9.885659217834473,-0.1220703125,-1.373291015625,-0.1220703125
7.989999900000001,0.4692635238170624,0.08858546614646912,9.885659217834473,-0.0762939453125,-1.3275146484375,-0.0762939453125
8.0099999,0.4692635238170624,0.08858546614646912,9.883264541625977,-0.1220703125,-1.373291015625,-0.152587890625
8.0299999,0.4692635238170624,0.08858546614646912,9.883264541625977,-0.1068115234375,-1.3427734375,-0.18310546875
8.049999900000001,0.4692635238170624,0.08858546614646912,9.883264541625977,-0.0152587890625,-1.3275146484375,-0.1068115234375
8.069999900000001,0.4668693244457245,0.08619125932455063,9.883264541625977,-0.0762939453125,-1.312255859375,-0.1373291015625
8.0899999,0.4668693244457245,0.08619125932455063,9.888052940368652,-0.1678466796875,-1.312255859375,-0.1373291015625
8.1099999,0.4644751250743866,0.08619125932455063,9.888052940368652,-0.0152587890625,-1.2664794921875,-0.1373291015625
8.129999900000001,0.4644751250743866,0.08858546614646912,9.890447616577148,0.1373291015625,-1.190185546875,-0.2288818359375
8.149999900000001,0.4644751250743866,0.08619125932455063,9.888052940368652,0.06103515625,-1.1444091796875,-0.213623046875
8.1699999,0.4668693244457245,0.08379705995321274,9.890447616577148,-0.030517578125,-1.1138916015625,-0.213623046875
8.1899999,0.4668693244457245,0.08379705995321274,9.888052940368652,-0.0152587890625,-1.2054443359375,-0.152587890625
8.2099999,0.4668693244457245,0.08140286058187485,9.888052940368652,-0.1068115234375,-1.3427734375,-0.18310546875
8.229999900000001,0.4668693244457245,0.08379705995321274,9.888052940368652,-0.2288818359375,-1.2969970703125,-0.152587890625
8.2499999,0.4644751250743866,0.08619125932455063,9.885659217834473,-0.1068115234375,-1.3275146484375,-0.1220703125
8.2699999,0.4644751250743866,0.08379705995321274,9.890447616577148,0,-1.2359619140625,-0.1678466796875
8.2899999,0.4644751250743866,0.08619125932455063,9.890447616577148,0.091552734375,-1.2969970703125,-0.1678466796875
8.309999900000001,0.4620809257030487,0.08619125932455063,9.888052940368652,0.06103515625,-1.3580322265625,-0.213623046875
8.3299999,0.4620809257030487,0.08619125932455063,9.890447616577148,0,-1.312255859375,-0.1373291015625
8.3499999,0.4620809257030487,0.090979665517807,9.880870819091797,0,-1.28173828125,-0.1068115234375
8.3699999,0.4620809257030487,0.0933738648891449,9.880870819091797,0.0152587890625,-1.312255859375,-0.1068115234375
8.389999900000001,0.4620809257030487,0.09576806426048279,9.880870819091797,0,-1.2969970703125,-0.0762939453125
8.4099999,0.4620809257030487,0.09816227108240128,9.880870819091797,-0.0152587890625,-1.3427734375,-0.1220703125
8.4299999,0.4644751250743866,0.09576806426048279,9.885659217834473,-0.18310546875,-1.28173828125,-0.1068115234375
8.4499999,0.4668693244457245,0.09576806426048279,9.888052940368652,-0.3204345703125,-1.2664794921875,-0.1220703125
8.469999900000001,0.4668693244457245,0.0933738648891449,9.888052940368652,-0.1373291015625,-1.28173828125,-0.0762939453125
8.4899999,0.4668693244457245,0.090979665517807,9.892841339111328,-0.030517578125,-1.3275146484375,-0.0457763671875
8.5099999,0.4668693244457245,0.08858546614646912,9.895236015319824,0.0152587890625,-1.312255859375,-0.091552734375
8.5299999,0.4668693244457245,0.08858546614646912,9.895236015319824,-0.0762939453125,-1.2664794921875,-0.1220703125
8.549999900000001,0.4668693244457245,0.090979665517807,9.895236015319824,-0.0152587890625,-1.3580322265625,-0.1983642578125
8.569999900000001,0.4644751250743866,0.090979665517807,9.892841339111328,-0.0152587890625,-1.3275146484375,-0.152587890625
8.5899999,0.4644751250743866,0.0933738648891449,9.890447616577148,-0.030517578125,-1.373291015625,-0.0457763671875
8.6099999,0.4644751250743866,0.0933738648891449,9.888052940368652,-0.030517578125,-1.3427734375,-0.18310546875
8.629999900000001,0.4668693244457245,0.0933738648891449,9.888052940368652,0,-1.312255859375,-0.1983642578125
8.649999900000001,0.4668693244457245,0.0933738648891449,9.888052940368652,-0.06103515625,-1.3275146484375,-0.1068115234375
8.6699999,0.4668693244457245,0.0933738648891449,9.888052940368652,-0.091552734375,-1.3580322265625,-0.0762939453125
8.6899999,0.4668693244457245,0.0933738648891449,9.888052940368652,0.06103515625,-1.3885498046875,-0.213623046875
8.709999900000001,0.4692635238170624,0.0933738648891449,9.890447616577148,-0.030517578125,-1.3580322265625,-0.1678466796875
8.729999900000001,0.4692635238170624,0.0933738648891449,9.892841339111328,-0.0762939453125,-1.312255859375,-0.091552734375
8.7499999,0.47165772318840027,0.090979665517807,9.895236015319824,-0.091552734375,-1.3427734375,-0.18310546875
8.7699999,0.47405192255973816,0.0933738648891449,9.895236015319824,-0.091552734375,-1.3580322265625,-0.1678466796875
8.7899999,0.47405192255973816,0.090979665517807,9.892841339111328,-0.06103515625,-1.3427734375,-0.1678466796875
8.809999900000001,0.47405192255973816,0.090979665517807,9.890447616577148,-0.1678466796875,-1.373291015625,-0.213623046875
8.8299999,0.47405192255973816,0.08858546614646912,9.888052940368652,-0.1220703125,-1.3580322265625,-0.152587890625
8.8499999,0.47405192255973816,0.08619125932455063,9.888052940368652,0.0152587890625,-1.2969970703125,-0.1678466796875
8.8699999,0.47165772318840027,0.08619125932455063,9.885659217834473,-0.1220703125,-1.2359619140625,-0.18310546875
8.889999900000001,0.4692635238170624,0.08858546614646912,9.885659217834473,-0.0457763671875,-1.28173828125,-0.213623046875
8.9099999,0.4668693244457245,0.08858546614646912,9.885659217834473,-0.0762939453125,-1.2969970703125,-0.1220703125
8.9299999,0.4644751250743866,0.090979665517807,9.888052940368652,-0.244140625,-1.2359619140625,-0.1678466796875
8.9499999,0.4620809257030487,0.090979665517807,9.890447616577148,-0.0457763671875,-1.2664794921875,-0.152587890625
8.969999900000001,0.4620809257030487,0.08858546614646912,9.892841339111328,-0.06103515625,-1.3275146484375,-0.1068115234375
8.9899999,0.4644751250743866,0.08619125932455063,9.892841339111328,-0.1220703125,-1.312255859375,-0.06103515625
9.0099999,0.4644751250743866,0.08379705995321274,9.895236015319824,-0.06103515625,-1.2969970703125,-0.18310546875
9.0299999,0.4644751250743866,0.08379705995321274,9.892841339111328,-0.091552734375,-1.3427734375,-0.152587890625
9.049999900000001,0.4668693244457245,0.08379705995321274,9.892841339111328,-0.06103515625,-1.2969970703125,-0.1068115234375
9.069999900000001,0.4668693244457245,0.08619125932455063,9.890447616577148,-0.1068115234375,-1.312255859375,-0.1373291015625
9.0899999,0.4692635238170624,0.08858546614646912,9.885659217834473,-0.6866455078125,-1.190185546875,-0.1678466796875
9.1099999,0.47165772318840027,0.08619125932455063,9.885659217834473,-1.4190673828125,-0.9765625,-0.1678466796875
9.129999900000001,0.47405192255973816,0.08379705995321274,9.885659217834473,0.2288818359375,-1.4190673828125,-0.1220703125
9.149999900000001,0.47405192255973816,0.07900865375995636,9.888052940368652,-0.518798828125,-1.1749267578125,-0.152587890625
9.1699999,0.47405192255973816,0.07900865375995636,9.890447616577148,-0.0762939453125,-1.28173828125,-0.213623046875
9.1899999,0.47165772318840027,0.08140286058187485,9.888052940368652,0.1678466796875,-1.3275146484375,-0.152587890625
9.209999900000001,0.4692635238170624,0.07900865375995636,9.885659217834473,-0.1373291015625,-1.28173828125,-0.152587890625
9.229999900000001,0.4668693244457245,0.07900865375995636,9.888052940368652,-0.3204345703125,-1.251220703125,-0.1220703125
9.2499999,0.4644751250743866,0.08140286058187485,9.885659217834473,0.2899169921875,-1.3885498046875,-0.091552734375
9.2699999,0.4668693244457245,0.07900865375995636,9.888052940368652,-0.152587890625,-1.2664794921875,-0.18310546875
9.2899999,0.4644751250743866,0.08379705995321274,9.888052940368652,-0.213623046875,-1.2969970703125,-0.18310546875
9.309999900000001,0.4644751250743866,0.08379705995321274,9.885659217834473,0.213623046875,-1.3427734375,-0.1068115234375
9.3299999,0.4644751250743866,0.08140286058187485,9.888052940368652,-0.091552734375,-1.2969970703125,-0.1373291015625
9.3499999,0.4668693244457245,0.08140286058187485,9.885659217834473,0,-1.2664794921875,-0.1068115234375
9.3699999,0.4668693244457245,0.08140286058187485,9.888052940368652,0.0152587890625,-1.2969970703125,-0.091552734375
9.389999900000001,0.4668693244457245,0.08140286058187485,9.888052940368652,-0.152587890625,-1.2359619140625,-0.1220703125
9.4099999,0.4644751250743866,0.08140286058187485,9.890447616577148,-0.06103515625,-1.251220703125,-0.1220703125
9.4299999,0.4668693244457245,0.08140286058187485,9.888052940368652,0.1068115234375,-1.3580322265625,-0.1678466796875
9.4499999,0.4668693244457245,0.07900865375995636,9.890447616577148,-0.1373291015625,-1.3275146484375,-0.1068115234375
9.469999900000001,0.4692635238170624,0.08140286058187485,9.888052940368652,-0.1068115234375,-1.3427734375,-0.152587890625
9.4899999,0.4692635238170624,0.08379705995321274,9.888052940368652,0.030517578125,-1.373291015625,-0.213623046875
9.5099999,0.47405192255973816,0.08379705995321274,9.892841339111328,-0.1983642578125,-1.251220703125,-0.1678466796875
9.5299999,0.47165772318840027,0.08619125932455063,9.892841339111328,-0.030517578125,-1.28173828125,-0.1068115234375
9.549999900000001,0.4692635238170624,0.08619125932455063,9.895236015319824,0.213623046875,-1.373291015625,-0.1220703125
9.569999900000001,0.4668693244457245,0.08619125932455063,9.895236015319824,-0.0762939453125,-1.3427734375,-0.1983642578125
9.5899999,0.4644751250743866,0.08619125932455063,9.895236015319824,-0.1373291015625,-1.312255859375,-0.1678466796875
9.6099999,0.4644751250743866,0.08619125932455063,9.895236015319824,-0.06103515625,-1.3427734375,-0.1220703125
9.629999900000001,0.4620809257030487,0.08379705995321274,9.892841339111328,-0.030517578125,-1.3275146484375,-0.18310546875
9.649999900000001,0.4620809257030487,0.08140286058187485,9.892841339111328,0.1220703125,-1.3885498046875,-0.1373291015625
9.6699999,0.4644751250743866,0.07900865375995636,9.892841339111328,0.091552734375,-1.2664794921875,-0.1678466796875
9.6899999,0.4644751250743866,0.07422025501728058,9.890447616577148,0.0152587890625,-1.251220703125,-0.1983642578125
9.709999900000001,0.4644751250743866,0.07182604819536209,9.890447616577148,0.1678466796875,-1.2359619140625,-0.1678466796875
9.729999900000001,0.4620809257030487,0.07182604819536209,9.892841339111328,0.2593994140625,-1.2969970703125,-0.1220703125
9.7499999,0.4596867263317108,0.07422025501728058,9.890447616577148,0.3204345703125,-1.3275146484375,-0.152587890625
9.7699999,0.4596867263317108,0.08140286058187485,9.890447616577148,0.3204345703125,-1.434326171875,-0.1220703125
9.7899999,0.4596867263317108,0.08619125932455063,9.888052940368652,0,-1.3275146484375,-0.1373291015625
9.809999900000001,0.4644751250743866,0.090979665517807,9.885659217834473,-0.2899169921875,-1.28173828125,-0.1373291015625
9.8299999,0.4644751250743866,0.090979665517807,9.880870819091797,0.0762939453125,-1.3885498046875,-0.18310546875
9.8499999,0.4644751250743866,0.090979665517807,9.883264541625977,0.1983642578125,-1.373291015625,-0.1678466796875
9.8699999,0.4644751250743866,0.090979665517807,9.885659217834473,0.48828125,-1.434326171875,-0.213623046875
9.889999900000001,0.4668693244457245,0.090979665517807,9.888052940368652,-0.0457763671875,-1.3885498046875,-0.213623046875
9.9099999,0.47165772318840027,0.090979665517807,9.890447616577148,0.1068115234375,-1.3275146484375,-0.1220703125
9.9299999,0.4692635238170624,0.090979665517807,9.890447616577148,0.1068115234375,-1.3275146484375,-0.1678466796875
9.9499999,0.4692635238170624,0.08858546614646912,9.892841339111328,-0.244140625,-1.28173828125,-0.213623046875
9.969999900000001,0.4668693244457245,0.090979665517807,9.890447616577148,0,-1.3427734375,-0.152587890625
9.9899999,0.4644751250743866,0.090979665517807,9.890447616577148,-0.091552734375,-1.312255859375,-0.0762939453125
10.0099999,0.4644751250743866,0.090979665517807,9.890447616577148,-0.2899169921875,-1.28173828125,-0.18310546875
10.0299999,0.4644751250743866,0.090979665517807,9.890447616577148,-0.0457763671875,-1.3580322265625,-0.1220703125
10.049999900000001,0.4620809257030487,0.08858546614646912,9.892841339111328,-0.06103515625,-1.3427734375,-0.1373291015625
10.069999900000001,0.4644751250743866,0.08619125932455063,9.895236015319824,-0.1678466796875,-1.2359619140625,-0.152587890625
10.0899999,0.4668693244457245,0.08619125932455063,9.895236015319824,0.0152587890625,-1.251220703125,-0.091552734375
10.1099999,0.4668693244457245,0.08858546614646912,9.897629737854004,-0.030517578125,-1.28173828125,-0.1373291015625
10.129999900000001,0.4668693244457245,0.08858546614646912,9.895236015319824,-0.2288818359375,-1.2969970703125,-0.18310546875
10.149999900000001,0.4644751250743866,0.08858546614646912,9.892841339111328,0.3662109375,-1.434326171875,-0.1068115234375
10.1699999,0.4644751250743866,0.090979665517807,9.892841339111328,-0.3509521484375,-1.220703125,-0.1678466796875
10.1899999,0.4644751250743866,0.0933738648891449,9.888052940368652,-0.18310546875,-1.2359619140625,-0.1983642578125
10.209999900000001,0.4692635238170624,0.09576806426048279,9.888052940368652,0.1373291015625,-1.3275146484375,-0.1373291015625
10.229999900000001,0.4692635238170624,0.0933738648891449,9.890447616577148,-0.3662109375,-1.220703125,-0.152587890625
10.2499999,0.4692635238170624,0.0933738648891449,9.890447616577148,0.0457763671875,-1.3427734375,-0.1678466796875
10.2699999,0.4692635238170624,0.090979665517807,9.890447616577148,0.091552734375,-1.3885498046875,-0.213623046875
10.2899999,0.4668693244457245,0.08619125932455063,9.892841339111328,-0.4119873046875,-1.251220703125,-0.1068115234375
10.309999900000001,0.4668693244457245,0.08619125932455063,9.892841339111328,-0.213623046875,-1.2969970703125,-0.1220703125
10.3299999,0.4668693244457245,0.08619125932455063,9.892841339111328,0.0457763671875,-1.40380859375,-0.091552734375
10.3499999,0.4692635238170624,0.08379705995321274,9.892841339111328,-0.1068115234375,-1.2969970703125,-0.213623046875
10.3699999,0.47165772318840027,0.08379705995321274,9.890447616577148,-0.152587890625,-1.28173828125,-0.152587890625
10.389999900000001,0.47405192255973816,0.08379705995321274,9.890447616577148,-0.030517578125,-1.3580322265625,-0.1373291015625
10.4099999,0.47405192255973816,0.08140286058187485,9.890447616577148,-0.0457763671875,-1.312255859375,-0.0762939453125
10.4299999,0.47405192255973816,0.07900865375995636,9.890447616577148,-0.0457763671875,-1.2664794921875,-0.1373291015625
10.4499999,0.47165772318840027,0.07661445438861847,9.890447616577148,0.0152587890625,-1.2969970703125,-0.1220703125
10.469999900000001,0.47165772318840027,0.07661445438861847,9.890447616577148,-0.06103515625,-1.28173828125,-0.152587890625
10.4899999,0.47165772318840027,0.07900865375995636,9.890447616577148,-0.152587890625,-1.28173828125,-0.1068115234375
10.5099999,0.47165772318840027,0.08140286058187485,9.890447616577148,-0.0762939453125,-1.2664794921875,-0.091552734375
10.5299999,0.4692635238170624,0.08619125932455063,9.888052940368652,-0.030517578125,-1.2969970703125,-0.152587890625
10.549999900000001,0.4644751250743866,0.08619125932455063,9.885659217834473,0.030517578125,-1.3427734375,-0.152587890625
10.569999900000001,0.4596867263317108,0.08619125932455063,9.885659217834473,-0.0762939453125,-1.373291015625,-0.1678466796875
10.5899999,0.4572925269603729,0.08379705995321274,9.888052940368652,-0.152587890625,-1.28173828125,-0.1373291015625
10.6099999,0.4572925269603729,0.08379705995321274,9.888052940368652,-0.091552734375,-1.2969970703125,-0.18310546875
10.629999900000001,0.4596867263317108,0.08379705995321274,9.892841339111328,-0.0152587890625,-1.373291015625,-0.1678466796875
10.649999900000001,0.4644751250743866,0.08619125932455063,9.892841339111328,-0.1068115234375,-1.28173828125,-0.1373291015625
10.6699999,0.4668693244457245,0.08858546614646912,9.892841339111328,-0.1220703125,-1.28173828125,-0.1220703125
10.6899999,0.4668693244457245,0.090979665517807,9.892841339111328,-0.1220703125,-1.4190673828125,-0.1373291015625
10.709999900000001,0.4668693244457245,0.090979665517807,9.892841339111328,0.0152587890625,-1.312255859375,-0.152587890625
10.729999900000001,0.4668693244457245,0.090979665517807,9.892841339111328,-0.091552734375,-1.2359619140625,-0.1373291015625
10.7499999,0.4668693244457245,0.090979665517807,9.890447616577148,-0.3814697265625,-1.1749267578125,-0.1220703125
10.7699999,0.4668693244457245,0.08858546614646912,9.892841339111328,-0.48828125,-1.2054443359375,-0.18310546875
10.7899999,0.4668693244457245,0.08858546614646912,9.890447616577148,0,-1.28173828125,-0.1983642578125
10.809999900000001,0.4668693244457245,0.08379705995321274,9.890447616577148,0,-1.3580322265625,-0.213623046875
10.8299999,0.4644751250743866,0.08140286058187485,9.890447616577148,-0.335693359375,-1.2969970703125,-0.152587890625
10.8499999,0.4644751250743866,0.07900865375995636,9.890447616577148,-0.06103515625,-1.3885498046875,-0.091552734375
10.8699999,0.4644751250743866,0.07900865375995636,9.890447616577148,0.091552734375,-1.3427734375,-0.1068115234375
10.889999900000001,0.4644751250743866,0.07661445438861847,9.892841339111328,-0.1983642578125,-1.251220703125,-0.152587890625
10.9099999,0.4644751250743866,0.07661445438861847,9.892841339111328,-0.030517578125,-1.312255859375,-0.2288818359375
10.9299999,0.4644751250743866,0.07661445438861847,9.892841339111328,0.152587890625,-1.28173828125,-0.1220703125
10.9499999,0.4620809257030487,0.07900865375995636,9.890447616577148,-0.0152587890625,-1.251220703125,-0.1068115234375
10.969999900000001,0.4620809257030487,0.08140286058187485,9.890447616577148,-0.06103515625,-1.3427734375,-0.1068115234375
10.9899999,0.4644751250743866,0.08619125932455063,9.888052940368652,0.06103515625,-1.373291015625,-0.1068115234375
11.0099999,0.4644751250743866,0.08858546614646912,9.888052940368652,-0.091552734375,-1.2969970703125,-0.1220703125
11.0299999,0.4668693244457245,0.08858546614646912,9.885659217834473,-0.091552734375,-1.2969970703125,-0.030517578125
11.049999900000001,0.4692635238170624,0.090979665517807,9.890447616577148,0.030517578125,-1.373291015625,-0.1068115234375
11.069999900000001,0.47165772318840027,0.090979665517807,9.890447616577148,0.091552734375,-1.373291015625,-0.1068115234375
11.0899999,0.47165772318840027,0.08858546614646912,9.895236015319824,-0.1373291015625,-1.3275146484375,-0.152587890625
11.1099999,0.4692635238170624,0.08619125932455063,9.897629737854004,-0.1220703125,-1.312255859375,-0.1373291015625
11.129999900000001,0.4668693244457245,0.08140286058187485,9.897629737854004,0.1983642578125,-1.3580322265625,-0.1220703125
11.149999900000001,0.4620809257030487,0.08379705995321274,9.897629737854004,0.0152587890625,-1.2969970703125,-0.1678466796875
11.1699999,0.4596867263317108,0.08619125932455063,9.897629737854004,-0.152587890625,-1.3580322265625,-0.152587890625
11.1899999,0.4620809257030487,0.08858546614646912,9.897629737854004,0.5035400390625,-1.4801025390625,-0.091552734375
11.209999900000001,0.4596867263317108,0.090979665517807,9.9000244140625,1.3580322265625,-1.678466796875,-0.0457763671875
11.229999900000001,0.4620809257030487,0.0933738648891449,9.888052940368652,0.9918212890625,-1.5716552734375,-0.0152587890625
11.2499999,0.4644751250743866,0.090979665517807,9.888052940368652,-0.6256103515625,-1.129150390625,-0.152587890625
11.2699999,0.4692635238170624,0.0933738648891449,9.8784761428833,-0.0152587890625,-1.3580322265625,-0.1220703125
11.2899999,0.47165772318840027,0.0933738648891449,9.880870819091797,0.244140625,-1.373291015625,-0.1220703125
11.309999900000001,0.47405192255973816,0.0933738648891449,9.885659217834473,-0.396728515625,-1.2359619140625,-0.1678466796875
11.3299999,0.4692635238170624,0.0933738648891449,9.888052940368652,0.06103515625,-1.3275146484375,-0.1373291015625
11.3499999,0.4692635238170624,0.0933738648891449,9.890447616577148,0.18310546875,-1.28173828125,-0.1983642578125
11.3699999,0.4644751250743866,0.0933738648891449,9.890447616577148,-0.244140625,-1.3275146484375,-0.1678466796875
11.389999900000001,0.4644751250743866,0.0933738648891449,9.888052940368652,-0.4425048828125,-1.2054443359375,-0.1373291015625
11.4099999,0.4644751250743866,0.0933738648891449,9.888052940368652,0.3509521484375,-1.40380859375,-0.1220703125
11.4299999,0.4644751250743866,0.0933738648891449,9.888052940368652,-0.335693359375,-1.251220703125,-0.091552734375
11.4499999,0.4668693244457245,0.0933738648891449,9.885659217834473,-0.2288818359375,-1.28173828125,-0.1373291015625
11.469999900000001,0.4692635238170624,0.09576806426048279,9.885659217834473,0.0152587890625,-1.312255859375,-0.091552734375
11.4899999,0.4692635238170624,0.09816227108240128,9.885659217834473,0.091552734375,-1.3885498046875,-0.091552734375
11.5099999,0.4668693244457245,0.09816227108240128,9.888052940368652,-0.4119873046875,-1.28173828125,-0.1220703125
11.5299999,0.4644751250743866,0.09816227108240128,9.888052940368652,-0.1678466796875,-1.373291015625,-0.1220703125
11.549999900000001,0.4644751250743866,0.09576806426048279,9.888052940368652,0.1983642578125,-1.434326171875,-0.1373291015625
11.569999900000001,0.4620809257030487,0.09576806426048279,9.890447616577148,-0.4730224609375,-1.2664794921875,-0.1220703125
11.5899999,0.4620809257030487,0.09576806426048279,9.888052940368652,-0.2593994140625,-1.2664794921875,-0.1220703125
11.6099999,0.4644751250743866,0.09576806426048279,9.885659217834473,0.244140625,-1.3275146484375,-0.1220703125
11.629999900000001,0.4620809257030487,0.09576806426048279,9.885659217834473,-0.1373291015625,-1.312255859375,-0.1373291015625
11.649999900000001,0.4620809257030487,0.09576806426048279,9.883264541625977,-0.3814697265625,-1.220703125,-0.1373291015625
11.6699999,0.4644751250743866,0.0933738648891449,9.885659217834473,0.1678466796875,-1.3885498046875,-0.152587890625
11.6899999,0.4644751250743866,0.0933738648891449,9.888052940368652,-0.244140625,-1.3580322265625,-0.1220703125
11.709999900000001,0.4692635238170624,0.0933738648891449,9.888052940368652,-0.3509521484375,-1.3275146484375,-0.06103515625
11.729999900000001,0.47165772318840027,0.0933738648891449,9.890447616577148,0.2288818359375,-1.4495849609375,-0.1220703125
11.7499999,0.47165772318840027,0.090979665517807,9.890447616577148,-0.1678466796875,-1.2969970703125,-0.18310546875
11.7699999,0.4692635238170624,0.090979665517807,9.888052940368652,-0.152587890625,-1.312255859375,-0.1373291015625
11.7899999,0.4692635238170624,0.090979665517807,9.885659217834473,0.0457763671875,-1.373291015625,-0.152587890625
11.809999900000001,0.4692635238170624,0.090979665517807,9.883264541625977,-0.0457763671875,-1.40380859375,-0.213623046875
11.8299999,0.4692635238170624,0.08858546614646912,9.883264541625977,-0.2288818359375,-1.312255859375,-0.1220703125
11.8499999,0.4692635238170624,0.08858546614646912,9.883264541625977,-0.06103515625,-1.312255859375,-0.1678466796875
11.8699999,0.4692635238170624,0.08858546614646912,9.885659217834473,-0.152587890625,-1.3275146484375,-0.152587890625
11.889999900000001,0.4692635238170624,0.08858546614646912,9.888052940368652,-0.4730224609375,-1.251220703125,-0.1220703125
11.9099999,0.4668693244457245,0.08858546614646912,9.888052940368652,-0.4730224609375,-1.220703125,-0.1373291015625
11.9299999,0.4644751250743866,0.08619125932455063,9.890447616577148,-0.3509521484375,-1.2969970703125,-0.0762939453125
11.9499999,0.4644751250743866,0.08858546614646912,9.890447616577148,-1.007080078125,-1.129150390625,-0.1983642578125
11.969999900000001,0.4620809257030487,0.08619125932455063,9.892841339111328,-0.8544921875,-1.1444091796875,-0.1678466796875
11.9899999,0.4644751250743866,0.08619125932455063,9.892841339111328,-0.1373291015625,-1.2664794921875,-0.1373291015625
12.0099999,0.4644751250743866,0.08379705995321274,9.892841339111328,-0.0152587890625,-1.312255859375,-0.1220703125
12.0299999,0.4644751250743866,0.07900865375995636,9.892841339111328,-0.030517578125,-1.2969970703125,-0.1678466796875
12.049999900000001,0.4644751250743866,0.07661445438861847,9.890447616577148,-0.0762939453125,-1.2969970703125,-0.18310546875
12.069999900000001,0.4644751250743866,0.07661445438861847,9.888052940368652,-0.06103515625,-1.28173828125,-0.1068115234375
12.0899999,0.4644751250743866,0.07661445438861847,9.890447616577148,0.0152587890625,-1.312255859375,-0.1068115234375
12.1099999,0.4644751250743866,0.07900865375995636,9.888052940368652,0.06103515625,-1.373291015625,-0.18310546875
12.129999900000001,0.4644751250743866,0.07900865375995636,9.890447616577148,0.0762939453125,-1.3580322265625,-0.1373291015625
12.149999900000001,0.4644751250743866,0.07900865375995636,9.890447616577148,0.030517578125,-1.3885498046875,-0.1068115234375
12.1699999,0.4668693244457245,0.08140286058187485,9.892841339111328,0.1373291015625,-1.3885498046875,-0.091552734375
12.1899999,0.4668693244457245,0.08140286058187485,9.892841339111328,0.18310546875,-1.3275146484375,-0.1068115234375
12.209999900000001,0.4644751250743866,0.08140286058187485,9.892841339111328,-0.091552734375,-1.2664794921875,-0.1373291015625
12.229999900000001,0.4644751250743866,0.07900865375995636,9.892841339111328,-0.030517578125,-1.2969970703125,-0.1068115234375
12.2499999,0.4620809257030487,0.07900865375995636,9.892841339111328,0.1983642578125,-1.46484375,-0.06103515625
12.2699999,0.4644751250743866,0.07900865375995636,9.890447616577148,0.1068115234375,-1.3580322265625,-0.1983642578125
12.289999900000002,0.4668693244457245,0.08140286058187485,9.890447616577148,-0.1983642578125,-1.2969970703125,-0.1373291015625
12.309999900000001,0.4692635238170624,0.08379705995321274,9.890447616577148,-0.06103515625,-1.312255859375,-0.1068115234375
12.3299999,0.4692635238170624,0.08379705995321274,9.890447616577148,0.1373291015625,-1.373291015625,-0.1678466796875
12.3499999,0.47165772318840027,0.08140286058187485,9.890447616577148,0.0152587890625,-1.3580322265625,-0.06103515625
12.3699999,0.47405192255973816,0.07900865375995636,9.890447616577148,-0.06103515625,-1.312255859375,-0.1220703125
12.389999900000001,0.47165772318840027,0.07900865375995636,9.890447616577148,0.06103515625,-1.2664794921875,-0.152587890625
12.4099999,0.4692635238170624,0.07900865375995636,9.892841339111328,0.0457763671875,-1.3580322265625,-0.1373291015625
12.4299999,0.4644751250743866,0.08140286058187485,9.892841339111328,-0.091552734375,-1.3427734375,-0.1678466796875
12.4499999,0.4644751250743866,0.08379705995321274,9.890447616577148,0.030517578125,-1.3580322265625,-0.213623046875
12.469999900000001,0.4644751250743866,0.08379705995321274,9.892841339111328,-0.0762939453125,-1.3275146484375,-0.152587890625
12.4899999,0.4620809257030487,0.08379705995321274,9.892841339111328,-0.2288818359375,-1.251220703125,-0.1983642578125
12.5099999,0.4620809257030487,0.08140286058187485,9.895236015319824,0.0152587890625,-1.2664794921875,-0.1373291015625
12.5299999,0.4620809257030487,0.07900865375995636,9.895236015319824,0.030517578125,-1.40380859375,-0.1068115234375
12.549999900000001,0.4620809257030487,0.07661445438861847,9.895236015319824,-0.1373291015625,-1.28173828125,-0.1220703125
12.569999900000001,0.4644751250743866,0.07661445438861847,9.892841339111328,-0.152587890625,-1.2359619140625,-0.18310546875
12.5899999,0.4620809257030487,0.07661445438861847,9.890447616577148,0.1373291015625,-1.3580322265625,-0.1068115234375
12.6099999,0.4644751250743866,0.07900865375995636,9.888052940368652,0.091552734375,-1.312255859375,-0.18310546875
12.629999900000001,0.4644751250743866,0.08140286058187485,9.885659217834473,-0.06103515625,-1.3580322265625,-0.0762939453125
12.649999900000001,0.4644751250743866,0.08379705995321274,9.885659217834473,0.18310546875,-1.3427734375,-0.1068115234375
12.6699999,0.4644751250743866,0.08140286058187485,9.885659217834473,0.152587890625,-1.3427734375,-0.1220703125
12.6899999,0.4644751250743866,0.08379705995321274,9.885659217834473,0.030517578125,-1.312255859375,-0.1373291015625
12.709999900000001,0.4668693244457245,0.08379705995321274,9.888052940368652,0.1373291015625,-1.373291015625,-0.152587890625
12.729999900000001,0.4668693244457245,0.08379705995321274,9.892841339111328,0.1068115234375,-1.3275146484375,-0.1373291015625
12.7499999,0.4692635238170624,0.08379705995321274,9.892841339111328,-0.1068115234375,-1.312255859375,-0.1678466796875
12.7699999,0.4692635238170624,0.08619125932455063,9.895236015319824,0.030517578125,-1.2969970703125,-0.091552734375
12.789999900000002,0.4692635238170624,0.08619125932455063,9.895236015319824,0.152587890625,-1.312255859375,-0.1068115234375
12.809999900000001,0.4692635238170624,0.08619125932455063,9.892841339111328,0.0152587890625,-1.40380859375,-0.1220703125
12.8299999,0.4668693244457245,0.08858546614646912,9.892841339111328,0.06103515625,-1.3275146484375,-0.1373291015625
12.8499999,0.4668693244457245,0.08858546614646912,9.890447616577148,0.1678466796875,-1.40380859375,-0.1068115234375
12.8699999,0.4644751250743866,0.08858546614646912,9.892841339111328,-0.06103515625,-1.3427734375,-0.1373291015625
12.889999900000001,0.4644751250743866,0.08858546614646912,9.892841339111328,0,-1.3275146484375,-0.1220703125
12.9099999,0.4644751250743866,0.08619125932455063,9.892841339111328,0.0762939453125,-1.2969970703125,-0.1220703125
12.9299999,0.4668693244457245,0.08379705995321274,9.892841339111328,-0.091552734375,-1.2969970703125,-0.1678466796875
12.9499999,0.4692635238170624,0.08619125932455063,9.892841339111328,-0.0762939453125,-1.3580322265625,-0.1678466796875
12.969999900000001,0.4668693244457245,0.08379705995321274,9.890447616577148,-0.0152587890625,-1.2664794921875,-0.1678466796875
12.9899999,0.4668693244457245,0.08619125932455063,9.890447616577148,-0.0457763671875,-1.28173828125,-0.1220703125
13.0099999,0.4668693244457245,0.08619125932455063,9.888052940368652,0.0152587890625,-1.3580322265625,-0.152587890625
13.0299999,0.4692635238170624,0.08858546614646912,9.885659217834473,0.030517578125,-1.312255859375,-0.1373291015625
13.049999900000001,0.47165772318840027,0.08858546614646912,9.885659217834473,-0.06103515625,-1.3275146484375,-0.1678466796875
13.069999900000001,0.47405192255973816,0.08858546614646912,9.888052940368652,-0.1678466796875,-1.312255859375,-0.1983642578125
13.0899999,0.47405192255973816,0.08858546614646912,9.888052940368652,-0.06103515625,-1.3580322265625,-0.244140625
13.1099999,0.47405192255973816,0.08858546614646912,9.892841339111328,-0.0762939453125,-1.28173828125,-0.1678466796875
13.129999900000001,0.47165772318840027,0.08858546614646912,9.895236015319824,-0.091552734375,-1.2969970703125,-0.152587890625
13.149999900000001,0.4692635238170624,0.08858546614646912,9.895236015319824,-0.1373291015625,-1.28173828125,-0.2593994140625
13.1699999,0.4668693244457245,0.08858546614646912,9.895236015319824,-0.030517578125,-1.373291015625,-0.18310546875
13.1899999,0.4668693244457245,0.08858546614646912,9.895236015319824,-0.091552734375,-1.2969970703125,-0.213623046875
13.209999900000001,0.4620809257030487,0.08619125932455063,9.892841339111328,-0.152587890625,-1.2359619140625,-0.213623046875
13.229999900000001,0.4644751250743866,0.08619125932455063,9.890447616577148,-0.2593994140625,-1.2969970703125,-0.1678466796875
13.2499999,0.4644751250743866,0.08619125932455063,9.888052940368652,-0.42724609375,-1.1749267578125,-0.1983642578125
13.2699999,0.4644751250743866,0.08619125932455063,9.888052940368652,-0.030517578125,-1.28173828125,-0.1678466796875
13.289999900000002,0.4644751250743866,0.08619125932455063,9.890447616577148,-0.2288818359375,-1.2664794921875,-0.1373291015625
13.309999900000001,0.4668693244457245,0.08619125932455063,9.890447616577148,-0.0152587890625,-1.2969970703125,-0.1678466796875
13.3299999,0.4692635238170624,0.08379705995321274,9.890447616577148,0.091552734375,-1.3427734375,-0.1220703125
13.3499999,0.4692635238170624,0.08379705995321274,9.888052940368652,-0.152587890625,-1.2969970703125,-0.0762939453125
13.3699999,0.47165772318840027,0.08379705995321274,9.888052940368652,-0.0457763671875,-1.312255859375,-0.091552734375
13.389999900000001,0.47165772318840027,0.08858546614646912,9.885659217834473,0.0762939453125,-1.3275146484375,-0.1220703125
13.4099999,0.4692635238170624,0.08858546614646912,9.890447616577148,-0.1220703125,-1.3427734375,-0.1068115234375
13.4299999,0.4668693244457245,0.090979665517807,9.892841339111328,-0.1068115234375,-1.2969970703125,-0.1373291015625
13.4499999,0.4644751250743866,0.090979665517807,9.895236015319824,-0.0152587890625,-1.3580322265625,-0.152587890625
13.469999900000001,0.4620809257030487,0.08858546614646912,9.895236015319824,-0.1068115234375,-1.251220703125,-0.18310546875
13.4899999,0.4620809257030487,0.08858546614646912,9.892841339111328,-0.0457763671875,-1.3275146484375,-0.1220703125
13.5099999,0.4620809257030487,0.08619125932455063,9.892841339111328,-0.1068115234375,-1.2664794921875,-0.1068115234375
13.5299999,0.4644751250743866,0.08619125932455063,9.890447616577148,-0.1373291015625,-1.2664794921875,-0.1220703125
13.549999900000001,0.4644751250743866,0.08619125932455063,9.888052940368652,-0.091552734375,-1.3580322265625,-0.1373291015625
13.569999900000001,0.4668693244457245,0.08619125932455063,9.885659217834473,-0.152587890625,-1.28173828125,-0.1678466796875
13.5899999,0.4644751250743866,0.08619125932455063,9.885659217834473,-0.274658203125,-1.2054443359375,-0.091552734375
13.6099999,0.4620809257030487,0.08619125932455063,9.888052940368652,-0.213623046875,-1.2359619140625,-0.152587890625
13.629999900000001,0.4596867263317108,0.08619125932455063,9.888052940368652,-0.1220703125,-1.28173828125,-0.18310546875
13.649999900000001,0.4596867263317108,0.08619125932455063,9.890447616577148,-0.213623046875,-1.2969970703125,-0.1068115234375
13.6699999,0.4596867263317108,0.08379705995321274,9.890447616577148,-0.1373291015625,-1.3275146484375,-0.091552734375
13.6899999,0.4596867263317108,0.08379705995321274,9.892841339111328,-0.0457763671875,-1.28173828125,-0.091552734375
13.709999900000001,0.4596867263317108,0.08140286058187485,9.892841339111328,-0.1373291015625,-1.312255859375,-0.1678466796875
13.729999900000001,0.4596867263317108,0.08379705995321274,9.885659217834473,-0.1068115234375,-1.3580322265625,-0.1678466796875
13.7499999,0.45250412821769714,0.08858546614646912,9.883264541625977,-0.3509521484375,-1.434326171875,-0.1678466796875
13.7699999,0.4596867263317108,0.08619125932455063,9.8784761428833,0.1373291015625,-1.5716552734375,-0.1678466796875
13.789999900000002,0.4668693244457245,0.08140286058187485,9.876082420349121,0.396728515625,-1.2664794921875,-0.1373291015625
13.809999900000001,0.4692635238170624,0.07422025501728058,9.880870819091797,-1.0223388671875,-0.91552734375,-0.244140625
13.8299999,0.4692635238170624,0.07182604819536209,9.885659217834473,-0.0457763671875,-1.2664794921875,-0.1373291015625
13.8499999,0.4644751250743866,0.07422025501728058,9.888052940368652,0.7476806640625,-1.617431640625,-0.1068115234375
13.8699999,0.4572925269603729,0.07900865375995636,9.892841339111328,-0.42724609375,-1.2969970703125,-0.1983642578125
13.889999900000001,0.4620809257030487,0.07900865375995636,9.890447616577148,-0.1678466796875,-1.1749267578125,-0.0762939453125
13.9099999,0.4668693244457245,0.07900865375995636,9.890447616577148,0.2288818359375,-1.3427734375,-0.091552734375
13.9299999,0.4644751250743866,0.08140286058187485,9.883264541625977,0.3204345703125,-1.4495849609375,-0.0762939453125
13.9499999,0.4620809257030487,0.08379705995321274,9.880870819091797,-0.701904296875,-1.2969970703125,-0.1373291015625
13.969999900000001,0.4644751250743866,0.08858546614646912,9.880870819091797,0.06103515625,-1.46484375,-0.091552734375
13.9899999,0.4692635238170624,0.08379705995321274,9.880870819091797,0.5950927734375,-1.40380859375,-0.091552734375
14.0099999,0.4692635238170624,0.07900865375995636,9.885659217834473,-0.6561279296875,-0.9765625,-0.2593994140625
14.0299999,0.4668693244457245,0.07900865375995636,9.888052940368652,-0.701904296875,-1.15966796875,-0.18310546875
14.049999900000001,0.4668693244457245,0.07900865375995636,9.890447616577148,0.67138671875,-1.6632080078125,-0.091552734375
14.069999900000001,0.4644751250743866,0.08140286058187485,9.888052940368652,0.3204345703125,-1.3885498046875,-0.0762939453125
14.0899999,0.4644751250743866,0.08140286058187485,9.890447616577148,-0.9765625,-0.9765625,-0.1373291015625
14.1099999,0.4620809257030487,0.07661445438861847,9.888052940368652,-0.2288818359375,-1.312255859375,-0.0762939453125
14.129999900000001,0.4596867263317108,0.07900865375995636,9.885659217834473,0.8697509765625,-1.5869140625,-0.1068115234375
14.149999900000001,0.4572925269603729,0.07661445438861847,9.883264541625977,-0.1220703125,-1.373291015625,-0.1220703125
14.1699999,0.4596867263317108,0.07900865375995636,9.885659217834473,-0.9918212890625,-1.1138916015625,-0.1220703125
14.1899999,0.4644751250743866,0.07900865375995636,9.883264541625977,0.3204345703125,-1.3580322265625,-0.1373291015625
14.209999900000001,0.4668693244457245,0.07900865375995636,9.885659217834473,0.4730224609375,-1.3885498046875,-0.1220703125
14.229999900000001,0.4644751250743866,0.07900865375995636,9.885659217834473,-0.8544921875,-1.1444091796875,-0.152587890625
14.2499999,0.4668693244457245,0.08140286058187485,9.883264541625977,0.1678466796875,-1.40380859375,-0.0762939453125
14.2699999,0.4692635238170624,0.08379705995321274,9.883264541625977,0.42724609375,-1.2969970703125,-0.0457763671875
14.289999900000002,0.4692635238170624,0.08379705995321274,9.885659217834473,-0.6103515625,-1.15966796875,-0.152587890625
14.309999900000001,0.4692635238170624,0.08379705995321274,9.885659217834473,0.1220703125,-1.40380859375,-0.18310546875
14.3299999,0.4692635238170624,0.08379705995321274,9.885659217834473,0.518798828125,-1.5411376953125,-0.1220703125
14.3499999,0.4692635238170624,0.08379705995321274,9.890447616577148,-0.3204345703125,-1.2664794921875,-0.1983642578125
14.3699999,0.47165772318840027,0.08379705995321274,9.890447616577148,-0.3509521484375,-1.2054443359375,-0.2288818359375
14.389999900000001,0.4692635238170624,0.08140286058187485,9.892841339111328,-0.06103515625,-1.28173828125,-0.091552734375
14.4099999,0.4644751250743866,0.07661445438861847,9.892841339111328,0.0152587890625,-1.3580322265625,-0.1220703125
14.4299999,0.4596867263317108,0.07900865375995636,9.892841339111328,0.06103515625,-1.3885498046875,-0.091552734375
14.4499999,0.4596867263317108,0.08140286058187485,9.890447616577148,-0.091552734375,-1.312255859375,-0.1220703125
14.469999900000001,0.4620809257030487,0.08379705995321274,9.892841339111328,-0.579833984375,-1.15966796875,-0.18310546875
14.4899999,0.4620809257030487,0.08619125932455063,9.888052940368652,-0.030517578125,-1.2969970703125,-0.152587890625
14.5099999,0.4596867263317108,0.08619125932455063,9.890447616577148,0.274658203125,-1.4190673828125,-0.1068115234375
14.5299999,0.4596867263317108,0.08140286058187485,9.890447616577148,-0.5035400390625,-1.1749267578125,-0.1678466796875
14.549999900000001,0.4620809257030487,0.08379705995321274,9.888052940368652,0.42724609375,-1.40380859375,-0.1068115234375
14.569999900000001,0.4644751250743866,0.08140286058187485,9.892841339111328,-0.091552734375,-1.2969970703125,-0.1220703125
14.5899999,0.4620809257030487,0.08379705995321274,9.892841339111328,-0.9307861328125,-1.1138916015625,-0.1983642578125
14.6099999,0.4620809257030487,0.08379705995321274,9.892841339111328,0.30517578125,-1.4801025390625,-0.091552734375
14.629999900000001,0.4620809257030487,0.08140286058187485,9.892841339111328,0,-1.3580322265625,-0.152587890625
14.649999900000001,0.4644751250743866,0.08140286058187485,9.888052940368652,-0.5035400390625,-1.2054443359375,-0.18310546875
14.6699999,0.4668693244457245,0.08140286058187485,9.888052940368652,-0.152587890625,-1.3427734375,-0.0762939453125
14.6899999,0.4692635238170624,0.07900865375995636,9.888052940368652,0.0762939453125,-1.3580322265625,-0.06103515625
14.709999900000001,0.4668693244457245,0.07900865375995636,9.890447616577148,-0.1373291015625,-1.2664794921875,-0.1220703125
14.729999900000001,0.4668693244457245,0.07900865375995636,9.892841339111328,-0.1068115234375,-1.190185546875,-0.1373291015625
14.7499999,0.4668693244457245,0.08140286058187485,9.892841339111328,-0.0457763671875,-1.251220703125,-0.1220703125
14.7699999,0.4668693244457245,0.08140286058187485,9.892841339111328,-0.091552734375,-1.251220703125,-0.152587890625
14.789999900000002,0.4668693244457245,0.08379705995321274,9.892841339111328,-0.1068115234375,-1.3427734375,-0.2288818359375
14.809999900000001,0.4644751250743866,0.08379705995321274,9.890447616577148,-0.1068115234375,-1.3580322265625,-0.1983642578125
14.8299999,0.4644751250743866,0.08140286058187485,9.890447616577148,-0.0457763671875,-1.3580322265625,-0.091552734375
14.8499999,0.4644751250743866,0.08140286058187485,9.888052940368652,-0.030517578125,-1.3580322265625,-0.0762939453125
14.8699999,0.4644751250743866,0.07900865375995636,9.890447616577148,-0.0457763671875,-1.2969970703125,-0.1068115234375
14.889999900000001,0.4644751250743866,0.07661445438861847,9.892841339111328,-0.0762939453125,-1.28173828125,-0.152587890625
14.9099999,0.4668693244457245,0.07422025501728058,9.895236015319824,-0.06103515625,-1.3275146484375,-0.1373291015625
14.9299999,0.4692635238170624,0.07182604819536209,9.897629737854004,-0.0762939453125,-1.28173828125,-0.1068115234375
14.9499999,0.4692635238170624,0.07422025501728058,9.897629737854004,-0.0457763671875,-1.2664794921875,-0.0762939453125
14.969999900000001,0.47165772318840027,0.07661445438861847,9.895236015319824,-0.06103515625,-1.2664794921875,-0.1068115234375
14.9899999,0.4692635238170624,0.07900865375995636,9.892841339111328,-0.1068115234375,-1.312255859375,-0.1068115234375
15.0099999,0.4668693244457245,0.07900865375995636,9.890447616577148,-0.0457763671875,-1.2969970703125,-0.18310546875
15.0299999,0.4644751250743866,0.08140286058187485,9.890447616577148,0.030517578125,-1.312255859375,-0.152587890625
15.049999900000001,0.4620809257030487,0.07900865375995636,9.888052940368652,0.0152587890625,-1.40380859375,-0.1220703125
15.069999900000001,0.4620809257030487,0.07900865375995636,9.890447616577148,0.1373291015625,-1.3427734375,-0.1678466796875
15.0899999,0.4644751250743866,0.07661445438861847,9.892841339111328,0.3662109375,-1.373291015625,-0.152587890625
15.1099999,0.4668693244457245,0.07422025501728058,9.895236015319824,-0.3204345703125,-1.190185546875,-0.18310546875
15.129999900000001,0.4668693244457245,0.07422025501728058,9.895236015319824,-0.1068115234375,-1.2359619140625,-0.152587890625
15.149999900000001,0.4668693244457245,0.07661445438861847,9.892841339111328,0.1220703125,-1.3580322265625,-0.1678466796875
15.1699999,0.4644751250743866,0.07900865375995636,9.892841339111328,-0.152587890625,-1.3275146484375,-0.152587890625
15.1899999,0.4644751250743866,0.08140286058187485,9.888052940368652,-0.18310546875,-1.220703125,-0.1220703125
15.209999900000001,0.4644751250743866,0.08379705995321274,9.885659217834473,-0.030517578125,-1.251220703125,-0.1983642578125
15.229999900000001,0.4620809257030487,0.08379705995321274,9.883264541625977,-0.0762939453125,-1.373291015625,-0.244140625
15.2499999,0.4620809257030487,0.08379705995321274,9.883264541625977,-0.213623046875,-1.3427734375,-0.1220703125
15.2699999,0.4620809257030487,0.08140286058187485,9.885659217834473,0,-1.312255859375,-0.1678466796875
15.289999900000002,0.4620809257030487,0.08140286058187485,9.888052940368652,0.0152587890625,-1.3427734375,-0.18310546875
15.309999900000001,0.4620809257030487,0.07900865375995636,9.892841339111328,-0.3662109375,-1.28173828125,-0.18310546875
15.3299999,0.4620809257030487,0.08140286058187485,9.895236015319824,0.0457763671875,-1.373291015625,-0.1373291015625
15.3499999,0.4644751250743866,0.07900865375995636,9.895236015319824,0,-1.373291015625,-0.0762939453125
15.3699999,0.4668693244457245,0.08140286058187485,9.895236015319824,-0.2288818359375,-1.3275146484375,-0.06103515625
15.389999900000001,0.4692635238170624,0.08140286058187485,9.892841339111328,-0.030517578125,-1.3427734375,-0.1220703125
15.4099999,0.4668693244457245,0.08140286058187485,9.890447616577148,-0.1983642578125,-1.28173828125,-0.152587890625
15.4299999,0.4668693244457245,0.08140286058187485,9.890447616577148,-0.1220703125,-1.3275146484375,-0.2288818359375
15.4499999,0.4644751250743866,0.07900865375995636,9.890447616577148,-0.0457763671875,-1.3275146484375,-0.152587890625
15.469999900000001,0.4620809257030487,0.07661445438861847,9.890447616577148,-0.1373291015625,-1.2664794921875,-0.213623046875
15.4899999,0.4644751250743866,0.07661445438861847,9.892841339111328,-0.06103515625,-1.28173828125,-0.1373291015625
15.5099999,0.4644751250743866,0.07900865375995636,9.892841339111328,-0.0152587890625,-1.2969970703125,-0.0762939453125
15.5299999,0.4644751250743866,0.07900865375995636,9.892841339111328,-0.18310546875,-1.3427734375,-0.1373291015625
15.549999900000001,0.4668693244457245,0.07900865375995636,9.892841339111328,-0.06103515625,-1.3427734375,-0.1373291015625
15.569999900000001,0.4668693244457245,0.07900865375995636,9.892841339111328,-0.06103515625,-1.3275146484375,-0.091552734375
15.5899999,0.4668693244457245,0.07661445438861847,9.892841339111328,-0.1068115234375,-1.251220703125,-0.1220703125
15.6099999,0.4644751250743866,0.07661445438861847,9.895236015319824,-0.0152587890625,-1.2969970703125,-0.152587890625
15.629999900000001,0.4668693244457245,0.07661445438861847,9.895236015319824,0.1373291015625,-1.373291015625,-0.1373291015625
15.649999900000001,0.4644751250743866,0.07900865375995636,9.897629737854004,-0.1983642578125,-1.2359619140625,-0.1678466796875
15.6699999,0.4668693244457245,0.08140286058187485,9.895236015319824,0.2593994140625,-1.373291015625,-0.091552734375
15.6899999,0.4644751250743866,0.08619125932455063,9.895236015319824,-0.1068115234375,-1.3885498046875,-0.1678466796875
15.709999900000001,0.4644751250743866,0.08858546614646912,9.892841339111328,-0.1220703125,-1.312255859375,-0.152587890625
15.729999900000001,0.4620809257030487,0.08858546614646912,9.892841339111328,0.152587890625,-1.2969970703125,-0.1678466796875
15.7499999,0.4620809257030487,0.08858546614646912,9.895236015319824,-0.1678466796875,-1.251220703125,-0.091552734375
15.7699999,0.4644751250743866,0.08619125932455063,9.897629737854004,-0.1678466796875,-1.1749267578125,-0.152587890625
15.789999900000002,0.4644751250743866,0.08379705995321274,9.897629737854004,0.18310546875,-1.2664794921875,-0.1373291015625
15.809999900000001,0.4668693244457245,0.08140286058187485,9.9000244140625,-0.0152587890625,-1.2054443359375,-0.1373291015625
15.8299999,0.4668693244457245,0.08140286058187485,9.9000244140625,0,-1.2054443359375,-0.0762939453125
15.8499999,0.4620809257030487,0.08140286058187485,9.897629737854004,0.3662109375,-1.3275146484375,-0.18310546875
15.869999900000002,0.4620809257030487,0.08140286058187485,9.892841339111328,0.274658203125,-1.3427734375,-0.1678466796875
15.889999900000001,0.45489832758903503,0.08140286058187485,9.890447616577148,-0.732421875,-1.0528564453125,-0.1983642578125
15.9099999,0.45489832758903503,0.08379705995321274,9.880870819091797,0.8544921875,-1.5411376953125,-0.1373291015625
15.9299999,0.4572925269603729,0.08619125932455063,9.8784761428833,-0.1373291015625,-1.4495849609375,-0.091552734375
15.9499999,0.4644751250743866,0.08619125932455063,9.880870819091797,-0.79345703125,-1.190185546875,-0.152587890625
15.969999900000001,0.4692635238170624,0.08619125932455063,9.8784761428833,0.9918212890625,-1.556396484375,-0.18310546875
15.9899999,0.4692635238170624,0.08379705995321274,9.883264541625977,0.3204345703125,-1.4495849609375,-0.1220703125
16.0099999,0.4668693244457245,0.08140286058187485,9.888052940368652,-0.48828125,-1.28173828125,-0.1678466796875
16.0299999,0.4644751250743866,0.08379705995321274,9.888052940368652,0.4730224609375,-1.4495849609375,-0.18310546875
16.0499999,0.4668693244457245,0.08379705995321274,9.890447616577148,0.2288818359375,-1.373291015625,-0.091552734375
16.0699999,0.4668693244457245,0.08858546614646912,9.890447616577148,-0.67138671875,-1.1444091796875,-0.18310546875
16.089999900000002,0.4644751250743866,0.0933738648891449,9.885659217834473,0.1678466796875,-1.4190673828125,-0.18310546875
16.109999900000002,0.4620809257030487,0.09576806426048279,9.885659217834473,0.1068115234375,-1.52587890625,-0.1373291015625
16.1299999,0.4620809257030487,0.09816227108240128,9.883264541625977,-0.48828125,-1.40380859375,-0.1220703125
16.1499999,0.4644751250743866,0.09576806426048279,9.880870819091797,0.1068115234375,-1.40380859375,-0.18310546875
16.1699999,0.4668693244457245,0.090979665517807,9.883264541625977,-0.274658203125,-1.2359619140625,-0.1373291015625
16.1899999,0.4668693244457245,0.08619125932455063,9.885659217834473,-0.579833984375,-1.28173828125,-0.18310546875
16.2099999,0.4668693244457245,0.08379705995321274,9.888052940368652,0.213623046875,-1.4495849609375,-0.18310546875
16.2299999,0.4668693244457245,0.08619125932455063,9.890447616577148,0.213623046875,-1.495361328125,-0.1220703125
16.249999900000002,0.4692635238170624,0.08858546614646912,9.890447616577148,0.0762939453125,-1.3580322265625,-0.1373291015625
16.269999900000002,0.4668693244457245,0.08858546614646912,9.890447616577148,0.1220703125,-1.373291015625,-0.152587890625
16.2899999,0.4644751250743866,0.090979665517807,9.890447616577148,0.30517578125,-1.4495849609375,-0.1678466796875
16.3099999,0.4620809257030487,0.090979665517807,9.892841339111328,0.5340576171875,-1.5106201171875,-0.1220703125
16.3299999,0.4620809257030487,0.090979665517807,9.897629737854004,1.5106201171875,-1.8310546875,0
16.3499999,0.4644751250743866,0.0933738648891449,9.897629737854004,1.6937255859375,-1.861572265625,0.1068115234375
16.3699999,0.4596867263317108,0.08619125932455063,9.885659217834473,0.274658203125,-1.4190673828125,0.54931640625
16.3899999,0.4692635238170624,0.090979665517807,9.888052940368652,-4.21142578125,-0.1220703125,2.2735595703125
16.4099999,0.4692635238170624,0.08858546614646912,9.883264541625977,-0.457763671875,-1.1749267578125,0.213623046875
16.429999900000002,0.47644615173339844,0.0933738648891449,9.888052940368652,1.52587890625,-1.678466796875,-0.2899169921875
16.4499999,0.47644615173339844,0.09576806426048279,9.890447616577148,0.3814697265625,-1.28173828125,0.9307861328125
16.4699999,0.47405192255973816,0.09816227108240128,9.892841339111328,-2.685546875,-0.6103515625,1.4801025390625
16.4899999,0.4644751250743866,0.090979665517807,9.888052940368652,0.4425048828125,-1.5106201171875,-0.030517578125
16.5099999,0.4644751250743866,0.090979665517807,9.885659217834473,0.5950927734375,-1.3885498046875,1.373291015625
16.5299999,0.4620809257030487,0.08379705995321274,9.885659217834473,-0.4119873046875,-1.129150390625,1.251220703125
16.5499999,0.4644751250743866,0.08140286058187485,9.890447616577148,-1.6021728515625,-0.8392333984375,1.1749267578125
16.5699999,0.4620809257030487,0.07422025501728058,9.883264541625977,-0.8697509765625,-1.0223388671875,1.3275146484375
16.589999900000002,0.4668693244457245,0.07661445438861847,9.892841339111328,-0.6866455078125,-1.03759765625,1.617431640625
16.609999900000002,0.4668693244457245,0.07661445438861847,9.890447616577148,0.030517578125,-1.2969970703125,0.457763671875
16.6299999,0.47405192255973816,0.08379705995321274,9.892841339111328,0.3509521484375,-1.373291015625,-0.06103515625
16.6499999,0.47405192255973816,0.08619125932455063,9.890447616577148,-0.1373291015625,-1.220703125,0.244140625
16.6699999,0.47165772318840027,0.08619125932455063,9.888052940368652,0.030517578125,-1.3427734375,-0.1373291015625
16.6899999,0.4692635238170624,0.08379705995321274,9.885659217834473,-0.213623046875,-1.2969970703125,-0.2899169921875
16.7099999,0.4644751250743866,0.08379705995321274,9.883264541625977,-0.1220703125,-1.3427734375,-0.18310546875
16.7299999,0.4668693244457245,0.08858546614646912,9.888052940368652,-0.885009765625,-1.40380859375,-0.274658203125
16.749999900000002,0.4620809257030487,0.07900865375995636,9.895236015319824,-0.9002685546875,-1.434326171875,-3.2958984375
16.769999900000002,0.4692635238170624,0.07900865375995636,9.892841339111328,2.4566650390625,-1.0833740234375,-4.8675537109375
16.7899999,0.47165772318840027,0.07182604819536209,9.9000244140625,0.18310546875,-0.8544921875,-2.105712890625
16.8099999,0.47165772318840027,0.06703764945268631,9.895236015319824,-0.2593994140625,-1.1749267578125,-2.105712890625
16.8299999,0.47405192255973816,0.07182604819536209,9.897629737854004,0.396728515625,-1.190185546875,-0.0152587890625
16.8499999,0.4644751250743866,0.07661445438861847,9.9000244140625,0.6103515625,-1.0986328125,-1.1444091796875
16.8699999,0.4644751250743866,0.07661445438861847,9.9000244140625,0.9918212890625,-0.8697509765625,-3.1890869140625
16.8899999,0.4596867263317108,0.07661445438861847,9.888052940368652,0.4730224609375,-0.8697509765625,-2.0904541015625
16.9099999,0.44532153010368347,0.090979665517807,9.86650562286377,0.6256103515625,-1.2359619140625,-0.9613037109375
16.929999900000002,0.43095630407333374,0.11013327538967133,9.859322547912598,-1.007080078125,-1.89208984375,-0.5035400390625
16.9499999,0.42377370595932007,0.1149216815829277,9.854534149169922,-0.9765625,-1.9378662109375,-0.06103515625
16.9699999,0.4189853072166443,0.09576806426048279,9.876082420349121,1.3427734375,-1.6326904296875,-2.99072265625
16.9899999,0.44532153010368347,0.08858546614646912,9.9000244140625,4.2724609375,-2.3956298828125,-6.4544677734375
17.0099999,0.4572925269603729,0.07661445438861847,9.895236015319824,3.1280517578125,-2.685546875,-1.617431640625
17.0299999,0.48602294921875,0.09576806426048279,9.9000244140625,-1.40380859375,-1.3427734375,0.3662109375
17.0499999,0.5027823448181152,0.1149216815829277,9.895236015319824,-2.6092529296875,-0.9307861328125,-0.396728515625
17.0699999,0.5195417404174805,0.11013327538967133,9.904812812805176,1.3427734375,-1.3885498046875,-0.213623046875
17.089999900000002,0.524330198764801,0.09576806426048279,9.914389610290527,1.251220703125,-1.0833740234375,-0.1678466796875
17.109999900000002,0.5027823448181152,0.090979665517807,9.916783332824707,-1.373291015625,-0.518798828125,-0.2899169921875
17.1299999,0.47644615173339844,0.10773907601833344,9.9000244140625,-0.2593994140625,-1.0986328125,-0.1678466796875
17.1499999,0.4572925269603729,0.12689268589019775,9.885659217834473,1.0986328125,-1.77001953125,-0.1373291015625
17.1699999,0.45489832758903503,0.1364694982767105,9.8784761428833,0.1220703125,-1.312255859375,-0.213623046875
17.1899999,0.45250412821769714,0.13168109953403473,9.876082420349121,-0.762939453125,-0.9307861328125,-0.2288818359375
17.2099999,0.45250412821769714,0.12210428714752197,9.890447616577148,-0.2593994140625,-1.220703125,-0.213623046875
17.2299999,0.45489832758903503,0.11971008777618408,9.876082420349121,5.6304931640625,-2.9296875,0
17.249999900000002,0.4620809257030487,0.12689268589019775,9.885659217834473,3.204345703125,-2.38037109375,0.274658203125
17.269999900000002,0.47165772318840027,0.13168109953403473,9.880870819091797,-5.43212890625,0.1373291015625,-0.244140625
17.2899999,0.47644615173339844,0.13407529890537262,9.873687744140625,2.532958984375,-1.8157958984375,-0.244140625
17.3099999,0.47165772318840027,0.13407529890537262,9.880870819091797,0.5950927734375,-1.5869140625,-0.091552734375
17.3299999,0.4668693244457245,0.1388636976480484,9.883264541625977,-1.678466796875,-1.15966796875,-0.213623046875
17.3499999,0.47165772318840027,0.14365209639072418,9.883264541625977,0.7171630859375,-1.52587890625,-0.1678466796875
17.3699999,0.4812345504760742,0.1412578970193863,9.885659217834473,0.1068115234375,-1.2664794921875,-0.1220703125
17.3899999,0.4812345504760742,0.1364694982767105,9.888052940368652,-1.03759765625,-1.0223388671875,-0.18310546875
17.409999900000003,0.47405192255973816,0.13407529890537262,9.885659217834473,0.5950927734375,-1.5106201171875,-0.1220703125
17.429999900000002,0.47644615173339844,0.12928688526153564,9.888052940368652,0.79345703125,-1.5716552734375,-0.091552734375
17.4499999,0.47884035110473633,0.13168109953403473,9.890447616577148,-0.457763671875,-1.129150390625,-0.091552734375
17.4699999,0.4812345504760742,0.13407529890537262,9.885659217834473,-0.0152587890625,-1.129150390625,-0.1678466796875
17.4899999,0.47644615173339844,0.1364694982767105,9.880870819091797,0.5645751953125,-1.40380859375,-0.1678466796875
17.5099999,0.4668693244457245,0.1364694982767105,9.880870819091797,0.6103515625,-1.678466796875,-0.0152587890625
17.5299999,0.4668693244457245,0.1412578970193863,9.873687744140625,1.251220703125,-1.800537109375,0.06103515625
17.5499999,0.4692635238170624,0.1412578970193863,9.86889934539795,-0.4425048828125,-1.1749267578125,-0.091552734375
17.5699999,0.47644615173339844,0.1412578970193863,9.86889934539795,-2.4871826171875,-0.640869140625,-0.06103515625
17.589999900000002,0.47405192255973816,0.1388636976480484,9.873687744140625,-0.823974609375,-1.15966796875,-0.0152587890625
17.609999900000002,0.47165772318840027,0.13168109953403473,9.8784761428833,1.52587890625,-1.678466796875,-0.1068115234375
17.6299999,0.47405192255973816,0.12928688526153564,9.888052940368652,-0.06103515625,-1.190185546875,-0.1373291015625
17.6499999,0.47405192255973816,0.13168109953403473,9.890447616577148,-1.129150390625,-0.9002685546875,-0.1068115234375
17.6699999,0.47165772318840027,0.1388636976480484,9.888052940368652,0.7476806640625,-1.4190673828125,-0.1068115234375
17.6899999,0.4620809257030487,0.14365209639072418,9.885659217834473,0.3662109375,-1.52587890625,-0.1678466796875
17.7099999,0.4572925269603729,0.14604631066322327,9.885659217834473,-1.0833740234375,-1.3275146484375,-0.1373291015625
17.7299999,0.4620809257030487,0.14365209639072418,9.883264541625977,0.3509521484375,-1.4495849609375,-0.091552734375
17.749999900000002,0.4692635238170624,0.1388636976480484,9.885659217834473,0.4730224609375,-1.373291015625,-0.091552734375
17.769999900000002,0.47405192255973816,0.13407529890537262,9.888052940368652,-0.762939453125,-1.129150390625,-0.213623046875
17.7899999,0.47644615173339844,0.13407529890537262,9.890447616577148,0.1373291015625,-1.373291015625,-0.244140625
17.8099999,0.47644615173339844,0.12928688526153564,9.892841339111328,0.8392333984375,-1.5716552734375,-0.152587890625
17.8299999,0.47884035110473633,0.12928688526153564,9.895236015319824,-0.3814697265625,-1.1138916015625,-0.1220703125
17.8499999,0.47884035110473633,0.13168109953403473,9.895236015319824,-0.5645751953125,-1.03759765625,-0.1373291015625
17.8699999,0.4692635238170624,0.1388636976480484,9.890447616577148,0.42724609375,-1.4190673828125,-0.1678466796875
17.8899999,0.4620809257030487,0.14365209639072418,9.888052940368652,0.213623046875,-1.495361328125,-0.1678466796875
17.909999900000003,0.4596867263317108,0.14365209639072418,9.880870819091797,-0.3509521484375,-1.2969970703125,-0.1220703125
17.929999900000002,0.4620809257030487,0.1388636976480484,9.880870819091797,-0.4425048828125,-1.190185546875,-0.1373291015625
17.9499999,0.4668693244457245,0.13407529890537262,9.880870819091797,-0.244140625,-1.2664794921875,-0.1678466796875
17.9699999,0.4668693244457245,0.12928688526153564,9.885659217834473,-0.0762939453125,-1.2969970703125,-0.18310546875
17.9899999,0.4692635238170624,0.12689268589019775,9.888052940368652,0.06103515625,-1.28173828125,-0.1678466796875
18.0099999,0.47165772318840027,0.12928688526153564,9.890447616577148,-0.762939453125,-1.068115234375,-0.1373291015625
18.0299999,0.47165772318840027,0.13168109953403473,9.892841339111328,-0.2593994140625,-1.220703125,-0.06103515625
18.0499999,0.47165772318840027,0.1364694982767105,9.892841339111328,0.5645751953125,-1.4495849609375,-0.18310546875
18.0699999,0.4644751250743866,0.1412578970193863,9.892841339111328,-0.42724609375,-1.3275146484375,-0.1678466796875
18.089999900000002,0.4644751250743866,0.1412578970193863,9.892841339111328,-0.1068115234375,-1.3885498046875,-0.1220703125
18.109999900000002,0.4644751250743866,0.1388636976480484,9.888052940368652,0.518798828125,-1.3427734375,-0.0762939453125
18.1299999,0.4644751250743866,0.13168109953403473,9.890447616577148,-0.3814697265625,-1.129150390625,-0.18310546875
18.1499999,0.4644751250743866,0.12689268589019775,9.888052940368652,-0.213623046875,-1.220703125,-0.1373291015625
18.1699999,0.4668693244457245,0.12689268589019775,9.883264541625977,0.42724609375,-1.3427734375,-0.1220703125
18.1899999,0.4668693244457245,0.13168109953403473,9.885659217834473,0.1068115234375,-1.251220703125,-0.091552734375
18.2099999,0.4692635238170624,0.13407529890537262,9.883264541625977,0.274658203125,-1.3580322265625,-0.091552734375
18.2299999,0.47165772318840027,0.1388636976480484,9.880870819091797,0.2593994140625,-1.251220703125,0.0457763671875
18.249999900000002,0.4692635238170624,0.1388636976480484,9.885659217834473,0.0762939453125,-1.129150390625,-0.0762939453125
18.269999900000002,0.4668693244457245,0.1412578970193863,9.880870819091797,0.6103515625,-1.4495849609375,-0.1220703125
18.2899999,0.4668693244457245,0.14604631066322327,9.883264541625977,0.5645751953125,-1.46484375,-0.0457763671875
18.3099999,0.4668693244457245,0.15322890877723694,9.883264541625977,0.6561279296875,-1.4801025390625,-0.06103515625
18.3299999,0.4668693244457245,0.15562310814857483,9.885659217834473,0.1220703125,-1.40380859375,-0.06103515625
18.3499999,0.4644751250743866,0.14604631066322327,9.876082420349121,0.0152587890625,-1.373291015625,0.213623046875
18.3699999,0.4644751250743866,0.14604631066322327,9.885659217834473,-1.708984375,-0.79345703125,1.2359619140625
18.3899999,0.4620809257030487,0.14604631066322327,9.876082420349121,0.1373291015625,-1.312255859375,0.244140625
18.409999900000003,0.4644751250743866,0.15083470940589905,9.880870819091797,-0.79345703125,-1.2054443359375,0.1068115234375
18.429999900000002,0.4668693244457245,0.15562310814857483,9.885659217834473,-0.4730224609375,-1.2664794921875,0.640869140625
18.4499999,0.4668693244457245,0.15322890877723694,9.883264541625977,-0.1068115234375,-1.3885498046875,0.274658203125
18.4699999,0.4668693244457245,0.14844051003456116,9.890447616577148,-0.3509521484375,-1.312255859375,-0.244140625
18.4899999,0.4692635238170624,0.14365209639072418,9.888052940368652,0.5340576171875,-1.5411376953125,-0.091552734375
18.5099999,0.47405192255973816,0.1412578970193863,9.888052940368652,0.2899169921875,-1.46484375,-0.1068115234375
18.5299999,0.47644615173339844,0.1388636976480484,9.885659217834473,-0.4119873046875,-1.1749267578125,-0.213623046875
18.5499999,0.47884035110473633,0.1388636976480484,9.885659217834473,-0.335693359375,-1.1749267578125,-0.1220703125
18.5699999,0.47405192255973816,0.1388636976480484,9.885659217834473,0.67138671875,-1.495361328125,-0.1678466796875
18.589999900000002,0.4644751250743866,0.1388636976480484,9.8784761428833,0.48828125,-1.4495849609375,-0.0457763671875
18.609999900000002,0.4668693244457245,0.14604631066322327,9.880870819091797,-1.8310546875,-0.79345703125,0.9307861328125
18.6299999,0.4644751250743866,0.1412578970193863,9.873687744140625,-1.129150390625,-0.9918212890625,0.213623046875
18.6499999,0.4668693244457245,0.1412578970193863,9.880870819091797,0.213623046875,-1.3427734375,-0.2899169921875
18.6699999,0.4668693244457245,0.1388636976480484,9.883264541625977,0.3662109375,-1.4801025390625,-0.1373291015625
18.6899999,0.4692635238170624,0.1412578970193863,9.888052940368652,-0.3204345703125,-1.373291015625,-0.1678466796875
18.7099999,0.4692635238170624,0.1412578970193863,9.885659217834473,-0.1678466796875,-1.3885498046875,-0.1373291015625
18.7299999,0.47165772318840027,0.1388636976480484,9.888052940368652,0.06103515625,-1.373291015625,-0.152587890625
18.749999900000002,0.47405192255973816,0.1364694982767105,9.888052940368652,-0.1983642578125,-1.2664794921875,-0.1678466796875
18.769999900000002,0.47405192255973816,0.13168109953403473,9.888052940368652,-0.1220703125,-1.251220703125,-0.152587890625
18.7899999,0.47405192255973816,0.13168109953403473,9.888052940368652,0.3509521484375,-1.40380859375,-0.152587890625
18.8099999,0.47405192255973816,0.13168109953403473,9.890447616577148,-0.030517578125,-1.3275146484375,-0.18310546875
18.8299999,0.47405192255973816,0.12928688526153564,9.890447616577148,-0.3662109375,-1.2054443359375,-0.213623046875
18.8499999,0.47165772318840027,0.12928688526153564,9.888052940368652,0.2288818359375,-1.4190673828125,-0.1373291015625
18.8699999,0.4668693244457245,0.12928688526153564,9.885659217834473,0.5950927734375,-1.495361328125,-0.1373291015625
18.8899999,0.4644751250743866,0.13168109953403473,9.885659217834473,-0.885009765625,-1.129150390625,0.54931640625
18.909999900000003,0.4644751250743866,0.13407529890537262,9.883264541625977,-1.434326171875,-1.068115234375,0.5340576171875
18.929999900000002,0.4644751250743866,0.1364694982767105,9.885659217834473,0.091552734375,-1.52587890625,-0.2899169921875
18.9499999,0.4668693244457245,0.1364694982767105,9.885659217834473,0.091552734375,-1.556396484375,-0.2288818359375
18.9699999,0.4692635238170624,0.1364694982767105,9.885659217834473,-0.2288818359375,-1.4801025390625,-0.1373291015625
18.9899999,0.47165772318840027,0.13407529890537262,9.885659217834473,-0.0762939453125,-1.4495849609375,-0.1678466796875
19.0099999,0.47165772318840027,0.13168109953403473,9.888052940368652,-0.2593994140625,-1.3427734375,-0.213623046875
19.0299999,0.47165772318840027,0.12689268589019775,9.892841339111328,-0.2899169921875,-1.3275146484375,-0.18310546875
19.0499999,0.47165772318840027,0.12210428714752197,9.892841339111328,-0.0762939453125,-1.3275146484375,-0.1220703125
19.0699999,0.4692635238170624,0.11971008777618408,9.890447616577148,-0.213623046875,-1.2969970703125,-0.1068115234375
19.089999900000002,0.4692635238170624,0.12210428714752197,9.888052940368652,-0.518798828125,-1.2359619140625,-0.1373291015625
19.109999900000002,0.4692635238170624,0.12689268589019775,9.888052940368652,-0.0762939453125,-1.3885498046875,-0.1220703125
19.1299999,0.4692635238170624,0.12928688526153564,9.890447616577148,-0.1220703125,-1.40380859375,-0.213623046875
19.1499999,0.47165772318840027,0.12928688526153564,9.895236015319824,0.06103515625,-1.373291015625,-0.1220703125
19.1699999,0.47405192255973816,0.13168109953403473,9.897629737854004,0,-1.3580322265625,-0.0762939453125
19.1899999,0.47405192255973816,0.13168109953403473,9.897629737854004,-0.274658203125,-1.2969970703125,-0.1373291015625
19.2099999,0.47405192255973816,0.1364694982767105,9.892841339111328,-0.4425048828125,-1.2969970703125,-0.152587890625
19.2299999,0.47405192255973816,0.13407529890537262,9.885659217834473,-0.244140625,-1.312255859375,-0.1220703125
19.249999900000002,0.47165772318840027,0.12928688526153564,9.880870819091797,-0.4425048828125,-1.220703125,-0.1373291015625
19.269999900000002,0.47165772318840027,0.12449848651885986,9.8784761428833,-0.579833984375,-1.2054443359375,-0.152587890625
19.2899999,0.4692635238170624,0.11971008777618408,9.880870819091797,-0.5035400390625,-1.251220703125,-0.1068115234375
19.3099999,0.4692635238170624,0.1173158809542656,9.885659217834473,-0.518798828125,-1.2359619140625,-0.1220703125
19.3299999,0.4668693244457245,0.1149216815829277,9.890447616577148,-0.213623046875,-1.4190673828125,-0.0762939453125
19.3499999,0.4668693244457245,0.1149216815829277,9.895236015319824,0.1220703125,-1.4190673828125,-0.152587890625
19.3699999,0.4692635238170624,0.11252748221158981,9.897629737854004,-0.0457763671875,-1.2969970703125,-0.1373291015625
19.3899999,0.47165772318840027,0.1149216815829277,9.895236015319824,-0.1220703125,-1.2664794921875,-0.1220703125
19.409999900000003,0.47405192255973816,0.1149216815829277,9.892841339111328,-0.0762939453125,-1.2969970703125,-0.1983642578125
19.429999900000002,0.47405192255973816,0.1173158809542656,9.888052940368652,-0.1373291015625,-1.2969970703125,-0.1373291015625
19.4499999,0.47405192255973816,0.1173158809542656,9.885659217834473,-0.0762939453125,-1.28173828125,-0.06103515625
19.4699999,0.47405192255973816,0.12210428714752197,9.883264541625977,0,-1.3580322265625,-0.213623046875
19.4899999,0.47405192255973816,0.12449848651885986,9.885659217834473,-0.2288818359375,-1.1749267578125,-0.091552734375
19.5099999,0.47165772318840027,0.12689268589019775,9.885659217834473,-0.18310546875,-1.251220703125,-0.1220703125
19.5299999,0.4692635238170624,0.12689268589019775,9.888052940368652,-0.274658203125,-1.2359619140625,-0.2288818359375
19.5499999,0.4668693244457245,0.12449848651885986,9.892841339111328,-0.54931640625,-1.15966796875,-0.1068115234375
19.5699999,0.4644751250743866,0.12210428714752197,9.895236015319824,-0.244140625,-1.28173828125,-0.1678466796875
19.589999900000002,0.4644751250743866,0.1173158809542656,9.895236015319824,-0.1373291015625,-1.2664794921875,-0.1678466796875
19.609999900000002,0.4620809257030487,0.1149216815829277,9.892841339111328,-0.0457763671875,-1.3427734375,-0.1220703125
19.6299999,0.4620809257030487,0.11252748221158981,9.890447616577148,-0.0457763671875,-1.3580322265625,-0.152587890625
19.6499999,0.4596867263317108,0.1149216815829277,9.890447616577148,-0.0762939453125,-1.3580322265625,-0.1983642578125
19.6699999,0.4596867263317108,0.1173158809542656,9.890447616577148,0,-1.40380859375,-0.1983642578125
19.6899999,0.4596867263317108,0.1173158809542656,9.890447616577148,-0.1220703125,-1.312255859375,-0.1678466796875
19.7099999,0.4644751250743866,0.1149216815829277,9.890447616577148,-0.3509521484375,-1.2359619140625,-0.1220703125
19.7299999,0.4644751250743866,0.11252748221158981,9.890447616577148,-0.152587890625,-1.312255859375,-0.18310546875
19.749999900000002,0.4644751250743866,0.1149216815829277,9.890447616577148,0.0457763671875,-1.4190673828125,-0.1220703125
19.769999900000002,0.4644751250743866,0.1173158809542656,9.890447616577148,-0.0457763671875,-1.3580322265625,-0.0762939453125
19.7899999,0.4644751250743866,0.1149216815829277,9.890447616577148,-0.2288818359375,-1.3427734375,-0.1220703125
19.8099999,0.4644751250743866,0.1149216815829277,9.890447616577148,0.030517578125,-1.373291015625,-0.06103515625
19.8299999,0.4668693244457245,0.1149216815829277,9.890447616577148,0.1068115234375,-1.312255859375,-0.152587890625
19.8499999,0.4668693244457245,0.11252748221158981,9.888052940368652,-0.1220703125,-1.3275146484375,-0.1373291015625
19.8699999,0.4668693244457245,0.1149216815829277,9.888052940368652,0.06103515625,-1.40380859375,-0.0457763671875
19.8899999,0.4692635238170624,0.1149216815829277,9.892841339111328,0.152587890625,-1.3427734375,-0.1220703125
19.909999900000003,0.4692635238170624,0.1149216815829277,9.890447616577148,0.06103515625,-1.28173828125,-0.18310546875
19.929999900000002,0.4668693244457245,0.1149216815829277,9.890447616577148,-0.823974609375,-1.0833740234375,-0.1983642578125
19.9499999,0.4644751250743866,0.11971008777618408,9.883264541625977,0.48828125,-1.46484375,-0.152587890625
19.9699999,0.4620809257030487,0.12449848651885986,9.883264541625977,0.0762939453125,-1.373291015625,-0.0762939453125
19.9899999,0.4620809257030487,0.12449848651885986,9.883264541625977,-0.6103515625,-1.220703125,-0.1678466796875
20.0099999,0.4620809257030487,0.11971008777618408,9.888052940368652,0.152587890625,-1.434326171875,-0.1220703125
20.0299999,0.4644751250743866,0.1149216815829277,9.890447616577148,0.1220703125,-1.3580322265625,-0.1220703125
20.0499999,0.4668693244457245,0.11252748221158981,9.892841339111328,-0.2593994140625,-1.2969970703125,-0.1373291015625
20.0699999,0.47165772318840027,0.11013327538967133,9.892841339111328,0.18310546875,-1.3885498046875,-0.091552734375
20.089999900000002,0.47644615173339844,0.11013327538967133,9.892841339111328,-0.0762939453125,-1.2664794921875,-0.1220703125
20.109999900000002,0.47884035110473633,0.10773907601833344,9.895236015319824,-0.30517578125,-1.2359619140625,-0.1220703125
20.1299999,0.4812345504760742,0.11013327538967133,9.890447616577148,0.8544921875,-1.434326171875,-0.0762939453125
20.1499999,0.47884035110473633,0.11252748221158981,9.890447616577148,-0.0457763671875,-1.251220703125,-0.1373291015625
20.1699999,0.47644615173339844,0.11971008777618408,9.885659217834473,0.030517578125,-1.3275146484375,-0.1068115234375
20.1899999,0.47405192255973816,0.12449848651885986,9.880870819091797,0.6256103515625,-1.46484375,-0.06103515625
20.2099999,0.47405192255973816,0.12928688526153564,9.880870819091797,0.1373291015625,-1.312255859375,-0.0762939453125
20.2299999,0.47165772318840027,0.12928688526153564,9.883264541625977,-0.030517578125,-1.3580322265625,-0.1678466796875
20.249999900000002,0.47165772318840027,0.12449848651885986,9.883264541625977,0.274658203125,-1.40380859375,-0.18310546875
20.269999900000002,0.47405192255973816,0.12210428714752197,9.885659217834473,0.0457763671875,-1.3275146484375,-0.152587890625
20.2899999,0.47405192255973816,0.11971008777618408,9.885659217834473,-0.30517578125,-1.15966796875,-0.1678466796875
20.3099999,0.47405192255973816,0.1173158809542656,9.888052940368652,0.091552734375,-1.3275146484375,-0.1373291015625
20.3299999,0.47405192255973816,0.1173158809542656,9.890447616577148,0.0152587890625,-1.40380859375,-0.1983642578125
20.3499999,0.47165772318840027,0.11971008777618408,9.890447616577148,-0.1220703125,-1.312255859375,-0.091552734375
20.3699999,0.4692635238170624,0.11971008777618408,9.892841339111328,-0.0152587890625,-1.2969970703125,-0.0762939453125
20.3899999,0.47165772318840027,0.11971008777618408,9.892841339111328,-0.0152587890625,-1.4190673828125,-0.18310546875
