# Time (seconds),Accel_X,Accel_Y,Accel_Z,Gyro_X,Gyro_Y,Gyro_Z
0.0099999,1.6615760326385498,1.3311761617660522,-9.931148529052734,14.7247314453125,-0.6256103515625,28.4271240234375
0.029999900000000003,1.745373010635376,1.5849615335464478,-9.8784761428833,9.4757080078125,2.655029296875,34.3475341796875
0.0499999,1.7142484188079834,1.5969325304031372,-9.849745750427246,2.8228759765625,0.1220703125,44.3115234375
0.0699999,1.5275006294250488,1.256955862045288,-9.859322547912598,-1.03759765625,-1.8768310546875,55.206298828125
0.08999990000000001,1.170764684677124,0.44771572947502136,-10.041281700134277,18.1121826171875,-1.4190673828125,57.1441650390625
0.10999990000000001,0.6440402865409851,-0.9026140570640564,-10.345345497131348,30.731201171875,2.8076171875,47.943115234375
0.1299999,-0.038307227194309235,-2.738966703414917,-10.577583312988281,31.73828125,12.5274658203125,31.79931640625
0.14999990000000002,-0.8164227604866028,-4.819528102874756,-10.60391902923584,23.1170654296875,19.2413330078125,6.2255859375
0.1699999,-1.6208745241165161,-6.7923502922058105,-10.345345497131348,-2.7923583984375,22.0947265625,-29.815673828125
0.1899999,-2.3774423599243164,-8.360552787780762,-9.770736694335938,-39.24560546875,26.2908935546875,-68.42041015625
0.20999990000000002,-2.920926094055176,-9.066842079162598,-9.153033256530762,-43.182373046875,27.0538330078125,-107.025146484375
0.2299999,-3.093308687210083,-8.633491516113281,-8.62391471862793,-47.9583740234375,24.59716796875,-140.838623046875
0.2499999,-2.734178304672241,-6.873753070831299,-8.360552787780762,-64.39208984375,28.86962890625,-157.3333740234375
0.2699999,-1.821987509727478,-3.9647979736328125,-8.398859977722168,-75.8514404296875,32.77587890625,-151.2603759765625
0.28999990000000003,-0.4213795065879822,-0.2777273952960968,-8.633491516113281,-65.521240234375,30.3955078125,-130.7830810546875
0.3099999,1.2545616626739502,3.555389642715454,-8.992621421813965,-34.1644287109375,16.11328125,-99.7467041015625
0.3299999,2.9233202934265137,6.8809356689453125,-9.318233489990234,-7.781982421875,8.4686279296875,-55.8929443359375
0.34999990000000003,4.350264549255371,9.282320022583008,-9.478644371032715,2.62451171875,11.688232421875,-14.3585205078125
0.3699999,5.377377033233643,10.6709566116333,-9.402029991149902,6.6986083984375,8.2855224609375,17.51708984375
0.3899999,5.87776517868042,11.02051067352295,-9.136273384094238,18.9361572265625,-7.232666015625,55.3436279296875
0.40999990000000003,5.832275390625,10.563218116760254,-8.856152534484863,31.9976806640625,-21.0723876953125,96.649169921875
0.4299999,5.2696380615234375,9.399636268615723,-8.631096839904785,37.0025634765625,-18.7225341796875,126.0528564453125
0.4499999,4.271255970001221,7.623138427734375,-8.676587104797363,41.7633056640625,-22.430419921875,142.08984375
0.4699999,2.9903578758239746,5.372588634490967,-8.856152534484863,53.1158447265625,-28.86962890625,146.8353271484375
0.4899999,1.6065093278884888,2.7676970958709717,-9.11233139038086,60.4248046875,-27.83203125,146.240234375
0.5099999,0.2513911724090576,-0.014365210197865963,-9.445125579833984,61.2030029296875,-26.3214111328125,134.4451904296875
0.5299999,-0.9911994934082031,-2.868253707885742,-9.737217903137207,54.351806640625,-20.599365234375,111.6790771484375
0.5499999,-2.070984363555908,-5.592854976654053,-9.955090522766113,41.717529296875,-12.0849609375,80.4901123046875
0.5699999,-2.959233283996582,-8.032546997070312,-10.014945983886719,35.491943359375,-5.462646484375,45.440673828125
0.5899998999999999,-3.6583402156829834,-10.007762908935547,-9.964667320251465,30.1971435546875,-2.8228759765625,8.148193359375
0.6099998999999999,-4.14915132522583,-11.365275382995605,-9.828198432922363,11.04736328125,4.08935546875,-33.0963134765625
0.6299999,-4.410119533538818,-11.930307388305664,-9.627084732055664,-31.43310546875,20.7977294921875,-76.4617919921875
0.6499999,-4.4077253341674805,-11.60708999633789,-9.3828763961792,-71.1517333984375,40.1458740234375,-114.044189453125
0.6699999,-4.019864559173584,-10.110713958740234,-9.047688484191895,-84.1217041015625,49.4232177734375,-148.6358642578125
0.6899999,-3.1962592601776123,-7.484274387359619,-8.822632789611816,-74.89013671875,40.313720703125,-168.1365966796875
0.7099999,-1.9393033981323242,-3.9600095748901367,-8.662221908569336,-68.4356689453125,37.1551513671875,-156.463623046875
0.7299998999999999,-0.33039984107017517,-0.0071826050989329815,-8.765172004699707,-71.197509765625,35.58349609375,-128.5858154296875
0.7499998999999999,1.4676456451416016,3.8283286094665527,-8.947132110595703,-49.8199462890625,31.6314697265625,-104.3853759765625
0.7699999,3.2417490482330322,7.060500621795654,-9.165003776550293,-24.2767333984375,22.0184326171875,-72.44873046875
0.7899999,4.795586109161377,9.425971984863281,-9.188945770263672,-8.6212158203125,16.021728515625,-33.0352783203125
0.8099999,5.959167957305908,10.8505220413208,-8.935160636901855,-1.617431640625,11.77978515625,6.7596435546875
0.8299999,6.588842868804932,11.346121788024902,-8.47786808013916,5.1727294921875,-2.960205078125,42.96875
0.8499998999999999,6.016628742218018,9.84495735168457,-7.63989782333374,22.2930908203125,-28.6712646484375,107.177734375
0.8699998999999999,4.934449672698975,8.106766700744629,-7.6782050132751465,21.9573974609375,-34.027099609375,126.28173828125
0.8899999,3.5266590118408203,5.892130374908447,-8.147468566894531,22.979736328125,-40.130615234375,134.8724365234375
0.9099999,2.008735179901123,3.361459255218506,-8.901641845703125,26.5350341796875,-35.888671875,134.9945068359375
0.9299999,0.5626373887062073,0.6943184733390808,-9.84256362915039,29.1595458984375,-26.1077880859375,126.983642578125
0.9499999,-0.7230489253997803,-2.0685901641845703,-10.702081680297852,30.21240234375,-15.93017578125,112.701416015625
0.9699998999999999,-1.7525556087493896,-4.702212333679199,-11.343728065490723,29.1290283203125,-7.232666015625,83.4503173828125
0.9899998999999999,-2.5115175247192383,-7.070077419281006,-11.597513198852539,24.5819091796875,6.16455078125,43.9910888671875
1.0099999,-3.0119056701660156,-8.968679428100586,-11.513715744018555,20.6451416015625,14.5721435546875,7.9345703125
1.0299999,-3.2609026432037354,-10.220847129821777,-11.142614364624023,17.1356201171875,15.045166015625,-26.30615234375
1.0499999,-3.3063924312591553,-10.759542465209961,-10.575188636779785,7.659912109375,17.6849365234375,-63.446044921875
1.0699999,-3.179499864578247,-10.563218116760254,-9.926360130310059,-14.0838623046875,26.580810546875,-99.6856689453125
1.0899999,-2.8395233154296875,-9.481039047241211,-9.318233489990234,-26.5350341796875,30.3955078125,-133.575439453125
1.1099999,-2.250549554824829,-7.580042362213135,-8.798690795898438,-31.707763671875,28.839111328125,-152.28271484375
1.1299999,-1.400607943534851,-4.963180065155029,-8.374917984008789,-42.205810546875,30.9295654296875,-152.313232421875
1.1499999,-0.30885201692581177,-1.8195933103561401,-8.125920295715332,-45.47119140625,25.45166015625,-146.54541015625
1.1699998999999999,0.9528923034667969,1.4269442558288574,-8.066065788269043,-37.9638671875,11.7340087890625,-128.9825439453125
1.1899998999999999,2.298433542251587,4.563348293304443,-8.164227485656738,-18.5394287109375,2.3193359375,-102.4627685546875
1.2099999,3.5721490383148193,7.208941459655762,-8.4108304977417,-13.3209228515625,0.1373291015625,-64.0869140625
1.2299999,4.654327869415283,9.23443603515625,-8.78193187713623,-18.49365234375,-4.2266845703125,-27.801513671875
1.2499999,5.4444146156311035,10.529699325561523,-9.038111686706543,-13.7176513671875,-2.62451171875,4.8065185546875
1.2699999,5.834669589996338,11.02051067352295,-9.148244857788086,8.1939697265625,-8.4381103515625,41.9769287109375
1.2899999,5.78678560256958,10.714052200317383,-9.066842079162598,26.3824462890625,-22.2015380859375,78.8726806640625
1.3099999,5.2911858558654785,9.63187313079834,-8.846575736999512,25.7415771484375,-28.4423828125,104.6142578125
1.3299999,4.376600742340088,7.757213592529297,-8.655038833618164,18.8140869140625,-30.7769775390625,120.8343505859375
1.3499999,3.1675288677215576,5.3127336502075195,-8.69334602355957,25.6805419921875,-34.1949462890625,124.5574951171875
1.3699999,1.8602946996688843,2.5737667083740234,-9.004592895507812,28.4881591796875,-34.4085693359375,118.5760498046875
1.3899999,0.6272808313369751,-0.15801730751991272,-9.545681953430176,20.751953125,-25.08544921875,106.0791015625
1.4099999,-0.3998316824436188,-2.5929205417633057,-10.1753568649292,17.8375244140625,-15.19775390625,89.8284912109375
1.4299998999999999,-1.2210428714752197,-4.757278919219971,-10.6925048828125,25.299072265625,-9.429931640625,72.69287109375
1.4499999,-1.8914192914962769,-6.718130111694336,-11.013327598571777,40.10009765625,-8.11767578125,44.7845458984375
1.4699999,-2.4684219360351562,-8.506598472595215,-11.097125053405762,43.51806640625,-5.859375,-2.6092529296875
1.4899999,-2.894589900970459,-9.821015357971191,-11.018115997314453,16.3421630859375,7.2479248046875,-56.671142578125
1.5099999,-3.069366693496704,-10.376470565795898,-10.623072624206543,-27.7099609375,29.998779296875,-93.44482421875
1.5299999,-2.911349296569824,-9.888052940368652,-10.070012092590332,-53.2379150390625,39.093017578125,-113.22021484375
1.5499999,-2.389413356781006,-8.358158111572266,-9.294290542602539,-47.5006103515625,34.2254638671875,-131.9732666015625
1.5699999,-1.5729905366897583,-6.054935932159424,-8.556877136230469,-28.839111328125,22.4761962890625,-144.561767578125
1.5899999,-0.5722141861915588,-3.332728862762451,-8.030152320861816,-34.60693359375,13.1683349609375,-136.932373046875
1.6099999,0.5291185975074768,-0.36152446269989014,-7.872135162353516,-56.884765625,10.1165771484375,-121.3226318359375
1.6299999,1.6328455209732056,2.5953147411346436,-8.044517517089844,-63.4002685546875,9.6435546875,-103.8818359375
1.6499999,2.676717519760132,5.475539207458496,-8.56645393371582,-39.8406982421875,1.2359619140625,-78.369140625
1.6699999,3.5960910320281982,7.999027729034424,-9.20091724395752,-5.4473876953125,-3.326416015625,-39.703369140625
1.6899998999999999,4.335899353027344,9.95748519897461,-9.703699111938477,11.3525390625,0.9002685546875,5.0506591796875
1.7099999,4.812345504760742,11.065999984741211,-9.895236015319824,19.53125,-3.2501220703125,44.0521240234375
1.7299999,4.9152960777282715,11.101913452148438,-9.746794700622559,36.529541015625,-15.350341796875,78.125
1.7499999,4.6471452713012695,10.237606048583984,-9.354146003723145,40.9088134765625,-20.81298828125,101.07421875
1.7699999,4.027047157287598,8.597578048706055,-8.904036521911621,28.3966064453125,-17.2271728515625,118.4539794921875
1.7899999,3.1220390796661377,6.296750545501709,-8.578424453735352,23.712158203125,-22.3846435546875,129.669189453125
1.8099999,2.0925323963165283,3.711012601852417,-8.645462036132812,33.1573486328125,-36.4837646484375,114.2425537109375
1.8299999,1.0271124839782715,0.8834604024887085,-9.035717010498047,38.7115478515625,-33.1573486328125,90.5303955078125
1.8499999,0.0071826050989329815,-1.9704279899597168,-9.864110946655273,46.356201171875,-19.4091796875,76.1871337890625
1.8699999,-0.8643068075180054,-4.613626480102539,-10.730812072753906,47.4700927734375,-5.3558349609375,53.5736083984375
1.8899999,-1.6065093278884888,-7.0772600173950195,-11.291055679321289,41.2750244140625,11.0015869140625,25.93994140625
1.9099999,-2.1595699787139893,-9.064447402954102,-11.32457447052002,25.665283203125,17.1661376953125,-9.979248046875
1.9299998999999999,-2.4875755310058594,-10.350133895874023,-10.781089782714844,3.11279296875,22.6898193359375,-46.9512939453125
1.9499999,-2.580949544906616,-10.802638053894043,-9.852140426635742,-24.566650390625,25.3143310546875,-72.174072265625
1.9699999,-2.4205379486083984,-10.261548042297363,-8.798690795898438,-46.5240478515625,24.322509765625,-95.3826904296875
1.9899999,-2.011129379272461,-8.815450668334961,-7.8098859786987305,-54.4891357421875,17.9901123046875,-118.0267333984375
2.0099999,-1.3982137441635132,-6.593631267547607,-7.182605266571045,-50.72021484375,3.204345703125,-127.899169921875
2.0299999,-0.6416460275650024,-3.928884983062744,-7.113173484802246,-58.3648681640625,-11.5966796875,-121.4141845703125
2.0499999,0.22026655077934265,-0.849941611289978,-7.819462776184082,-66.3604736328125,-13.3209228515625,-117.431640625
2.0699999,1.1276689767837524,2.255337953567505,-8.877699851989746,-56.0760498046875,8.0413818359375,-105.010986328125
2.0899999,2.0638017654418945,5.322310447692871,-10.127472877502441,-30.0750732421875,11.474609375,-82.1685791015625
2.1099999,2.985569477081299,8.027758598327637,-10.855310440063477,-1.40380859375,10.2691650390625,-44.6014404296875
2.1299999,3.7876269817352295,10.034099578857422,-10.8505220413208,13.4429931640625,7.4462890625,-4.180908203125
2.1499999,4.343081951141357,11.061211585998535,-10.261548042297363,18.85986328125,-2.166748046875,26.641845703125
2.1699999,4.563348293304443,11.092336654663086,-9.430760383605957,28.80859375,-15.5792236328125,48.248291015625
2.1899999,4.426878929138184,10.218452453613281,-8.669404029846191,33.966064453125,-18.49365234375,73.272705078125
2.2099999,3.9887399673461914,8.846575736999512,-8.29830265045166,26.8402099609375,-19.10400390625,95.0927734375
2.2299999,3.3255462646484375,7.168240070343018,-8.212111473083496,17.333984375,-19.0582275390625,111.99951171875
2.2499999,2.516305923461914,5.370194435119629,-8.418013572692871,16.204833984375,-22.27783203125,122.894287109375
2.2699999,1.5897499322891235,3.313575267791748,-8.860940933227539,22.979736328125,-27.6031494140625,130.9814453125
2.2899999,0.5650315880775452,0.790086567401886,-9.593565940856934,33.6456298828125,-28.01513671875,128.7384033203125
2.3099999,-0.5482721924781799,-2.4157495498657227,-10.57040023803711,34.3780517578125,-16.5252685546875,106.842041015625
2.3299999,-1.6424223184585571,-6.004657745361328,-11.408370971679688,35.5224609375,7.01904296875,60.1348876953125
2.3499999,-2.5737667083740234,-9.406818389892578,-11.827356338500977,29.6783447265625,23.0560302734375,5.8746337890625
2.3699999,-3.361459255218506,-12.6365966796875,-10.453084945678711,-24.627685546875,29.693603515625,-68.023681640625
2.3899999,-3.136404275894165,-11.839327812194824,-9.030928611755371,-42.4041748046875,23.590087890625,-93.2769775390625
2.4099999,-2.5546131134033203,-9.612719535827637,-7.714118003845215,-34.0423583984375,6.89697265625,-114.3951416015625
2.4299999,-1.7310078144073486,-6.572083473205566,-6.799532890319824,-29.0985107421875,-7.1868896484375,-114.044189453125
2.4499999,-0.7829039692878723,-3.2154128551483154,-6.878541469573975,-47.4853515625,-21.514892578125,-106.3995361328125
2.4699999,0.17717093229293823,0.1149216815829277,-7.864952564239502,-74.737548828125,-16.4794921875,-106.5826416015625
2.4899999,1.1324573755264282,3.24414324760437,-9.368511199951172,-63.5528564453125,16.0675048828125,-98.602294921875
2.5099999,2.049436569213867,6.071695327758789,-10.90798282623291,-20.6298828125,23.1475830078125,-74.1424560546875
2.5299999,2.9089550971984863,8.396465301513672,-11.63342571258545,13.97705078125,20.6451416015625,-35.70556640625
2.5499999,3.670311212539673,10.02452278137207,-11.319786071777344,20.9503173828125,15.1214599609375,-3.96728515625
2.5699999,4.197035789489746,10.682928085327148,-10.256759643554688,16.2506103515625,1.1749267578125,25.9246826171875
2.5899999,4.393360137939453,10.400412559509277,-8.99740982055664,19.2718505859375,-17.303466796875,57.7850341796875
2.6099999,4.252102375030518,9.361329078674316,-8.044517517089844,25.2532958984375,-22.8271484375,83.282470703125
2.6299999,3.751713991165161,7.706935405731201,-7.759607791900635,23.6358642578125,-23.1781005859375,100.982666015625
2.6499999,2.985569477081299,5.69580602645874,-8.106766700744629,19.7906494140625,-23.529052734375,108.33740234375
2.6699999,2.0829553604125977,3.584120035171509,-8.820239067077637,15.0604248046875,-16.3116455078125,109.6649169921875
2.6899999,1.1516109704971313,1.4844050407409668,-9.701305389404297,13.336181640625,-9.5672607421875,110.65673828125
2.7099999,0.2537853717803955,-0.706289529800415,-10.429142951965332,25.7568359375,-6.1798095703125,108.33740234375
2.7299999,-0.5746083855628967,-3.043030261993408,-10.986991882324219,44.769287109375,-6.6070556640625,85.357666015625
2.7499999,-1.3215993642807007,-5.5329999923706055,-11.257535934448242,42.1905517578125,-3.8299560546875,45.7763671875
2.7699999,-1.9393033981323242,-7.876923561096191,-11.1474027633667,26.519775390625,14.2822265625,7.415771484375
2.7899999,-2.3726539611816406,-9.603142738342285,-10.742782592773438,0.3204345703125,19.6075439453125,-29.9835205078125
2.8099999,-2.561795711517334,-10.400412559509277,-9.96945571899414,-27.313232421875,22.857666015625,-61.614990234375
2.8299999,-2.4827871322631836,-10.053253173828125,-9.10993766784668,-38.5284423828125,19.2108154296875,-91.094970703125
2.8499999,-2.1164743900299072,-8.676587104797363,-8.38449478149414,-31.31103515625,10.772705078125,-112.5030517578125
2.8699999,-1.5418659448623657,-6.555324077606201,-8.044517517089844,-31.036376953125,4.425048828125,-118.7591552734375
2.8899999,-0.8212111592292786,-3.9240965843200684,-8.26478385925293,-55.8013916015625,4.3182373046875,-121.185302734375
2.9099999,-0.033518824726343155,-1.0654197931289673,-8.731653213500977,-64.3463134765625,18.0206298828125,-123.992919921875
2.9299999,0.7948749661445618,1.8962076902389526,-9.452308654785156,-38.39111328125,17.5018310546875,-112.2589111328125
2.9499999,1.6543933153152466,4.752490520477295,-9.998186111450195,-1.77001953125,7.9498291015625,-87.1124267578125
2.9699999,2.4875755310058594,7.2568254470825195,-10.192116737365723,11.65771484375,11.29150390625,-52.9327392578125
2.9899999,3.24414324760437,9.208099365234375,-10.041281700134277,3.936767578125,8.7738037109375,-23.01025390625
3.0099999,3.8498764038085938,10.488997459411621,-9.502586364746094,4.7607421875,2.4566650390625,5.523681640625
3.0299999,4.194641590118408,11.008539199829102,-8.87051773071289,19.1192626953125,-10.3607177734375,42.2821044921875
3.0499999,4.24970817565918,10.845733642578125,-8.355764389038086,27.6641845703125,-23.01025390625,79.4219970703125
3.0699999,3.9480385780334473,9.988609313964844,-8.099584579467773,22.003173828125,-22.369384765625,105.377197265625
3.0899999,3.308786630630493,8.497021675109863,-8.159439086914062,14.312744140625,-23.2696533203125,124.3133544921875
3.1099999,2.43011474609375,6.536170482635498,-8.422801971435547,20.6451416015625,-28.4881591796875,134.9945068359375
3.1299999,1.4293384552001953,4.197035789489746,-8.942343711853027,30.33447265625,-35.2630615234375,139.678955078125
3.1499999,0.3471592366695404,1.2832920551300049,-9.615114212036133,39.7491455078125,-31.005859375,139.0533447265625
3.1699999,-0.7589619159698486,-2.1763293743133545,-10.575188636779785,50.9185791015625,-24.84130859375,115.997314453125
3.1899999,-1.8052281141281128,-5.96874475479126,-11.408370971679688,53.0548095703125,-4.6844482421875,64.9871826171875
3.2099999,-2.691082715988159,-9.53849983215332,-11.8441162109375,34.5001220703125,19.989013671875,10.223388671875
3.2299999,-3.2345664501190186,-11.973402976989746,-11.590330123901367,-0.244140625,30.2886962890625,-37.9180908203125
3.2499999,-3.378218650817871,-12.85207462310791,-10.558429718017578,-36.712646484375,34.0118408203125,-70.4193115234375
3.2699999,-3.1316158771514893,-12.0021333694458,-9.181763648986816,-48.52294921875,24.7039794921875,-94.1009521484375
3.2899999,-2.5689783096313477,-9.732429504394531,-7.9176249504089355,-29.78515625,7.5531005859375,-115.447998046875
3.3099999,-1.8148049116134644,-6.648698329925537,-7.321468830108643,-28.9306640625,-4.8065185546875,-118.865966796875
3.3299999000000002,-0.9552865028381348,-3.1459810733795166,-7.704541206359863,-60.211181640625,-3.23486328125,-114.1204833984375
3.3499999,-0.011971008032560349,0.3926490843296051,-8.635885238647461,-64.1326904296875,17.8680419921875,-109.7564697265625
3.3699999,0.993593692779541,3.7493197917938232,-9.864110946655273,-27.2369384765625,23.4527587890625,-93.07861328125
3.3899999,2.0254945755004883,6.62236213684082,-10.685321807861328,8.1634521484375,14.9078369140625,-61.4776611328125
3.4099999,3.0190882682800293,8.856152534484863,-10.800244331359863,13.946533203125,13.641357421875,-26.580810546875
3.4299999,3.8498764038085938,10.283096313476562,-10.271124839782715,7.99560546875,8.2550048828125,4.39453125
3.4499999,4.359841346740723,10.812214851379395,-9.387664794921875,11.0321044921875,-5.7220458984375,38.51318359375
3.4699999,4.443638324737549,10.56800651550293,-8.56645393371582,23.74267578125,-20.050048828125,73.3642578125
3.4899999,4.125209331512451,9.804255485534668,-8.118738174438477,15.960693359375,-23.468017578125,97.2137451171875
3.5099999,3.450044631958008,8.7268648147583,-8.159439086914062,1.28173828125,-21.1029052734375,118.560791015625
3.5299999,2.537853717803955,7.429207801818848,-8.583212852478027,13.275146484375,-26.5350341796875,145.0347900390625
3.5499999,1.436521053314209,5.635950565338135,-9.191340446472168,57.12890625,-37.0635986328125,168.975830078125
3.5699999,0.17717093229293823,2.8155810832977295,-9.947908401489258,88.7908935546875,-41.7633056640625,174.8199462890625
3.5899999,-1.2066776752471924,-1.3000515699386597,-10.66137981414795,83.953857421875,-27.34375,140.4876708984375
3.6099999,-2.492363929748535,-6.251260757446289,-11.17852783203125,51.4678955078125,2.593994140625,72.4945068359375
3.6299999,-3.4117374420166016,-10.862493515014648,-11.166556358337402,14.495849609375,27.8167724609375,-1.40380859375
3.6499999,-3.799597978591919,-13.974955558776855,-10.577583312988281,-21.4385986328125,33.905029296875,-49.1485595703125
3.6699999,-3.663128614425659,-14.949395179748535,-9.473855972290039,-44.4793701171875,28.4881591796875,-77.0111083984375
3.6899999,-3.1914708614349365,-13.87918758392334,-8.250418663024902,-48.1109619140625,21.1944580078125,-103.118896484375
3.7099999,-2.5785553455352783,-11.3269681930542,-7.354987621307373,-46.173095703125,10.55908203125,-129.33349609375
3.7299999,-1.9273324012756348,-7.929595947265625,-7.029376029968262,-49.224853515625,3.4332275390625,-143.1427001953125
3.7499999,-1.2282254695892334,-4.158728122711182,-7.259219646453857,-51.727294921875,4.8828125,-140.228271484375
3.7699999,-0.4884171485900879,-0.4692635238170624,-8.037335395812988,-58.2275390625,4.302978515625,-129.08935546875
3.7899999,0.33758243918418884,3.0190882682800293,-9.016563415527344,-45.3643798828125,2.655029296875,-120.05615234375
3.8099999,1.2042834758758545,6.004657745361328,-9.986215591430664,-19.34814453125,6.40869140625,-95.8404541015625
3.8299999000000002,2.0661959648132324,8.47547435760498,-10.687716484069824,-8.5601806640625,8.8653564453125,-58.6700439453125
3.8499999,2.875436305999756,10.287884712219238,-10.833763122558594,-3.631591796875,11.6424560546875,-20.69091796875
3.8699999,3.5386300086975098,11.334151268005371,-10.429142951965332,6.8206787109375,4.5166015625,13.397216796875
3.8899999,4.036623954772949,10.90798282623291,-8.825027465820312,26.1077880859375,-25.3143310546875,81.0394287109375
3.9099999,3.8067808151245117,9.670180320739746,-8.212111473083496,18.6004638671875,-26.7333984375,101.043701171875
3.9299999,3.2585084438323975,7.864952564239502,-8.04691219329834,9.3994140625,-28.900146484375,120.2239990234375
3.9499999,2.4636335372924805,5.659893035888672,-8.315062522888184,17.1356201171875,-36.8499755859375,131.9732666015625
3.9699999,1.4963760375976562,3.093308687210083,-8.925583839416504,28.717041015625,-34.8052978515625,130.79833984375
3.9899999,0.45489832758903503,0.3471592366695404,-9.799467086791992,28.1219482421875,-26.3214111328125,115.1123046875
4.0099999,-0.5961562395095825,-2.5689783096313477,-10.639832496643066,22.5830078125,-11.0015869140625,98.6328125
4.029999900000001,-1.5705963373184204,-5.408501625061035,-11.281478881835938,22.2625732421875,-0.0457763671875,71.96044921875
4.0499999,-2.4229321479797363,-8.022970199584961,-11.530475616455078,21.3775634765625,6.500244140625,31.524658203125
4.069999900000001,-3.1196448802948,-10.125079154968262,-11.370063781738281,7.3394775390625,14.4500732421875,-14.8468017578125
4.0899999000000005,-3.555389642715454,-11.291055679321289,-10.831368446350098,-22.186279296875,24.8870849609375,-59.0057373046875
4.1099999,-3.6798880100250244,-11.295844078063965,-9.952696800231934,-44.6014404296875,32.928466796875,-93.44482421875
4.1299999000000005,-3.421314239501953,-9.911994934082031,-9.105149269104004,-42.8619384765625,20.8282470703125,-119.7052001953125
4.1499999,-2.806004285812378,-7.448361396789551,-8.38688850402832,-31.2347412109375,7.476806640625,-131.0882568359375
4.1699999000000005,-1.9393033981323242,-4.252102375030518,-8.161833763122559,-31.67724609375,4.669189453125,-126.8310546875
4.1899999,-0.8978256583213806,-0.7230489253997803,-8.523358345031738,-45.2117919921875,5.2032470703125,-119.3695068359375
4.209999900000001,0.19632454216480255,2.650381326675415,-9.11233139038086,-43.3807373046875,15.7012939453125,-105.987548828125
4.2299999,1.2952631711959839,5.714959621429443,-9.832986831665039,-20.7366943359375,16.082763671875,-83.770751953125
4.249999900000001,2.3511061668395996,8.192957878112793,-10.17296314239502,0.274658203125,13.5498046875,-53.7567138671875
4.2699999,3.2968156337738037,9.99339771270752,-10.012551307678223,7.5836181640625,12.6953125,-18.157958984375
4.289999900000001,4.027047157287598,10.994174003601074,-9.387664794921875,9.002685546875,0.48828125,18.0511474609375
4.3099999,4.383783340454102,11.075576782226562,-8.60236644744873,17.3492431640625,-18.707275390625,55.1300048828125
4.329999900000001,4.3191399574279785,10.417171478271484,-7.979874134063721,26.3214111328125,-32.470703125,81.3446044921875
4.3499999,3.801992416381836,9.045293807983398,-7.745242595672607,21.97265625,-32.2723388671875,101.4556884765625
4.369999900000001,2.9305028915405273,7.24485445022583,-8.008605003356934,18.9056396484375,-35.7513427734375,116.3330078125
4.3899999,1.9081788063049316,5.252878665924072,-8.604761123657227,34.48486328125,-41.6107177734375,120.361328125
4.409999900000001,0.828393816947937,3.093308687210083,-9.435548782348633,56.2744140625,-41.7938232421875,123.260498046875
4.4299999,-0.24420857429504395,0.6703764796257019,-10.350133895874023,57.7239990234375,-32.0587158203125,123.291015625
4.449999900000001,-1.2497732639312744,-2.0254945755004883,-11.12346076965332,50.384521484375,-14.739990234375,103.607177734375
4.4699999,-2.188300371170044,-5.018246650695801,-11.568782806396484,47.6226806640625,-2.50244140625,66.436767578125
4.489999900000001,-2.999934673309326,-7.975085735321045,-11.566388130187988,41.3818359375,5.7525634765625,25.1312255859375
4.5099999,-3.584120035171509,-10.340557098388672,-11.116278648376465,20.721435546875,14.0533447265625,-19.8211669921875
4.529999900000001,-3.845088005065918,-11.57357120513916,-10.285490036010742,-16.357421875,25.360107421875,-60.2874755859375
4.5499999,-3.801992416381836,-11.544840812683105,-9.114726066589355,-46.7529296875,33.0352783203125,-84.014892578125
4.569999900000001,-3.40216064453125,-10.046070098876953,-8.11634349822998,-44.6319580078125,13.0615234375,-106.3232421875
4.5899999000000005,-2.7485435009002686,-7.5632829666137695,-7.462726593017578,-33.38623046875,-6.8206787109375,-119.903564453125
4.609999900000001,-1.9273324012756348,-4.460397720336914,-7.5417351722717285,-44.5098876953125,-1.251220703125,-116.485595703125
4.6299999000000005,-0.9744400978088379,-1.0247182846069336,-8.283937454223633,-58.28857421875,10.040283203125,-112.518310546875
4.6499999,0.019153613597154617,2.250549554824829,-9.39245319366455,-44.7540283203125,14.8468017578125,-94.573974609375
4.6699999000000005,1.0342950820922852,5.20978307723999,-10.407594680786133,-3.3416748046875,9.2315673828125,-73.54736328125
4.6899999,1.9800047874450684,7.443572998046875,-10.936713218688965,19.7601318359375,13.7176513671875,-42.3736572265625
4.709999900000001,2.7916390895843506,8.916007041931152,-10.879252433776855,11.260986328125,12.6495361328125,-16.0369873046875
4.7299999,3.399766445159912,9.528923034667969,-10.244789123535156,6.3629150390625,4.94384765625,9.9334716796875
4.749999900000001,3.711012601852417,9.406818389892578,-9.387664794921875,8.5601806640625,-8.8653564453125,39.3218994140625
4.7699999,3.713406801223755,8.743624687194824,-8.753201484680176,10.5743408203125,-22.3388671875,65.7501220703125
4.789999900000001,3.397372245788574,7.661445617675781,-8.44434928894043,8.1634521484375,-19.8516845703125,84.8236083984375
4.8099999,2.760514497756958,6.133944988250732,-8.604761123657227,-0.4119873046875,-17.2271728515625,103.1951904296875
4.829999900000001,1.9249382019042969,4.32871675491333,-9.083600997924805,6.3323974609375,-23.6663818359375,106.1248779296875
4.8499999,0.9744400978088379,2.1739351749420166,-9.66299819946289,24.10888671875,-21.2554931640625,101.165771484375
4.869999900000001,-0.038307227194309235,-0.363918662071228,-10.409989356994629,36.102294921875,-19.378662109375,94.482421875
4.8899999,-1.0558429956436157,-3.2154128551483154,-11.101913452148438,38.7725830078125,-8.4075927734375,73.54736328125
4.909999900000001,-2.008735179901123,-6.129156112670898,-11.5065336227417,18.4173583984375,16.2506103515625,32.745361328125
4.9299999,-2.7533318996429443,-8.47786808013916,-11.461043357849121,-6.2103271484375,29.052734375,-18.1884765625
4.949999900000001,-3.205836057662964,-9.880870819091797,-10.819397926330566,-22.430419921875,28.99169921875,-47.91259765625
4.9699999,-3.287238836288452,-10.014945983886719,-9.852140426635742,-38.055419921875,22.76611328125,-66.375732421875
4.989999900000001,-3.047818660736084,-8.975862503051758,-8.83699893951416,-42.1295166015625,20.3094482421875,-88.8671875
5.0099999,-2.540247917175293,-7.026981830596924,-8.224082946777344,-48.553466796875,15.4876708984375,-109.7259521484375
5.029999900000001,-1.8291701078414917,-4.357447147369385,-8.121131896972656,-54.6875,13.1072998046875,-114.80712890625
5.0499999,-0.9385270476341248,-1.1899182796478271,-8.585607528686523,-56.884765625,15.0604248046875,-101.7608642578125
5.069999900000001,0.0933738648891449,2.1308395862579346,-9.17697525024414,-41.3360595703125,22.186279296875,-85.052490234375
5.0899999000000005,1.173158884048462,5.214571475982666,-9.768342971801758,-16.0369873046875,18.0511474609375,-62.7288818359375
5.109999900000001,2.1787235736846924,7.5968017578125,-9.888052940368652,-3.0975341796875,11.077880859375,-32.6080322265625
5.1299999000000005,3.0166940689086914,9.114726066589355,-9.48343276977539,1.4190673828125,5.0811767578125,-5.4779052734375
5.1499999,3.576937437057495,9.593565940856934,-8.62391471862793,3.8299560546875,-10.986328125,17.0745849609375
5.1699999000000005,3.7708675861358643,9.100360870361328,-7.702147006988525,7.110595703125,-33.843994140625,37.5518798828125
5.1899999,3.56017804145813,7.7428483963012695,-7.161057472229004,-1.617431640625,-50.506591796875,57.06787109375
5.209999900000001,2.9544448852539062,5.738901615142822,-7.417236804962158,-18.37158203125,-50.7354736328125,64.8345947265625
5.2299999,2.0374655723571777,3.3231520652770996,-8.38449478149414,-26.5350341796875,-36.9873046875,59.08203125
5.249999900000001,0.9864110946655273,0.9169792532920837,-9.787496566772461,-24.5208740234375,-23.0255126953125,43.3349609375
5.2699999,0.014365210197865963,-1.1300631761550903,-11.063606262207031,-7.01904296875,-15.2587890625,23.4527587890625
5.289999900000001,-0.751779317855835,-2.5713725090026855,-11.90157699584961,2.044677734375,-5.889892578125,9.918212890625
5.3099999,-1.2330138683319092,-3.2632968425750732,-12.258312225341797,-2.3345947265625,2.2735595703125,-2.7008056640625
5.329999900000001,-1.4173674583435059,-3.203441858291626,-12.303802490234375,-9.3994140625,11.1541748046875,-16.7694091796875
5.3499999,-1.357512354850769,-2.5115175247192383,-12.18648624420166,-14.984130859375,21.881103515625,-21.697998046875
5.369999900000001,-1.1516109704971313,-1.2880805730819702,-12.310985565185547,-9.5977783203125,25.9246826171875,-18.2037353515625
5.3899999,-0.6392518281936646,1.6280571222305298,-13.869610786437988,11.474609375,57.586669921875,-7.9345703125
5.409999900000001,-0.35913026332855225,2.7964274883270264,-15.01164436340332,10.2691650390625,88.470458984375,-4.1961669921875
5.4299999,0.05027823522686958,3.56017804145813,-15.64610767364502,18.00537109375,100.9674072265625,3.0364990234375
5.449999900000001,0.6200982332229614,3.8139634132385254,-15.330073356628418,50.811767578125,104.3701171875,10.92529296875
5.4699999,1.2880805730819702,3.5458126068115234,-14.015656471252441,64.361572265625,98.0377197265625,17.7459716796875
5.489999900000001,1.941697597503662,2.849100112915039,-11.870451927185059,49.7589111328125,93.0938720703125,19.622802734375
5.5099999,2.473210334777832,1.9273324012756348,-9.299078941345215,33.0963134765625,87.310791015625,19.1192626953125
5.529999900000001,2.8179752826690674,1.0438719987869263,-6.66785192489624,26.8707275390625,70.526123046875,19.287109375
5.5499999,2.96162748336792,0.38546648621559143,-4.213795185089111,26.641845703125,46.966552734375,20.5535888671875
5.569999900000001,2.9233202934265137,-0.05506663769483566,-2.0446481704711914,16.9677734375,22.52197265625,21.1944580078125
5.5899999000000005,2.738966703414917,-0.29209262132644653,-0.26096799969673157,11.993408203125,-4.94384765625,18.4326171875
5.609999900000001,2.3726539611816406,-0.6248866319656372,0.9888052940368652,4.547119140625,-42.9840087890625,19.22607421875
5.6299999000000005,1.9345149993896484,-0.9864110946655273,1.6041151285171509,-2.4261474609375,-74.64599609375,10.1318359375
5.6499999,1.4772224426269531,-1.4891934394836426,1.6735470294952393,-12.4053955078125,-92.5445556640625,-7.171630859375
5.6699999000000005,1.0582371950149536,-1.8746598958969116,1.0127472877502441,-28.2745361328125,-116.2872314453125,-23.162841796875
5.6899999,0.629675030708313,-1.8339585065841675,-0.5530605912208557,-71.6400146484375,-146.8658447265625,-32.440185546875
5.709999900000001,0.11971008777618408,-1.237802267074585,-3.6391866207122803,-144.04296875,-157.0892333984375,-30.4107666015625
5.7299999,-0.4429273009300232,0.06703764945268631,-8.066065788269043,-160.5072021484375,-133.1634521484375,-33.5540771484375
5.749999900000001,-0.9672574996948242,1.86508309841156,-13.639766693115234,-79.16259765625,-101.531982421875,-34.8358154296875
5.7699999,-1.256955862045288,3.6296098232269287,-19.172767639160156,-5.92041015625,-57.8765869140625,-14.70947265625
5.789999900000001,-1.1204863786697388,5.154716491699219,-23.281217575073242,1.5716552734375,8.8958740234375,-6.89697265625
5.8099999,-0.7038952708244324,5.870582580566406,-25.040956497192383,2.99072265625,68.66455078125,4.1961669921875
5.829999900000001,-0.17477671802043915,5.779603004455566,-24.449586868286133,26.611328125,76.5838623046875,15.228271484375
5.8499999,0.3232172429561615,5.0469770431518555,-21.93328094482422,36.865234375,80.8868408203125,15.960693359375
5.869999900000001,0.6272808313369751,4.043806552886963,-18.47844886779785,32.745361328125,97.442626953125,13.6566162109375
5.8899999,0.7541735172271729,3.050212860107422,-14.889540672302246,34.3017578125,111.0992431640625,19.10400390625
5.909999900000001,0.7948749661445618,2.2697031497955322,-11.544840812683105,34.210205078125,105.560302734375,24.2767333984375
5.9299999,0.8044517636299133,1.6687586307525635,-8.470685958862305,41.07666015625,89.3402099609375,22.2625732421875
5.949999900000001,0.8236053586006165,1.0989385843276978,-5.616796970367432,44.158935546875,72.0672607421875,18.8751220703125
5.9699999,0.912190854549408,0.6368576288223267,-2.9281086921691895,35.736083984375,50.079345703125,12.8631591796875
5.989999900000001,1.0678139925003052,0.2537853717803955,-0.4644751250743866,12.939453125,16.8609619140625,8.453369140625
6.0099999,1.2234370708465576,-0.08140286058187485,1.534683346748352,-14.22119140625,-22.2015380859375,9.0789794921875
6.029999900000001,1.3192051649093628,-0.5147533416748047,2.8107926845550537,-29.449462890625,-60.5621337890625,4.8980712890625
6.0499999,1.3239935636520386,-1.01753568649292,3.1220390796661377,-25.6500244140625,-93.902587890625,-11.6424560546875
6.069999900000001,1.1635819673538208,-1.5179238319396973,2.169146776199341,-43.3349609375,-124.7406005859375,-27.130126953125
6.0899999000000005,0.790086567401886,-1.7932571172714233,-0.1412578970193863,-100.921630859375,-130.8441162109375,-36.8499755859375
6.109999900000001,0.29209262132644653,-1.2737152576446533,-3.8139634132385254,-117.279052734375,-125.8697509765625,-56.2591552734375
6.1299999000000005,-0.26575639843940735,0.2561795711517334,-8.640673637390137,-53.40576171875,-123.59619140625,-65.5517578125
6.149999900000001,-0.8619126081466675,2.4133553504943848,-14.001291275024414,-24.8260498046875,-97.6409912109375,-34.2559814453125
6.1699999000000005,-1.1348515748977661,5.020640850067139,-19.187131881713867,-47.3175048828125,-51.116943359375,-9.3994140625
6.1899999,-1.137245774269104,6.9910688400268555,-22.948423385620117,-32.71484375,19.9127197265625,5.126953125
6.209999900000001,-0.8307880163192749,7.91283655166626,-24.562114715576172,19.073486328125,63.9801025390625,17.974853515625
6.2299999,-0.363918662071228,7.6111674308776855,-23.956382751464844,50.6439208984375,71.6552734375,27.83203125
6.249999900000001,0.09576806426048279,6.476315498352051,-21.50711441040039,39.4134521484375,81.6192626953125,27.6031494140625
6.2699999,0.3687070608139038,5.008669853210449,-18.368314743041992,24.1546630859375,102.4017333984375,26.4892578125
6.289999900000001,0.4884171485900879,3.689464807510376,-15.258247375488281,23.5748291015625,118.133544921875,32.7301025390625
6.3099999,0.5219359993934631,2.741360902786255,-12.471396446228027,41.07666015625,120.3765869140625,34.027099609375
6.329999900000001,0.5219359993934631,2.054224967956543,-9.909601211547852,61.614990234375,111.9842529296875,32.5469970703125
6.3499999,0.5554547905921936,1.5131354331970215,-7.553706169128418,59.38720703125,94.482421875,27.9998779296875
6.369999900000001,0.6440402865409851,0.9720458984375,-5.2672438621521,43.701171875,82.8094482421875,24.3682861328125
6.3899999,0.7733271718025208,0.42616790533065796,-3.1004912853240967,24.169921875,65.9637451171875,19.256591796875
6.409999900000001,0.9720458984375,-0.1364694982767105,-0.7326257228851318,16.876220703125,44.403076171875,12.0391845703125
6.4299999,1.216254472732544,-0.6200982332229614,1.6184803247451782,13.458251953125,-5.279541015625,3.173828125
6.449999900000001,1.3670891523361206,-1.2521674633026123,3.5960910320281982,-0.48828125,-75.1190185546875,0.701904296875
6.4699999,1.4077905416488647,-1.8938134908676147,4.786009311676025,-14.007568359375,-119.110107421875,-12.786865234375
6.489999900000001,1.2497732639312744,-2.4181437492370605,4.711789131164551,-35.797119140625,-141.815185546875,-37.139892578125
6.5099999,0.7805097699165344,-2.451662540435791,2.7940332889556885,-75.6378173828125,-171.20361328125,-51.33056640625
6.529999900000001,-0.06703764945268631,-1.4987702369689941,-1.5179238319396973,-114.6392822265625,-188.4765625,-51.971435546875
6.5499999,-1.0630255937576294,0.7972691655158997,-7.989450931549072,-119.3084716796875,-141.11328125,-50.96435546875
6.569999900000001,-1.98958158493042,4.015076160430908,-16.10100555419922,-72.2503662109375,-80.596923828125,-31.829833984375
6.5899999000000005,-2.4899697303771973,7.182605266571045,-23.709779739379883,10.0250244140625,-8.0108642578125,8.270263671875
6.609999900000001,-2.2912509441375732,9.299078941345215,-28.699295043945312,42.6788330078125,71.0906982421875,30.9906005859375
6.6299999000000005,-1.601720929145813,9.816226959228516,-30.284257888793945,12.8021240234375,107.23876953125,37.2467041015625
6.649999900000001,-0.6272808313369751,8.877699851989746,-28.469451904296875,-7.080078125,131.8359375,42.05322265625
6.6699999000000005,0.27054479718208313,7.2352776527404785,-24.59324073791504,12.39013671875,145.0653076171875,50.29296875
6.6899999,0.8786720037460327,5.509057998657227,-19.953277587890625,41.412353515625,150.482177734375,59.3414306640625
6.709999900000001,1.137245774269104,3.9815573692321777,-15.351621627807617,51.6815185546875,151.9622802734375,60.577392578125
6.7299999,1.0654197931289673,2.6455929279327393,-11.166556358337402,49.0264892578125,152.4658203125,58.3648681640625
6.749999900000001,0.8355764150619507,1.522712230682373,-7.4770917892456055,48.187255859375,141.8914794921875,52.978515625
6.7699999,0.5674257874488831,0.42377370595932007,-4.10366153717041,49.285888671875,119.232177734375,47.210693359375
6.789999900000001,0.4429273009300232,-0.6224924325942993,-0.9241618514060974,50.3692626953125,91.4764404296875,33.7677001953125
6.8099999,0.507570743560791,-1.5610195398330688,2.164358377456665,40.924072265625,55.633544921875,12.6800537109375
6.829999900000001,0.7757213711738586,-2.3343467712402344,4.975151062011719,11.77978515625,11.3067626953125,-1.5869140625
6.8499999,1.1516109704971313,-2.846705913543701,7.2352776527404785,-30.3497314453125,-41.7327880859375,-11.993408203125
6.869999900000001,1.501164436340332,-3.1507694721221924,8.65743350982666,-48.095703125,-94.4976806640625,-26.91650390625
6.8899999,1.7094600200653076,-3.095702886581421,8.75080680847168,-36.5142822265625,-156.79931640625,-53.436279296875
6.909999900000001,1.091755986213684,-2.0638017654418945,4.285621166229248,-94.4061279296875,-205.5206298828125,-70.1904296875
6.9299999,0.27054479718208313,-0.2825157940387726,-0.8020575642585754,-122.222900390625,-229.827880859375,-89.17236328125
6.949999900000001,-0.8068459630012512,2.31758713722229,-7.726089000701904,-65.3228759765625,-235.8245849609375,-77.33154296875
6.9699999,-1.8818424940109253,5.2265424728393555,-15.512032508850098,9.8114013671875,-170.10498046875,-33.8897705078125
6.989999900000001,-2.6671407222747803,8.010998725891113,-23.020248413085938,6.5155029296875,-74.2950439453125,-7.659912109375
7.0099999,-3.047818660736084,9.481039047241211,-28.756755828857422,-29.3121337890625,-10.711669921875,15.6097412109375
7.029999900000001,-2.956839084625244,9.746794700622559,-31.366436004638672,-18.24951171875,51.6510009765625,29.144287109375
7.0499999,-2.5546131134033203,9.0859956741333,-31.22757339477539,20.9197998046875,98.3123779296875,31.524658203125
7.069999900000001,-2.0183119773864746,7.8745293617248535,-28.66338348388672,30.21240234375,134.6435546875,40.5426025390625
7.0899999000000005,-1.525106430053711,6.751648902893066,-24.74407386779785,30.7159423828125,161.9720458984375,48.492431640625
7.109999900000001,-1.192312479019165,5.760449409484863,-20.305225372314453,39.1998291015625,174.25537109375,58.1512451171875
7.1299999000000005,-0.9768342971801758,4.809951305389404,-15.868768692016602,53.558349609375,184.722900390625,66.7572021484375
7.149999900000001,-0.8140285611152649,3.799597978591919,-11.750741958618164,70.4498291015625,186.34033203125,62.43896484375
7.1699999000000005,-0.6631938815116882,2.434903144836426,-7.931990146636963,72.265625,174.4537353515625,55.0689697265625
7.1899999,-0.40222588181495667,0.9648633003234863,-4.441244125366211,65.9942626953125,154.8614501953125,38.7115478515625
7.209999900000001,-0.05506663769483566,-0.6272808313369751,-1.0797849893569946,67.2607421875,129.8370361328125,22.6287841796875
7.2299999,0.4165911078453064,-2.070984363555908,2.2840683460235596,68.42041015625,100.40283203125,6.866455078125
7.249999900000001,0.9840168952941895,-3.201047658920288,5.78678560256958,50.4150390625,49.6368408203125,-14.495849609375
7.2699999,1.5634137392044067,-3.8115692138671875,9.241618156433105,17.669677734375,-27.496337890625,-33.5845947265625
7.289999900000001,1.9776105880737305,-3.9264907836914062,12.033257484436035,-28.8543701171875,-111.7095947265625,-40.6494140625
7.3099999,2.078166961669922,-3.442862033843994,13.48653793334961,-65.1397705078125,-183.990478515625,-50.384521484375
7.329999900000001,1.723825216293335,-2.5474305152893066,12.698845863342285,-59.906005859375,-241.943359375,-64.6514892578125
7.3499999,0.811634361743927,-1.335964560508728,9.794678688049316,-49.774169921875,-273.193359375,-66.070556640625
7.369999900000001,-0.5626373887062073,0.3519476354122162,4.321534156799316,-74.3408203125,-309.7991943359375,-64.239501953125
7.3899999,-2.363077163696289,2.2840683460235596,-3.485957622528076,-115.2191162109375,-308.990478515625,-48.736572265625
7.409999900000001,-4.390965938568115,4.620809078216553,-13.074735641479492,-106.5826416015625,-233.0780029296875,-37.139892578125
7.4299999,-5.9974751472473145,7.182605266571045,-22.943634033203125,-102.11181640625,-107.2998046875,-26.06201171875
7.449999900000001,-6.835445880889893,9.543288230895996,-31.45502281188965,-32.6690673828125,-22.2930908203125,-5.4473876953125
7.4699999,-6.574477672576904,11.046846389770508,-35.869930267333984,56.7474365234375,62.3321533203125,22.2320556640625
7.489999900000001,-5.3582234382629395,11.310209274291992,-36.09977340698242,70.6329345703125,111.9384765625,38.9404296875
7.5099999,-3.756502389907837,10.357316970825195,-32.63057327270508,51.544189453125,114.8529052734375,33.966064453125
7.529999900000001,-2.296039342880249,8.434772491455078,-26.97786521911621,58.7310791015625,150.177001953125,44.7845458984375
7.5499999,-1.2425906658172607,6.447585105895996,-21.01390838623047,79.4677734375,166.1529541015625,48.828125
7.569999900000001,-0.6607996821403503,4.671087741851807,-15.442601203918457,100.2197265625,166.44287109375,46.417236328125
7.5899999000000005,-0.45010992884635925,3.0526070594787598,-10.599130630493164,95.123291015625,165.10009765625,49.530029296875
7.609999900000001,-0.3926490843296051,1.6735470294952393,-6.528987884521484,71.4111328125,152.16064453125,43.4417724609375
7.6299999000000005,-0.3495534360408783,0.38067805767059326,-3.112462282180786,40.0543212890625,134.5672607421875,30.7769775390625
7.649999900000001,-0.22026655077934265,-0.7350199222564697,-0.3711012601852417,22.8118896484375,110.2752685546875,21.4996337890625
7.6699999000000005,0.0694318488240242,-1.599326729774475,1.9345149993896484,15.19775390625,83.9080810546875,11.77978515625
7.6899999,0.5027823448181152,-2.1739351749420166,3.9240965843200684,2.5482177734375,54.5654296875,-1.7242431640625
7.709999900000001,1.0271124839782715,-2.456450939178467,5.793968200683594,-13.946533203125,8.2855224609375,-14.6636962890625
7.7299999,1.5466543436050415,-2.4372973442077637,7.501033782958984,-22.9949951171875,-56.4727783203125,-26.4434814453125
7.749999900000001,1.8938134908676147,-2.233790159225464,8.537723541259766,-38.0706787109375,-132.4615478515625,-30.1666259765625
7.7699999,1.86508309841156,-1.8938134908676147,8.166622161865234,-72.5250244140625,-191.9708251953125,-31.6162109375
7.789999900000001,1.280897855758667,-1.2737152576446533,5.559336185455322,-109.222412109375,-205.6121826171875,-43.8690185546875
7.8099999,0.28730419278144836,0.028730420395731926,0.009576806798577309,-115.8294677734375,-204.3609619140625,-63.934326171875
7.829999900000001,-0.8762778043746948,2.365471363067627,-7.860164165496826,-45.1507568359375,-162.445068359375,-61.4013671875
7.8499999,-2.0039467811584473,4.960785865783691,-17.355567932128906,-35.2783203125,-110.076904296875,-3.0517578125
7.869999900000001,-2.5737667083740234,7.582436561584473,-26.43677520751953,-61.6912841796875,-28.2440185546875,17.974853515625
7.8899999,-2.499546527862549,9.181763648986816,-32.838871002197266,-0.244140625,65.5059814453125,-0.7476806640625
7.909999900000001,-1.8914192914962769,9.433155059814453,-35.48446273803711,45.7916259765625,128.662109375,18.3868408203125
7.9299999,-0.8786720037460327,8.810662269592285,-33.98808670043945,45.5169677734375,152.7252197265625,36.1175537109375
7.949999900000001,0.10295066982507706,7.570465564727783,-29.28826904296875,52.9022216796875,174.835205078125,43.4112548828125
7.9699999,0.7422025203704834,5.980715751647949,-23.0130672454834,71.929931640625,181.8695068359375,51.3916015625
7.989999900000001,0.9983820915222168,4.335899353027344,-16.53914451599121,87.46337890625,173.5076904296875,51.0406494140625
8.0099999,0.9481038451194763,2.6815059185028076,-10.524910926818848,90.3167724609375,162.9638671875,44.6929931640625
8.0299999,0.7972691655158997,1.1779472827911377,-5.372588634490967,79.1168212890625,147.491455078125,33.9202880859375
8.049999900000001,0.6655880808830261,-0.14604631066322327,-1.2018892765045166,43.5791015625,115.7684326171875,27.28271484375
8.069999900000001,0.667982280254364,-1.3239935636520386,2.319981336593628,23.8189697265625,89.8284912109375,22.3388671875
8.0899999,0.8571242094039917,-2.145204782485962,5.073313236236572,17.1966552734375,46.8902587890625,2.1820068359375
8.1099999,1.173158884048462,-2.671929121017456,7.225700855255127,-3.47900390625,-4.7607421875,-13.7939453125
8.129999900000001,1.5322890281677246,-2.827552318572998,8.87291145324707,-28.1829833984375,-45.3643798828125,-17.730712890625
8.149999900000001,1.778891921043396,-2.7126305103302,9.768342971801758,-46.905517578125,-102.3712158203125,-26.9317626953125
8.1699999,1.7573440074920654,-2.499546527862549,9.725247383117676,-59.8602294921875,-177.2308349609375,-45.0286865234375
8.1899999,1.3239935636520386,-2.051830768585205,8.549694061279297,-57.4951171875,-221.49658203125,-66.9708251953125
8.2099999,0.49799394607543945,-1.3072341680526733,6.098031520843506,-104.7515869140625,-243.9727783203125,-75.3936767578125
8.229999900000001,-0.6368576288223267,0.26336219906806946,1.8076223134994507,-154.083251953125,-286.376953125,-85.9832763671875
8.2499999,-2.0231003761291504,2.319981336593628,-4.869806289672852,-83.099365234375,-322.418212890625,-81.1004638671875
8.2699999,-3.4763808250427246,4.702212333679199,-12.78503704071045,35.9039306640625,-224.42626953125,-61.859130859375
8.2899999,-4.7620673179626465,6.821080684661865,-21.698650360107422,8.5601806640625,-108.70361328125,-32.3944091796875
8.309999900000001,-5.580883979797363,8.403648376464844,-29.70246696472168,-65.2008056640625,-46.4324951171875,-12.6495361328125
8.3299999,-5.635950565338135,9.181763648986816,-34.46213912963867,-20.263671875,66.22314453125,-2.593994140625
8.3499999,-4.972756862640381,9.294290542602539,-35.91542053222656,45.867919921875,133.1024169921875,13.7786865234375
8.3699999,-3.914519786834717,8.734047889709473,-33.933021545410156,46.7376708984375,156.6925048828125,33.7982177734375
8.389999900000001,-2.8155810832977295,7.692570209503174,-29.374460220336914,22.7203369140625,195.0225830078125,48.3856201171875
8.4099999,-2.03507137298584,6.53377628326416,-24.06172752380371,35.5224609375,210.0677490234375,49.5147705078125
8.4299999,-1.2665326595306396,4.343081951141357,-13.75468921661377,86.3189697265625,217.7886962890625,60.333251953125
8.4499999,-1.0055646896362305,3.375824451446533,-9.153033256530762,88.7908935546875,209.2437744140625,61.859130859375
8.469999900000001,-0.667982280254364,2.279279947280884,-4.752490520477295,76.5380859375,188.8885498046875,61.8896484375
8.4899999,-0.2059013396501541,1.0342950820922852,-0.4812345504760742,59.4635009765625,155.3192138671875,52.7191162109375
8.5099999,0.35913026332855225,-0.3064578175544739,3.581725835800171,48.004150390625,112.3046875,40.0543212890625
8.5299999,0.9864110946655273,-1.5298948287963867,7.161057472229004,27.923583984375,52.032470703125,28.289794921875
8.549999900000001,1.5394717454910278,-2.5234885215759277,10.096348762512207,-2.0294189453125,-6.8817138671875,17.08984375
8.569999900000001,1.86508309841156,-3.1435868740081787,12.133813858032227,-26.611328125,-64.2242431640625,-0.5645751953125
8.5899999,1.8148049116134644,-3.5410242080688477,12.938265800476074,-46.539306640625,-135.68115234375,-18.3868408203125
8.6099999,1.335964560508728,-3.6607344150543213,12.42111873626709,-55.2825927734375,-198.7762451171875,-41.3818359375
8.629999900000001,0.3734954595565796,-3.5027170181274414,10.08198356628418,-76.324462890625,-237.9302978515625,-63.1561279296875
8.649999900000001,-0.7661445140838623,-2.671929121017456,6.344634532928467,-121.64306640625,-240.8599853515625,-89.4012451171875
8.6699999,-1.9560627937316895,-0.6320692300796509,1.1109095811843872,-103.4088134765625,-271.2554931640625,-107.4066162109375
8.6899999,-3.488351821899414,2.1954829692840576,-6.799532890319824,-55.2978515625,-331.2530517578125,-62.9730224609375
8.709999900000001,-4.774038314819336,5.501875400543213,-15.636530876159668,-118.560791015625,-232.1929931640625,-19.4549560546875
8.729999900000001,-5.750872611999512,8.638279914855957,-25.359384536743164,-90.728759765625,-73.6236572265625,-24.4598388671875
8.7499999,-6.026205539703369,10.405200958251953,-33.186031341552734,0.48828125,-7.0648193359375,-6.439208984375
8.7699999,-5.183446884155273,10.936713218688965,-36.69593048095703,56.33544921875,82.3974609375,14.0533447265625
8.7899999,-3.6822822093963623,10.225635528564453,-36.0399169921875,43.5791015625,104.7515869140625,22.52197265625
8.809999900000001,-2.049436569213867,8.647856712341309,-31.689653396606445,33.966064453125,126.7852783203125,35.9344482421875
8.8299999,-0.7829039692878723,6.981492042541504,-25.852590560913086,37.7197265625,144.6533203125,43.9605712890625
8.8499999,-0.11971008777618408,5.5329999923706055,-19.967641830444336,48.6602783203125,156.3568115234375,52.7801513671875
8.8699999,-0.0071826050989329815,4.5154643058776855,-14.939818382263184,67.0166015625,163.8641357421875,58.6090087890625
8.889999900000001,-0.19632454216480255,3.663128614425659,-10.793061256408691,70.8160400390625,167.8009033203125,60.11962890625
8.9099999,-0.40701428055763245,2.8874073028564453,-7.407660007476807,64.2547607421875,165.374755859375,57.7545166015625
8.9299999,-0.44532153010368347,1.9033904075622559,-4.441244125366211,46.08154296875,148.6053466796875,56.1370849609375
8.9499999,-0.21308395266532898,0.7637503147125244,-1.7884687185287476,28.9306640625,126.8463134765625,50.8575439453125
8.969999900000001,0.26336219906806946,-0.4668693244457245,0.5506663918495178,23.7884521484375,93.719482421875,33.4930419921875
8.9899999,0.8810662031173706,-1.6831238269805908,2.6623523235321045,23.5137939453125,61.3250732421875,16.05224609375
9.0099999,1.5921441316604614,-2.6384103298187256,4.537012100219727,17.974853515625,23.7274169921875,-2.288818359375
9.0299999,2.2649147510528564,-3.2106244564056396,6.244078159332275,5.767822265625,-26.0162353515625,-16.1590576171875
9.049999900000001,2.691082715988159,-3.598485231399536,7.433996200561523,-24.810791015625,-89.5538330078125,-18.4783935546875
9.069999900000001,2.762908697128296,-3.847482204437256,7.888894557952881,-66.6656494140625,-138.946533203125,-33.447265625
9.0899999,2.367865562438965,-4.110844135284424,7.438784599304199,-73.3184814453125,-169.3572998046875,-65.00244140625
9.1099999,1.4700398445129395,-3.914519786834717,5.497087001800537,-50.9490966796875,-216.7510986328125,-98.4649658203125
9.129999900000001,0.040701430290937424,-2.9927520751953125,1.6160861253738403,-103.1036376953125,-234.649658203125,-105.316162109375
9.149999900000001,-1.5753847360610962,-0.2992752194404602,-4.098873138427734,-181.7169189453125,-189.3463134765625,-117.767333984375
9.1699999,-3.066972494125366,3.88818359375,-11.676521301269531,-139.1143798828125,-152.40478515625,-107.4981689453125
9.1899999,-4.141968727111816,8.542511940002441,-19.61808967590332,13.97705078125,-119.049072265625,-44.403076171875
9.209999900000001,-4.455609321594238,12.351686477661133,-26.31706428527832,69.2596435546875,-35.247802734375,11.8255615234375
9.229999900000001,-3.993528366088867,14.00607967376709,-30.664936065673828,7.4310302734375,35.7208251953125,30.8074951171875
9.2499999,-3.0382418632507324,13.261483192443848,-31.560367584228516,1.9683837890625,89.447021484375,31.5399169921875
9.2699999,-1.8555063009262085,10.826580047607422,-29.721620559692383,59.3719482421875,115.631103515625,41.961669921875
9.2899999,-0.6847416758537292,7.939172744750977,-25.725696563720703,73.211669921875,134.9029541015625,44.12841796875
9.309999900000001,0.21308395266532898,5.264849662780762,-20.71942138671875,46.173095703125,158.538818359375,48.33984375
9.3299999,0.7996633648872375,3.270479440689087,-15.753847122192383,42.4957275390625,154.7698974609375,55.4656982421875
9.3499999,1.1540051698684692,1.8938134908676147,-11.23598861694336,60.36376953125,139.2059326171875,57.403564453125
9.3699999,1.3407529592514038,0.9097966551780701,-7.419631004333496,75.653076171875,128.2196044921875,51.3153076171875
9.389999900000001,1.4293384552001953,0.10295066982507706,-4.290409564971924,77.8656005859375,109.344482421875,40.557861328125
9.4099999,1.5275006294250488,-0.5722141861915588,-1.6950948238372803,68.5272216796875,86.090087890625,28.9306640625
9.4299999,1.680729627609253,-1.2473790645599365,0.6536170840263367,47.454833984375,57.6934814453125,22.5677490234375
9.4499999,1.8986018896102905,-1.7501614093780518,2.671929121017456,29.388427734375,10.8795166015625,10.1318359375
9.469999900000001,2.054224967956543,-2.1763293743133545,4.364629745483398,10.25390625,-37.4755859375,-2.593994140625
9.4899999,2.073378562927246,-2.499546527862549,5.420472621917725,-12.237548828125,-74.6002197265625,-13.1683349609375
9.5099999,1.886630892753601,-2.6216509342193604,5.904101371765137,-19.287109375,-104.9346923828125,-31.7230224609375
9.5299999,1.41257905960083,-2.5091233253479004,5.319916248321533,-34.1796875,-145.56884765625,-46.875
9.549999900000001,0.6919242739677429,-1.9105730056762695,3.4739866256713867,-78.9031982421875,-177.8411865234375,-56.5185546875
9.569999900000001,-0.2944868206977844,-0.6368576288223267,-0.35913026332855225,-115.1275634765625,-184.0362548828125,-63.29345703125
9.5899999,-1.3431471586227417,1.3096283674240112,-6.246472358703613,-96.1456298828125,-167.0074462890625,-60.4705810546875
9.6099999,-2.2433669567108154,3.4835634231567383,-13.232752799987793,-17.2576904296875,-107.4371337890625,-43.1365966796875
9.629999900000001,-2.6192567348480225,5.233725070953369,-19.821596145629883,17.2882080078125,-50.0946044921875,-24.9786376953125
9.649999900000001,-2.2218191623687744,6.313509941101074,-24.61957550048828,16.6168212890625,-13.0157470703125,-22.2930908203125
9.6699999,-1.1635819673538208,6.361393928527832,-26.345794677734375,0.5645751953125,28.533935546875,-12.298583984375
9.6899999,0.181959331035614,5.6455278396606445,-25.177425384521484,24.10888671875,52.6275634765625,6.6070556640625
9.709999900000001,1.3239935636520386,4.46518611907959,-21.581335067749023,74.2340087890625,50.4913330078125,8.9111328125
9.729999900000001,1.922544002532959,3.098097085952759,-16.51520347595215,83.709716796875,43.9910888671875,1.2054443359375
9.7499999,1.920149803161621,1.800439715385437,-11.279084205627441,36.62109375,30.2581787109375,1.0833740234375
9.7699999,1.5179238319396973,0.8331822156906128,-7.053318023681641,-25.1007080078125,16.0675048828125,3.5552978515625
9.7899999,0.9624691009521484,0.3064578175544739,-4.496310710906982,-38.2537841796875,7.7972412109375,-4.2877197265625
9.809999900000001,0.47884035110473633,0.19153612852096558,-3.7397429943084717,-8.087158203125,1.6326904296875,-13.0157470703125
9.8299999,0.22266076505184174,0.4141969084739685,-4.32871675491333,11.4288330078125,-2.0294189453125,-14.1143798828125
9.8499999,0.2753331959247589,0.9241618514060974,-5.714959621429443,-5.2337646484375,-5.3253173828125,-9.09423828125
9.8699999,0.5722141861915588,1.4987702369689941,-7.481880187988281,-35.1104736328125,-12.6190185546875,-0.885009765625
9.889999900000001,0.9576807022094727,2.008735179901123,-9.318233489990234,-33.14208984375,-12.0391845703125,5.8746337890625
9.9099999,1.2689268589019775,2.319981336593628,-10.972626686096191,3.6773681640625,-3.6773681640625,8.4075927734375
9.9299999,1.3862427473068237,2.322375535964966,-12.078747749328613,25.69580078125,5.5389404296875,9.6435546875
9.9499999,1.1324573755264282,1.7166426181793213,-11.925518989562988,12.8173828125,11.199951171875,3.6163330078125
9.969999900000001,0.9169792532920837,1.3263877630233765,-10.94150161743164,3.4027099609375,8.514404296875,1.64794921875
9.9899999,0.7709329724311829,1.05105459690094,-9.799467086791992,-0.5035400390625,6.2408447265625,-0.946044921875
10.0099999,0.730231523513794,0.9313444495201111,-8.901641845703125,-0.213623046875,0.244140625,-2.0904541015625
10.0299999,0.7876923680305481,0.9744400978088379,-8.425195693969727,-3.631591796875,-5.55419921875,-0.91552734375
10.049999900000001,0.8810662031173706,1.094150185585022,-8.465897560119629,-7.99560546875,-7.8582763671875,1.953125
10.069999900000001,0.950498104095459,1.2401964664459229,-8.911218643188477,-8.6822509765625,-5.5694580078125,2.4261474609375
10.0899999,0.9696516990661621,1.3527239561080933,-9.516951560974121,-2.0751953125,1.28173828125,0.2593994140625
10.1099999,0.9433154463768005,1.3862427473068237,-10.043676376342773,2.7313232421875,2.227783203125,-0.9002685546875
10.129999900000001,0.9145850539207458,1.3982137441635132,-10.273519515991211,2.685546875,2.74658203125,-1.3275146484375
10.149999900000001,0.9026140570640564,1.3934253454208374,-10.220847129821777,-0.5035400390625,0.946044921875,-1.40380859375
10.1699999,0.8978256583213806,1.3934253454208374,-10.000580787658691,-1.0833740234375,-0.152587890625,-0.0457763671875
10.1899999,0.8906430602073669,1.4077905416488647,-9.770736694335938,-0.6256103515625,-1.03759765625,0.5645751953125
10.209999900000001,0.8738836050033569,1.4221558570861816,-9.634267807006836,0.8544921875,-0.396728515625,0.48828125
10.229999900000001,0.8523358106613159,1.4317326545715332,-9.603142738342285,-0.0762939453125,-0.06103515625,0.67138671875
10.2499999,0.8355764150619507,1.4460978507995605,-9.658209800720215,-0.7781982421875,0.518798828125,1.03759765625
10.2699999,0.8451532125473022,1.479616641998291,-9.708487510681152,-0.732421875,1.800537109375,0.762939453125
10.2899999,0.8738836050033569,1.522712230682373,-9.713275909423828,-0.9002685546875,3.0517578125,2.0294189453125
10.309999900000001,0.9145850539207458,1.5682021379470825,-9.627084732055664,-0.1373291015625,2.7618408203125,3.570556640625
10.3299999,0.9385270476341248,1.5418659448623657,-9.579200744628906,-0.06103515625,-1.7852783203125,5.1422119140625
10.3499999,0.9385270476341248,1.4460978507995605,-9.521739959716797,0.0457763671875,-1.46484375,3.875732421875
10.3699999,0.9145850539207458,1.3120225667953491,-9.586383819580078,0.518798828125,-0.885009765625,0.3814697265625
10.389999900000001,0.8738836050033569,1.1635819673538208,-9.720458984375,1.03759765625,-1.8157958984375,-1.0528564453125
10.4099999,0.8427590131759644,1.0965443849563599,-9.832986831665039,2.0751953125,-0.152587890625,-1.007080078125
10.4299999,0.8236053586006165,1.1013327836990356,-9.952696800231934,5.3253173828125,-0.3509521484375,-1.8310546875
10.4499999,0.8044517636299133,1.1516109704971313,-9.983820915222168,2.4566650390625,1.0833740234375,-1.190185546875
10.469999900000001,0.8044517636299133,1.2497732639312744,-9.988609313964844,0.6866455078125,1.708984375,-1.3580322265625
10.4899999,0.7996633648872375,1.3024457693099976,-9.93593692779541,3.3416748046875,1.251220703125,-0.3509521484375
10.5099999,0.8188169598579407,1.359906554222107,-9.861717224121094,3.2958984375,1.434326171875,-1.007080078125
10.5299999,0.8403648138046265,1.3670891523361206,-9.75637149810791,1.0223388671875,1.9683837890625,-1.1749267578125
10.549999900000001,0.871489405632019,1.3646949529647827,-9.677363395690918,0.2899169921875,0.396728515625,-0.5950927734375
10.569999900000001,0.9026140570640564,1.3742717504501343,-9.619902610778809,0.6561279296875,0.6256103515625,-0.579833984375
10.5899999,0.9241618514060974,1.400607943534851,-9.612719535827637,1.312255859375,1.0223388671875,-0.091552734375
10.6099999,0.9289502501487732,1.4293384552001953,-9.636661529541016,3.0364990234375,1.3427734375,1.0528564453125
10.629999900000001,0.9241618514060974,1.4652514457702637,-9.655815124511719,3.2806396484375,1.1138916015625,0.9613037109375
10.649999900000001,0.9097966551780701,1.4293384552001953,-9.682151794433594,2.99072265625,0.4730224609375,1.5869140625
10.6699999,0.8834604024887085,1.314416766166687,-9.715670585632324,1.5716552734375,0.1983642578125,1.8310546875
10.6899999,0.8690952062606812,1.1971008777618408,-9.751583099365234,-0.1373291015625,1.52587890625,-1.3275146484375
10.709999900000001,0.8523358106613159,1.070208191871643,-9.813833236694336,-1.6937255859375,1.068115234375,-1.4495849609375
10.729999900000001,0.8451532125473022,1.0271124839782715,-9.86889934539795,-1.64794921875,1.0528564453125,-0.2593994140625
10.7499999,0.849941611289978,1.0678139925003052,-9.885659217834473,1.4190673828125,2.777099609375,-0.7781982421875
10.7699999,0.8595184087753296,1.1468225717544556,-9.861717224121094,1.251220703125,2.1820068359375,-0.335693359375
10.7899999,0.8786720037460327,1.2282254695892334,-9.773131370544434,0.4119873046875,1.3885498046875,0.5645751953125
10.809999900000001,0.8954314589500427,1.290474772453308,-9.68694019317627,0.244140625,-0.640869140625,0.701904296875
10.8299999,0.9074024558067322,1.3120225667953491,-9.610325813293457,0.30517578125,-0.1068115234375,0.4119873046875
10.8499999,0.9097966551780701,1.316810965538025,-9.617507934570312,-0.457763671875,0.42724609375,-0.457763671875
10.8699999,0.9050082564353943,1.3263877630233765,-9.651026725769043,-1.0833740234375,0.701904296875,-0.396728515625
10.889999900000001,0.8978256583213806,1.3527239561080933,-9.706093788146973,-0.3509521484375,0.8544921875,0.7476806640625
10.9099999,0.8954314589500427,1.3910311460494995,-9.715670585632324,-0.6866455078125,0.823974609375,1.708984375
10.9299999,0.8906430602073669,1.436521053314209,-9.694122314453125,0.335693359375,0.732421875,1.0833740234375
10.9499999,0.8930372595787048,1.460463047027588,-9.62947940826416,-0.518798828125,0.4119873046875,1.2054443359375
10.969999900000001,0.8906430602073669,1.4484920501708984,-9.59596061706543,-2.197265625,-0.8544921875,2.685546875
10.9899999,0.8906430602073669,1.403002142906189,-9.619902610778809,-0.4119873046875,-2.471923828125,2.38037109375
11.0099999,0.8786720037460327,1.2952631711959839,-9.725247383117676,0.946044921875,-0.457763671875,1.434326171875
11.0299999,0.8547300100326538,1.1803414821624756,-9.873687744140625,0.06103515625,2.2430419921875,-0.152587890625
11.049999900000001,0.8331822156906128,1.091755986213684,-10.005369186401367,-0.7171630859375,3.4942626953125,-0.457763671875
11.069999900000001,0.8140285611152649,1.039083480834961,-10.079588890075684,-0.5645751953125,3.173828125,0.701904296875
11.0899999,0.811634361743927,1.05105459690094,-10.055646896362305,-0.640869140625,3.6163330078125,0.8697509765625
11.1099999,0.8259995579719543,1.0749965906143188,-9.943120002746582,-0.1220703125,3.875732421875,0.9765625
11.129999900000001,0.849941611289978,1.1037269830703735,-9.799467086791992,0.5340576171875,1.7242431640625,0.9307861328125
11.149999900000001,0.8762778043746948,1.113303780555725,-9.653421401977539,0.5950927734375,0.5950927734375,0.30517578125
11.1699999,0.9074024558067322,1.1300631761550903,-9.5624418258667,-0.7781982421875,1.1138916015625,-0.8392333984375
11.1899999,0.933738648891449,1.1635819673538208,-9.550470352172852,-1.9989013671875,1.2664794921875,-1.0986328125
11.209999900000001,0.9552865028381348,1.237802267074585,-9.593565940856934,-1.556396484375,1.2359619140625,-0.18310546875
11.229999900000001,0.9672574996948242,1.314416766166687,-9.653421401977539,-0.762939453125,0.91552734375,1.7547607421875
11.2499999,0.9624691009521484,1.381454348564148,-9.72285270690918,1.0528564453125,0.7476806640625,1.678466796875
11.2699999,0.9313444495201111,1.3623007535934448,-9.768342971801758,0.5645751953125,1.312255859375,1.46484375
11.2899999,0.8906430602073669,1.3000515699386597,-9.813833236694336,0.0762939453125,1.800537109375,-0.1220703125
11.309999900000001,0.8523358106613159,1.2114660739898682,-9.816226959228516,-0.274658203125,2.8839111328125,-1.77001953125
11.3299999,0.8379706144332886,1.1635819673538208,-9.825803756713867,-0.701904296875,2.2735595703125,-1.9989013671875
11.3499999,0.8523358106613159,1.1755530834197998,-9.799467086791992,0.457763671875,2.50244140625,-1.4801025390625
11.3699999,0.8858546018600464,1.2282254695892334,-9.773131370544434,-0.06103515625,2.1514892578125,-0.0762939453125
11.389999900000001,0.9050082564353943,1.2880805730819702,-9.727641105651855,-1.068115234375,2.166748046875,0.885009765625
11.4099999,0.9289502501487732,1.3239935636520386,-9.677363395690918,-0.213623046875,1.9683837890625,0.2593994140625
11.4299999,0.9409212470054626,1.3287819623947144,-9.670180320739746,-1.1138916015625,0.9307861328125,-0.213623046875
11.4499999,0.9457096457481384,1.3000515699386597,-9.653421401977539,-1.1749267578125,2.1209716796875,0.5340576171875
11.469999900000001,0.9768342971801758,1.2042834758758545,-9.758766174316406,0.6103515625,1.03759765625,0
11.4899999,0.9792284965515137,1.1779472827911377,-9.804255485534668,3.7078857421875,2.2735595703125,-1.2359619140625
11.5099999,0.9696516990661621,1.1683704853057861,-9.785101890563965,1.6021728515625,2.86865234375,-0.9918212890625
11.5299999,0.9600749015808105,1.1971008777618408,-9.737217903137207,-0.1220703125,1.495361328125,-0.457763671875
11.549999900000001,0.950498104095459,1.2306196689605713,-9.655815124511719,-0.152587890625,0.06103515625,-0.18310546875
11.569999900000001,0.9481038451194763,1.256955862045288,-9.615114212036133,-0.48828125,-0.396728515625,-0.1373291015625
11.5899999,0.9457096457481384,1.256955862045288,-9.62947940826416,-0.0762939453125,0.1068115234375,-0.579833984375
11.6099999,0.9481038451194763,1.2641384601593018,-9.679757118225098,1.5869140625,1.40380859375,-1.6326904296875
11.629999900000001,0.9433154463768005,1.256955862045288,-9.739612579345703,2.3040771484375,0.9002685546875,-0.9002685546875
11.649999900000001,0.9409212470054626,1.2497732639312744,-9.799467086791992,3.90625,0.1983642578125,-0.3509521484375
11.6699999,0.9409212470054626,1.2497732639312744,-9.792284965515137,1.556396484375,1.89208984375,-0.8087158203125
11.6899999,0.9433154463768005,1.235408067703247,-9.782708168029785,1.1138916015625,1.8157958984375,-0.7171630859375
11.709999900000001,0.9528923034667969,1.2306196689605713,-9.737217903137207,0.79345703125,0.2593994140625,-0.274658203125
11.729999900000001,0.9600749015808105,1.2234370708465576,-9.710882186889648,-0.030517578125,-0.18310546875,0.457763671875
11.7499999,0.9624691009521484,1.2258312702178955,-9.6989107131958,-1.312255859375,0.9613037109375,0.1373291015625
11.7699999,0.9576807022094727,1.2210428714752197,-9.739612579345703,-1.6632080078125,1.3885498046875,-0.18310546875
11.7899999,0.950498104095459,1.213860273361206,-9.75397777557373,-0.213623046875,1.739501953125,-0.1678466796875
11.809999900000001,0.9433154463768005,1.194706678390503,-9.773131370544434,0.3509521484375,1.312255859375,-0.1068115234375
11.8299999,0.9433154463768005,1.1803414821624756,-9.761159896850586,0.1068115234375,1.2969970703125,-0.4119873046875
11.8499999,0.950498104095459,1.1659762859344482,-9.744400978088379,-0.4119873046875,1.1749267578125,-0.5950927734375
11.8699999,0.9528923034667969,1.161187767982483,-9.734824180603027,-0.30517578125,0.9765625,-0.3509521484375
11.889999900000001,0.9576807022094727,1.1659762859344482,-9.720458984375,0.2899169921875,1.3885498046875,-0.396728515625
11.9099999,0.9552865028381348,1.170764684677124,-9.725247383117676,0.2899169921875,0.6103515625,-0.732421875
11.9299999,0.950498104095459,1.1851298809051514,-9.708487510681152,-0.1678466796875,0.823974609375,-1.007080078125
11.9499999,0.9433154463768005,1.1875240802764893,-9.708487510681152,-0.1678466796875,0.6256103515625,-0.48828125
11.969999900000001,0.9385270476341248,1.1971008777618408,-9.708487510681152,-0.1373291015625,0.3814697265625,-0.3204345703125
11.9899999,0.9361328482627869,1.2090718746185303,-9.730035781860352,0.9002685546875,0.9918212890625,-0.8087158203125
12.0099999,0.9313444495201111,1.2210428714752197,-9.765948295593262,1.03759765625,0.9765625,-0.9307861328125
12.0299999,0.933738648891449,1.2330138683319092,-9.813833236694336,0.4119873046875,1.6632080078125,-0.4730224609375
12.049999900000001,0.9385270476341248,1.2210428714752197,-9.825803756713867,-0.1068115234375,2.5634765625,-0.335693359375
12.069999900000001,0.9457096457481384,1.2114660739898682,-9.806650161743164,0.5035400390625,2.1820068359375,-1.2359619140625
12.0899999,0.9528923034667969,1.1875240802764893,-9.732429504394531,0.5645751953125,1.312255859375,-1.0223388671875
12.1099999,0.9552865028381348,1.1827356815338135,-9.679757118225098,-1.46484375,-0.0457763671875,-0.3204345703125
12.129999900000001,0.9552865028381348,1.194706678390503,-9.648633003234863,-2.3345947265625,0.4119873046875,-0.396728515625
12.149999900000001,0.9481038451194763,1.216254472732544,-9.68933391571045,-0.885009765625,1.1138916015625,-0.5035400390625
12.1699999,0.950498104095459,1.2473790645599365,-9.746794700622559,0.7781982421875,1.6632080078125,-0.67138671875
12.1899999,0.950498104095459,1.2425906658172607,-9.794678688049316,1.2969970703125,1.9683837890625,0.457763671875
12.209999900000001,0.9600749015808105,1.2282254695892334,-9.787496566772461,1.129150390625,1.4495849609375,-0.3662109375
12.229999900000001,0.9648633003234863,1.194706678390503,-9.751583099365234,0.396728515625,1.068115234375,-1.2664794921875
12.2499999,0.9624691009521484,1.1755530834197998,-9.715670585632324,-1.373291015625,0.6561279296875,-1.03759765625
12.2699999,0.9624691009521484,1.1899182796478271,-9.694122314453125,-0.54931640625,1.2054443359375,-0.3662109375
12.289999900000002,0.9624691009521484,1.213860273361206,-9.706093788146973,1.0986328125,1.15966796875,0.0762939453125
12.309999900000001,0.9624691009521484,1.2258312702178955,-9.725247383117676,0.54931640625,0.6866455078125,0.3662109375
12.3299999,0.9648633003234863,1.216254472732544,-9.737217903137207,0.0762939453125,1.007080078125,0
12.3499999,0.9600749015808105,1.170764684677124,-9.744400978088379,-0.457763671875,1.220703125,-0.274658203125
12.3699999,0.9552865028381348,1.1420341730117798,-9.737217903137207,-0.6256103515625,1.6021728515625,-1.0223388671875
12.389999900000001,0.950498104095459,1.1300631761550903,-9.739612579345703,0.1678466796875,1.3580322265625,-1.2054443359375
12.4099999,0.950498104095459,1.1468225717544556,-9.742006301879883,-0.4425048828125,0.4425048828125,-0.274658203125
12.4299999,0.9528923034667969,1.1755530834197998,-9.742006301879883,-0.732421875,1.068115234375,-0.1678466796875
12.4499999,0.9576807022094727,1.1994950771331787,-9.742006301879883,-0.1373291015625,1.2969970703125,-0.30517578125
12.469999900000001,0.9648633003234863,1.2066776752471924,-9.739612579345703,-1.15966796875,1.03759765625,-0.3662109375
12.4899999,0.9720458984375,1.213860273361206,-9.744400978088379,-1.373291015625,1.1444091796875,-0.518798828125
12.5099999,0.9816226959228516,1.2258312702178955,-9.742006301879883,0.1373291015625,1.2969970703125,-0.701904296875
12.5299999,0.9840168952941895,1.235408067703247,-9.75637149810791,1.1749267578125,0.9613037109375,0.06103515625
12.549999900000001,0.9888052940368652,1.2425906658172607,-9.758766174316406,0.335693359375,1.1444091796875,0.5035400390625
12.569999900000001,0.9864110946655273,1.237802267074585,-9.739612579345703,-0.6103515625,1.9073486328125,-0.0457763671875
12.5899999,0.9816226959228516,1.2234370708465576,-9.718064308166504,-0.4119873046875,1.1749267578125,-0.1068115234375
12.6099999,0.9792284965515137,1.2090718746185303,-9.691728591918945,-0.152587890625,0.4119873046875,-0.030517578125
12.629999900000001,0.9792284965515137,1.2042834758758545,-9.674968719482422,-0.396728515625,0.396728515625,0.0457763671875
12.649999900000001,0.9744400978088379,1.2042834758758545,-9.691728591918945,-0.3814697265625,0.3662109375,0.0152587890625
12.6699999,0.9672574996948242,1.2090718746185303,-9.725247383117676,0.030517578125,0.8087158203125,-0.1373291015625
12.6899999,0.9600749015808105,1.213860273361206,-9.770736694335938,0.3204345703125,1.312255859375,0.0152587890625
12.709999900000001,0.9552865028381348,1.2090718746185303,-9.787496566772461,1.251220703125,1.9683837890625,-0.335693359375
12.729999900000001,0.9624691009521484,1.2042834758758545,-9.775525093078613,1.89208984375,1.220703125,-0.48828125
12.7499999,0.9744400978088379,1.1899182796478271,-9.742006301879883,0.457763671875,0.457763671875,0
12.7699999,0.9840168952941895,1.1827356815338135,-9.713275909423828,-1.2969970703125,0.30517578125,0.091552734375
12.789999900000002,0.9864110946655273,1.1899182796478271,-9.713275909423828,0.2899169921875,1.251220703125,-0.6866455078125
12.809999900000001,0.9816226959228516,1.1851298809051514,-9.737217903137207,1.800537109375,1.1444091796875,-0.42724609375
12.8299999,0.9864110946655273,1.1851298809051514,-9.737217903137207,1.617431640625,1.2054443359375,0.0152587890625
12.8499999,0.9959878921508789,1.1444283723831177,-9.713275909423828,3.11279296875,0.091552734375,0.06103515625
12.8699999,1.0055646896362305,1.0965443849563599,-9.658209800720215,2.0751953125,-0.5035400390625,-0.640869140625
12.889999900000001,1.0079588890075684,1.0558429956436157,-9.643844604492188,0.579833984375,-0.091552734375,-1.7547607421875
12.9099999,0.993593692779541,1.05105459690094,-9.679757118225098,0.152587890625,0.42724609375,-1.9378662109375
12.9299999,0.9720458984375,1.1109095811843872,-9.773131370544434,1.5411376953125,1.2054443359375,-1.2054443359375
12.9499999,0.950498104095459,1.1779472827911377,-9.84256362915039,3.8909912109375,1.8768310546875,-0.30517578125
12.969999900000001,0.9433154463768005,1.2282254695892334,-9.854534149169922,2.899169921875,1.7852783203125,0.0152587890625
12.9899999,0.9648633003234863,1.2114660739898682,-9.6989107131958,-0.2593994140625,-0.5645751953125,-0.213623046875
13.0099999,0.9768342971801758,1.1899182796478271,-9.648633003234863,0,-0.6103515625,-0.0457763671875
13.0299999,0.9720458984375,1.1635819673538208,-9.68694019317627,0.396728515625,0.213623046875,0.3662109375
13.049999900000001,0.9600749015808105,1.1468225717544556,-9.765948295593262,1.7242431640625,1.2969970703125,0.5035400390625
13.069999900000001,0.9481038451194763,1.1180921792984009,-9.835380554199219,2.38037109375,2.166748046875,0.2899169921875
13.0899999,0.9457096457481384,1.0749965906143188,-9.84256362915039,0.8087158203125,2.197265625,0.1373291015625
13.1099999,0.950498104095459,1.036689281463623,-9.787496566772461,-0.1068115234375,1.3580322265625,-0.6561279296875
13.129999900000001,0.9576807022094727,1.015141487121582,-9.718064308166504,-0.732421875,0.2593994140625,-0.701904296875
13.149999900000001,0.9648633003234863,1.0438719987869263,-9.66539192199707,-0.67138671875,0.1068115234375,-0.5340576171875
13.1699999,0.9720458984375,1.0845733880996704,-9.66299819946289,0,0,0.244140625
13.1899999,0.9864110946655273,1.1420341730117798,-9.682151794433594,1.007080078125,0.335693359375,0.42724609375
13.209999900000001,0.9959878921508789,1.158793568611145,-9.715670585632324,0.732421875,0.2288818359375,0.762939453125
13.229999900000001,0.9983820915222168,1.1444283723831177,-9.734824180603027,-0.4425048828125,0.0152587890625,0.732421875
13.2499999,0.9864110946655273,1.1061211824417114,-9.749189376831055,-0.2288818359375,0.4119873046875,0.0152587890625
13.2699999,0.9624691009521484,1.0606313943862915,-9.765948295593262,0.30517578125,0.6866455078125,-0.18310546875
13.289999900000002,0.9385270476341248,1.0438719987869263,-9.785101890563965,0.42724609375,0.8544921875,-0.18310546875
13.309999900000001,0.9241618514060974,1.0342950820922852,-9.806650161743164,0.396728515625,0.91552734375,0.3204345703125
13.3299999,0.9265560507774353,1.0438719987869263,-9.813833236694336,0.1068115234375,1.0986328125,0.0762939453125
13.3499999,0.9361328482627869,1.05105459690094,-9.806650161743164,-0.54931640625,1.3885498046875,-0.030517578125
13.3699999,0.9481038451194763,1.0582371950149536,-9.785101890563965,-0.48828125,1.3885498046875,-0.2899169921875
13.389999900000001,0.9552865028381348,1.072602391242981,-9.75397777557373,-0.091552734375,1.007080078125,-0.5645751953125
13.4099999,0.9624691009521484,1.1013327836990356,-9.72285270690918,0.579833984375,0.8697509765625,-0.42724609375
13.4299999,0.9648633003234863,1.1109095811843872,-9.715670585632324,0.4425048828125,0.6103515625,-0.0152587890625
13.4499999,0.9672574996948242,1.1180921792984009,-9.718064308166504,-0.3662109375,1.0223388671875,0
13.469999900000001,0.9624691009521484,1.0989385843276978,-9.751583099365234,-0.823974609375,1.28173828125,-0.396728515625
13.4899999,0.9624691009521484,1.094150185585022,-9.765948295593262,0.18310546875,1.8157958984375,-1.1444091796875
13.5099999,0.9648633003234863,1.0869675874710083,-9.77791976928711,0.6103515625,1.4190673828125,-0.1373291015625
13.5299999,0.9696516990661621,1.0989385843276978,-9.763554573059082,0.30517578125,1.0833740234375,0.579833984375
13.549999900000001,0.9672574996948242,1.0845733880996704,-9.751583099365234,-0.152587890625,0.7781982421875,0.732421875
13.569999900000001,0.9624691009521484,1.0654197931289673,-9.746794700622559,-0.0762939453125,0.9765625,0.0762939453125
13.5899999,0.9576807022094727,1.039083480834961,-9.734824180603027,0.091552734375,1.4495849609375,-0.701904296875
13.6099999,0.9576807022094727,1.036689281463623,-9.739612579345703,0.48828125,1.0833740234375,-0.4730224609375
13.629999900000001,0.9624691009521484,1.0462661981582642,-9.737217903137207,-0.4730224609375,0.701904296875,0.152587890625
13.649999900000001,0.9672574996948242,1.0773907899856567,-9.761159896850586,-0.762939453125,1.03759765625,0.0762939453125
13.6699999,0.9720458984375,1.0869675874710083,-9.785101890563965,-0.91552734375,1.8310546875,0.152587890625
13.6899999,0.9768342971801758,1.0989385843276978,-9.792284965515137,-0.030517578125,2.4871826171875,0
13.709999900000001,0.9816226959228516,1.0869675874710083,-9.77791976928711,0.0152587890625,1.190185546875,0.5035400390625
13.729999900000001,0.9840168952941895,1.0749965906143188,-9.749189376831055,-0.946044921875,0.518798828125,0.5950927734375
13.7499999,0.9816226959228516,1.0678139925003052,-9.720458984375,-1.3275146484375,0.9307861328125,0.0152587890625
13.7699999,0.9720458984375,1.0582371950149536,-9.730035781860352,-0.396728515625,0.9918212890625,-0.4119873046875
13.789999900000002,0.9720458984375,1.0678139925003052,-9.742006301879883,0.42724609375,1.64794921875,-0.4119873046875
13.809999900000001,0.9768342971801758,1.0773907899856567,-9.758766174316406,0.5950927734375,1.46484375,-0.1373291015625
13.8299999,0.9840168952941895,1.0797849893569946,-9.75397777557373,-0.1678466796875,1.190185546875,0.5950927734375
13.8499999,0.9911994934082031,1.0678139925003052,-9.744400978088379,-1.2359619140625,0.6256103515625,0.6256103515625
13.8699999,0.9864110946655273,1.0558429956436157,-9.730035781860352,-0.701904296875,0.9613037109375,-0.457763671875
13.889999900000001,0.9816226959228516,1.0534487962722778,-9.744400978088379,0.0152587890625,1.0986328125,-0.8697509765625
13.9099999,0.9816226959228516,1.072602391242981,-9.749189376831055,0.4730224609375,1.495361328125,-0.396728515625
13.9299999,0.9864110946655273,1.0989385843276978,-9.75397777557373,0.4730224609375,1.3275146484375,0.1678466796875
13.9499999,0.993593692779541,1.1204863786697388,-9.744400978088379,-0.152587890625,0.9918212890625,0.1068115234375
13.969999900000001,0.9959878921508789,1.1180921792984009,-9.739612579345703,0.2593994140625,1.068115234375,-0.2288818359375
13.9899999,0.9983820915222168,1.1109095811843872,-9.742006301879883,-0.2288818359375,1.861572265625,-0.5035400390625
14.0099999,1.0055646896362305,1.1085153818130493,-9.75397777557373,-0.6103515625,2.4871826171875,-0.2288818359375
14.0299999,1.0103530883789062,1.1109095811843872,-9.770736694335938,-0.5340576171875,1.77001953125,0.5340576171875
14.049999900000001,1.0127472877502441,1.1180921792984009,-9.780313491821289,-0.3204345703125,1.434326171875,0.885009765625
14.069999900000001,0.9983820915222168,1.0965443849563599,-9.806650161743164,0.42724609375,1.8463134765625,0.8544921875
14.0899999,0.9816226959228516,1.0797849893569946,-9.813833236694336,0.79345703125,2.838134765625,-0.4119873046875
14.1099999,0.9672574996948242,1.039083480834961,-9.828198432922363,-0.274658203125,3.0670166015625,-0.335693359375
14.129999900000001,0.9744400978088379,1.0247182846069336,-9.799467086791992,-0.5340576171875,2.4871826171875,-0.2593994140625
14.149999900000001,0.9911994934082031,1.0199298858642578,-9.75637149810791,-0.30517578125,2.3345947265625,-0.3662109375
14.1699999,1.01753568649292,1.0342950820922852,-9.701305389404297,-0.152587890625,1.434326171875,-0.3204345703125
14.1899999,1.036689281463623,1.05105459690094,-9.66299819946289,-0.18310546875,1.220703125,-0.0457763671875
14.209999900000001,1.0438719987869263,1.0797849893569946,-9.646238327026367,-0.823974609375,1.3427734375,-0.244140625
14.229999900000001,1.0462661981582642,1.1109095811843872,-9.653421401977539,-1.2664794921875,1.251220703125,0.030517578125
14.2499999,1.039083480834961,1.115697979927063,-9.66299819946289,-0.1678466796875,0.67138671875,0.5645751953125
14.2699999,1.036689281463623,1.115697979927063,-9.670180320739746,-0.1220703125,0.1983642578125,0.1220703125
14.289999900000002,1.0342950820922852,1.0989385843276978,-9.68933391571045,-0.7476806640625,-0.030517578125,-0.30517578125
14.309999900000001,1.0319008827209473,1.0749965906143188,-9.725247383117676,-0.4730224609375,0.1068115234375,-0.0762939453125
14.3299999,1.0295066833496094,1.070208191871643,-9.773131370544434,-0.0457763671875,1.15966796875,-0.091552734375
14.3499999,1.0223240852355957,1.070208191871643,-9.81143856048584,0.6103515625,1.8310546875,0.1373291015625
14.3699999,1.0199298858642578,1.0773907899856567,-9.806650161743164,-0.0152587890625,1.64794921875,0.274658203125
14.389999900000001,1.0199298858642578,1.0749965906143188,-9.780313491821289,-0.6256103515625,0.579833984375,0.8087158203125
14.4099999,1.0199298858642578,1.0606313943862915,-9.734824180603027,-0.518798828125,0.396728515625,0.4730224609375
14.4299999,1.0223240852355957,1.0582371950149536,-9.718064308166504,-1.40380859375,0.732421875,-0.5035400390625
14.4499999,1.0223240852355957,1.0558429956436157,-9.725247383117676,-1.6632080078125,1.40380859375,-0.1068115234375
14.469999900000001,1.0319008827209473,1.0869675874710083,-9.742006301879883,0.0152587890625,1.2664794921875,-0.0457763671875
14.4899999,1.039083480834961,1.1013327836990356,-9.75637149810791,1.251220703125,1.373291015625,0.640869140625
14.5099999,1.0438719987869263,1.1061211824417114,-9.730035781860352,-0.335693359375,1.3275146484375,0.0457763671875
14.5299999,1.0342950820922852,1.0869675874710083,-9.708487510681152,-0.6561279296875,0.4119873046875,-0.0152587890625
14.549999900000001,1.0271124839782715,1.0773907899856567,-9.703699111938477,-0.8392333984375,0,-0.1983642578125
14.569999900000001,1.0295066833496094,1.0869675874710083,-9.713275909423828,0.244140625,1.1444091796875,-0.9002685546875
14.5899999,1.0319008827209473,1.0869675874710083,-9.742006301879883,-0.396728515625,1.4190673828125,-0.1068115234375
14.6099999,1.039083480834961,1.0965443849563599,-9.770736694335938,-0.67138671875,1.1749267578125,0.1678466796875
14.629999900000001,1.0414776802062988,1.0965443849563599,-9.770736694335938,-0.5950927734375,1.2359619140625,0.213623046875
14.649999900000001,1.036689281463623,1.0893617868423462,-9.763554573059082,-0.701904296875,0.8087158203125,0.0457763671875
14.6699999,1.0295066833496094,1.0893617868423462,-9.751583099365234,-0.4730224609375,0.7476806640625,-0.2899169921875
14.6899999,1.0223240852355957,1.0845733880996704,-9.751583099365234,-0.3662109375,1.220703125,0
14.709999900000001,1.0223240852355957,1.0965443849563599,-9.749189376831055,-0.2288818359375,1.678466796875,-0.30517578125
14.729999900000001,1.0223240852355957,1.094150185585022,-9.751583099365234,0.2288818359375,1.251220703125,0.1220703125
14.7499999,1.0223240852355957,1.094150185585022,-9.734824180603027,-0.06103515625,0.885009765625,0.2593994140625
14.7699999,1.0223240852355957,1.0821791887283325,-9.730035781860352,-0.7781982421875,0.6561279296875,0.091552734375
14.789999900000002,1.0223240852355957,1.0749965906143188,-9.734824180603027,0.3662109375,1.129150390625,-0.640869140625
14.809999900000001,1.0223240852355957,1.05105459690094,-9.739612579345703,-0.1220703125,1.6937255859375,-0.6103515625
14.8299999,1.039083480834961,1.0606313943862915,-9.75397777557373,-0.5035400390625,1.5869140625,-0.732421875
14.8499999,1.048660397529602,1.0654197931289673,-9.742006301879883,-0.8544921875,1.3275146484375,-0.5645751953125
14.8699999,1.0558429956436157,1.0845733880996704,-9.732429504394531,-0.91552734375,0.9765625,-0.213623046875
14.889999900000001,1.0534487962722778,1.1013327836990356,-9.718064308166504,0.18310546875,0.91552734375,-0.579833984375
14.9099999,1.0438719987869263,1.1013327836990356,-9.72285270690918,0.4730224609375,1.007080078125,-0.6103515625
14.9299999,1.039083480834961,1.0989385843276978,-9.746794700622559,0,1.3427734375,-0.9307861328125
14.9499999,1.0414776802062988,1.0989385843276978,-9.765948295593262,0.1068115234375,1.953125,-0.823974609375
14.969999900000001,1.0462661981582642,1.094150185585022,-9.77791976928711,-0.091552734375,2.01416015625,-0.1983642578125
14.9899999,1.05105459690094,1.0869675874710083,-9.749189376831055,0,1.739501953125,-0.1220703125
15.0099999,1.05105459690094,1.070208191871643,-9.720458984375,0.152587890625,0.8697509765625,-0.5950927734375
15.0299999,1.0462661981582642,1.05105459690094,-9.691728591918945,-0.79345703125,0.579833984375,-1.03759765625
15.049999900000001,1.0438719987869263,1.039083480834961,-9.6989107131958,-0.1068115234375,1.1749267578125,-1.4495849609375
15.069999900000001,1.0462661981582642,1.0558429956436157,-9.727641105651855,0.4425048828125,1.4190673828125,-1.46484375
15.0899999,1.05105459690094,1.0749965906143188,-9.770736694335938,0.030517578125,1.6326904296875,-0.701904296875
15.1099999,1.0630255937576294,1.1013327836990356,-9.77791976928711,-1.03759765625,2.1209716796875,-0.3662109375
15.129999900000001,1.0606313943862915,1.0821791887283325,-9.773131370544434,-1.64794921875,1.6021728515625,-0.3204345703125
15.149999900000001,1.0606313943862915,1.0630255937576294,-9.746794700622559,-0.946044921875,1.5716552734375,-2.1820068359375
15.1699999,1.0558429956436157,1.048660397529602,-9.72285270690918,-0.18310546875,1.5411376953125,-2.777099609375
15.1899999,1.0582371950149536,1.0630255937576294,-9.708487510681152,0.3204345703125,1.2664794921875,-1.8310546875
15.209999900000001,1.072602391242981,1.1252747774124146,-9.696516990661621,0.213623046875,0.9307861328125,-1.2054443359375
15.229999900000001,1.0893617868423462,1.173158884048462,-9.696516990661621,-0.3662109375,0.762939453125,-0.396728515625
15.2499999,1.1037269830703735,1.213860273361206,-9.691728591918945,0,1.15966796875,-0.7171630859375
15.2699999,1.1085153818130493,1.2234370708465576,-9.703699111938477,1.15966796875,1.3427734375,-1.129150390625
15.289999900000002,1.1013327836990356,1.194706678390503,-9.708487510681152,0.4425048828125,0.732421875,-0.1983642578125
15.309999900000001,1.0845733880996704,1.1563993692398071,-9.744400978088379,-0.457763671875,0.6256103515625,-0.0152587890625
15.3299999,1.0654197931289673,1.1109095811843872,-9.768342971801758,-0.1983642578125,1.251220703125,-0.762939453125
15.3499999,1.048660397529602,1.0749965906143188,-9.78989028930664,1.0223388671875,1.983642578125,-1.068115234375
15.3699999,1.039083480834961,1.0534487962722778,-9.799467086791992,0.18310546875,1.89208984375,-0.5340576171875
15.389999900000001,1.039083480834961,1.039083480834961,-9.77791976928711,-0.7476806640625,1.6326904296875,-0.6561279296875
15.4099999,1.048660397529602,1.036689281463623,-9.75397777557373,-0.54931640625,1.6021728515625,-1.373291015625
15.4299999,1.0558429956436157,1.0295066833496094,-9.727641105651855,-0.396728515625,1.617431640625,-1.1749267578125
15.4499999,1.0654197931289673,1.0342950820922852,-9.715670585632324,-0.1373291015625,1.617431640625,-1.3885498046875
15.469999900000001,1.070208191871643,1.0462661981582642,-9.713275909423828,-1.0833740234375,1.5869140625,-1.708984375
15.4899999,1.0845733880996704,1.072602391242981,-9.710882186889648,-1.64794921875,1.800537109375,-1.922607421875
15.5099999,1.1109095811843872,1.1037269830703735,-9.708487510681152,0.0152587890625,1.2054443359375,-1.7852783203125
15.5299999,1.1468225717544556,1.1468225717544556,-9.691728591918945,-0.579833984375,0.9307861328125,-3.72314453125
15.549999900000001,1.256955862045288,1.5538369417190552,-9.780313491821289,-5.6915283203125,1.0528564453125,-13.0462646484375
15.569999900000001,1.5131354331970215,2.5905263423919678,-10.046070098876953,-15.7012939453125,3.265380859375,-17.059326171875
15.5899999,1.8722656965255737,4.2760443687438965,-10.472238540649414,-15.899658203125,10.19287109375,5.6610107421875
15.6099999,2.298433542251587,6.347028732299805,-10.730812072753906,-4.241943359375,17.486572265625,38.6199951171875
15.629999900000001,2.695871114730835,8.236053466796875,-10.553641319274902,-1.5411376953125,19.71435546875,56.7626953125
15.649999900000001,2.918531894683838,9.442731857299805,-9.962273597717285,-7.87353515625,1.1749267578125,73.7762451171875
15.6699999,2.9041666984558105,9.682151794433594,-8.983044624328613,-4.9285888671875,-8.8958740234375,99.029541015625
15.6899999,2.626439332962036,9.011775016784668,-8.106766700744629,0.9307861328125,-9.4146728515625,122.161865234375
15.709999900000001,2.073378562927246,7.4770917892456055,-7.565677165985107,6.3018798828125,-14.34326171875,136.5814208984375
15.729999900000001,1.235408067703247,5.054159641265869,-7.4100542068481445,8.758544921875,-24.261474609375,144.989013671875
15.7499999,0.2968810200691223,2.2361843585968018,-7.718906402587891,7.32421875,-28.4576416015625,133.2550048828125
15.7699999,-0.6488286852836609,-0.730231523513794,-8.327033042907715,5.4779052734375,-24.8565673828125,112.85400390625
15.789999900000002,-1.6089035272598267,-3.869029998779297,-9.23443603515625,1.5716552734375,-21.636962890625,106.7657470703125
15.809999900000001,-2.5522189140319824,-6.914454460144043,-10.304644584655762,-5.9967041015625,-21.026611328125,77.81982421875
15.8299999,-3.5482068061828613,-10.022128105163574,-11.453861236572266,6.866455078125,-10.7269287109375,26.3519287109375
15.8499999,-4.5154643058776855,-12.696451187133789,-12.466608047485352,11.627197265625,6.866455078125,-32.989501953125
15.869999900000002,-5.365406036376953,-14.61660099029541,-13.139378547668457,-3.23486328125,26.031494140625,-80.1239013671875
15.889999900000001,-5.987898349761963,-15.330073356628418,-13.388376235961914,-22.5982666015625,35.15625,-118.743896484375
15.9099999,-6.392518520355225,-14.846445083618164,-13.160926818847656,-25.5126953125,41.839599609375,-160.0494384765625
15.9299999,-6.624756336212158,-13.46020221710205,-12.689269065856934,-8.9874267578125,47.637939453125,-193.6798095703125
15.9499999,-6.66785192489624,-11.30063247680664,-11.997344970703125,1.251220703125,50.6134033203125,-223.9990234375
15.969999900000001,-6.50025749206543,-8.650250434875488,-11.27190113067627,3.509521484375,55.206298828125,-240.8905029296875
15.9899999,-6.143521785736084,-5.686229228973389,-10.709263801574707,6.9122314453125,39.9322509765625,-252.74658203125
16.0099999,-5.612008571624756,-2.63362193107605,-10.393229484558105,23.98681640625,33.4930419921875,-257.2784423828125
16.0299999,-4.134786128997803,3.706224203109741,-10.067618370056152,25.6195068359375,50.1861572265625,-252.86865234375
16.0499999,-3.1459810733795166,7.141903877258301,-9.806650161743164,-9.185791015625,37.2772216796875,-228.6376953125
16.0699999,-1.9800047874450684,10.781089782714844,-9.50498104095459,-14.068603515625,21.5301513671875,-195.343017578125
16.089999900000002,-0.7182605266571045,14.449007034301758,-9.153033256530762,6.561279296875,26.2603759765625,-146.8963623046875
16.109999900000002,0.507570743560791,17.74582290649414,-8.796297073364258,-4.913330078125,36.224365234375,-91.796875
16.1299999,1.678335428237915,20.508731842041016,-8.22887134552002,-40.10009765625,30.3192138671875,-42.8009033203125
16.1499999,2.6455929279327393,22.37141990661621,-7.316680431365967,-15.838623046875,19.8516845703125,10.406494140625
16.1699999,3.3231520652770996,23.21657371520996,-6.248866558074951,38.6962890625,16.1895751953125,70.6024169921875
16.1899999,3.581725835800171,23.178266525268555,-5.07570743560791,56.0760498046875,15.6707763671875,117.8436279296875
16.2099999,3.294421434402466,22.23495101928711,-4.177882194519043,41.717529296875,0.2288818359375,164.4287109375
16.2299999,2.4444799423217773,20.65238380432129,-3.663128614425659,49.9114990234375,-19.4549560546875,212.5091552734375
16.249999900000002,1.0558429956436157,18.447324752807617,-3.7397429943084717,69.9005126953125,-29.9530029296875,252.777099609375
16.269999900000002,-0.6703764796257019,15.653290748596191,-4.129997730255127,83.9385986328125,-30.45654296875,278.6102294921875
16.2899999,-2.5713725090026855,12.1194486618042,-4.584896087646484,74.615478515625,-33.1573486328125,292.05322265625
16.3099999,-4.338293552398682,8.544905662536621,-5.085284233093262,36.8804931640625,-50.8880615234375,287.3687744140625
16.3299999,-5.868188381195068,5.061342239379883,-5.5545477867126465,27.2979736328125,-56.9305419921875,293.15185546875
16.3499999,-7.254431247711182,0.8882488012313843,-6.53377628326416,54.8095703125,-58.837890625,317.0318603515625
16.3699999,-8.283937454223633,-3.6320040225982666,-7.953537940979004,63.4307861328125,-53.3905029296875,288.055419921875
16.3899999,-8.954314231872559,-8.865729331970215,-9.440337181091309,56.21337890625,-18.280029296875,202.1026611328125
16.4099999,-9.38048267364502,-14.97573184967041,-10.867281913757324,31.097412109375,-1.7547607421875,159.8663330078125
16.429999900000002,-9.526528358459473,-20.745758056640625,-11.956643104553223,-1.2664794921875,-8.3770751953125,104.3243408203125
16.4499999,-9.641449928283691,-25.670631408691406,-12.356474876403809,-2.349853515625,22.8118896484375,5.401611328125
16.4699999,-9.763554573059082,-28.850130081176758,-12.169727325439453,-20.3399658203125,48.8433837890625,-106.658935546875
16.4899999,-9.801861763000488,-29.64979362487793,-11.382035255432129,-67.19970703125,40.0390625,-178.5125732421875
16.5099999,-9.758766174316406,-27.966670989990234,-10.362105369567871,-78.643798828125,31.5704345703125,-218.6737060546875
16.5299999,-9.655815124511719,-24.24129295349121,-9.464279174804688,-59.661865234375,28.7628173828125,-270.6451416015625
16.5499999,-9.440337181091309,-19.213468551635742,-9.083600997924805,-15.8538818359375,29.815673828125,-313.1866455078125
16.5699999,-9.129091262817383,-13.510479927062988,-9.155426979064941,-3.96728515625,14.251708984375,-325.3326416015625
16.589999900000002,-8.556877136230469,-7.326257228851318,-9.50498104095459,-11.7340087890625,14.1143798828125,-322.9217529296875
16.609999900000002,-7.728483200073242,-1.3958195447921753,-10.113107681274414,-14.984130859375,14.2974853515625,-314.7430419921875
16.6299999,-6.722918510437012,4.3406877517700195,-10.747570991516113,-5.2032470703125,22.5067138671875,-298.2177734375
16.6499999,-5.5760955810546875,9.536105155944824,-11.441889762878418,9.46044921875,30.426025390625,-265.56396484375
16.6699999,-4.278438568115234,14.460978507995605,-11.980585098266602,0.67138671875,33.8897705078125,-221.710205078125
16.6899999,-2.8419175148010254,19.24938201904297,-12.157755851745605,-17.242431640625,44.6624755859375,-173.675537109375
16.7099999,-1.237802267074585,23.666683197021484,-11.796232223510742,-41.19873046875,58.4716796875,-100.2044677734375
16.7299999,0.38067805767059326,27.439945220947266,-10.56800651550293,-37.7960205078125,60.6842041015625,-5.9051513671875
16.749999900000002,1.7334020137786865,29.819782257080078,-8.700529098510742,0.54931640625,43.0145263671875,90.0421142578125
16.769999900000002,2.52109432220459,30.212430953979492,-6.4834980964660645,31.67724609375,19.0277099609375,170.0592041015625
16.7899999,2.4229321479797363,28.469451904296875,-4.280832767486572,40.2069091796875,10.7574462890625,231.0028076171875
16.8099999,1.4389152526855469,24.890121459960938,-2.6001031398773193,30.8074951171875,-11.6119384765625,279.815673828125
16.8299999,-0.35434186458587646,19.99158477783203,-1.9752163887023926,7.0648193359375,-49.1790771484375,314.208984375
16.8499999,-2.669534921646118,14.372392654418945,-2.212242364883423,-1.1749267578125,-61.0504150390625,336.0443115234375
16.8699999,-5.063736438751221,9.030928611755371,-3.287238836288452,6.2255859375,-57.9071044921875,329.071044921875
16.8899999,-7.287950038909912,4.0533833503723145,-4.841075897216797,4.3792724609375,-62.98828125,330.74951171875
16.9099999,-9.35893440246582,-2.011129379272461,-6.98628044128418,18.310546875,-86.8682861328125,365.90576171875
16.929999900000002,-10.680533409118652,-8.188169479370117,-9.095572471618652,33.1268310546875,-64.27001953125,291.3818359375
16.9499999,-11.623848915100098,-16.15607261657715,-11.398794174194336,31.524658203125,-11.4288330078125,183.4564208984375
16.9699999,-11.908759117126465,-24.36100196838379,-13.261483192443848,12.8173828125,-9.613037109375,125.5645751953125
16.9899999,-11.712434768676758,-31.11983299255371,-14.214375495910645,-13.7939453125,11.53564453125,-14.556884765625
17.0099999,-11.298237800598145,-35.233070373535156,-14.049175262451172,-40.5731201171875,33.5845947265625,-139.190673828125
17.0299999,-10.819397926330566,-35.60417175292969,-13.014880180358887,-62.103271484375,41.8853759765625,-221.8475341796875
17.0499999,-10.484209060668945,-32.56353759765625,-11.688492774963379,-65.399169921875,32.7301025390625,-270.263671875
17.0699999,-10.319009780883789,-26.683378219604492,-10.426748275756836,-66.2689208984375,36.468505859375,-316.83349609375
17.089999900000002,-10.244789123535156,-19.211074829101562,-9.708487510681152,-68.7408447265625,52.734375,-357.2540283203125
17.109999900000002,-10.15141487121582,-11.099518775939941,-9.579200744628906,-24.0325927734375,50.7965087890625,-370.1171875
17.1299999,-9.653421401977539,-2.9065608978271484,-9.591172218322754,65.9332275390625,32.928466796875,-356.719970703125
17.1499999,-8.755595207214355,4.371812343597412,-9.488221168518066,66.4215087890625,31.92138671875,-322.174072265625
17.1699999,-7.469909191131592,10.752359390258789,-9.27034854888916,-80.841064453125,31.0211181640625,-293.27392578125
17.1899999,-5.880159378051758,16.563087463378906,-9.165003776550293,-156.67724609375,33.599853515625,-266.78466796875
17.2099999,-4.1874589920043945,21.74653434753418,-9.17697525024414,-60.5926513671875,40.10009765625,-190.8111572265625
17.2299999,-2.3247697353363037,26.841394424438477,-8.815450668334961,10.223388671875,65.9637451171875,-109.161376953125
17.249999900000002,-0.569819986820221,31.10786247253418,-8.068459510803223,-17.5018310546875,51.1627197265625,-43.0145263671875
17.269999900000002,0.7996633648872375,33.317710876464844,-6.414066314697266,4.08935546875,13.2904052734375,103.485107421875
17.2899999,1.501164436340332,33.21715545654297,-4.527435302734375,53.4515380859375,-2.6397705078125,190.2618408203125
17.3099999,1.3311761617660522,30.581138610839844,-2.8227639198303223,65.9332275390625,-18.6004638671875,238.494873046875
17.3299999,0.30885201692581177,26.024972915649414,-1.9393033981323242,64.4989013671875,-38.2232666015625,286.62109375
17.3499999,-1.4077905416488647,20.568586349487305,-1.7764976024627686,59.173583984375,-52.4749755859375,325.9124755859375
17.3699999,-3.627215623855591,14.104242324829102,-2.4229321479797363,51.1932373046875,-58.9447021484375,363.3575439453125
17.3899999,-5.834669589996338,7.706935405731201,-3.890577793121338,28.86962890625,-71.0906982421875,351.348876953125
17.409999900000003,-7.6111674308776855,2.1332337856292725,-5.473145008087158,12.6495361328125,-59.3109130859375,305.5572509765625
17.429999900000002,-8.935160636901855,-3.272873640060425,-7.46033239364624,-7.293701171875,-58.837890625,323.760986328125
17.4499999,-9.701305389404297,-8.212111473083496,-9.718064308166504,-9.0179443359375,-71.502685546875,322.540283203125
17.4699999,-9.986215591430664,-13.074735641479492,-12.105083465576172,14.251708984375,-31.463623046875,236.38916015625
17.4899999,-9.84495735168457,-18.447324752807617,-13.543998718261719,47.5006103515625,35.4766845703125,148.86474609375
17.5099999,-9.44752025604248,-23.855825424194336,-14.939818382263184,-17.3492431640625,14.6942138671875,92.926025390625
17.5299999,-8.688557624816895,-27.837383270263672,-14.595053672790527,-44.86083984375,13.0615234375,4.8828125
17.5499999,-7.647080421447754,-30.035261154174805,-12.679692268371582,-34.576416015625,48.553466796875,-192.56591796875
17.5699999,-7.515398979187012,-27.499801635742188,-11.508927345275879,-34.7442626953125,38.9404296875,-238.1744384765625
17.589999900000002,-7.680599212646484,-23.060951232910156,-10.47942066192627,-41.44287109375,37.4298095703125,-282.4249267578125
17.609999900000002,-8.01339340209961,-17.515979766845703,-9.832986831665039,-35.888671875,51.7730712890625,-324.462890625
17.6299999,-8.343792915344238,-11.432312965393066,-9.35893440246582,-10.68115234375,57.06787109375,-342.193603515625
17.6499999,-8.360552787780762,-4.8482584953308105,-9.196128845214844,18.1884765625,41.5191650390625,-337.4176025390625
17.6699999,-7.931990146636963,1.482010841369629,-9.251194953918457,-0.91552734375,30.8380126953125,-304.0008544921875
17.6899999,-7.000645637512207,7.407660007476807,-9.27034854888916,-40.557861328125,56.427001953125,-266.8304443359375
17.7099999,-5.674258232116699,12.466608047485352,-9.344569206237793,-32.16552734375,64.0716552734375,-228.6376953125
17.7299999,-4.065354347229004,16.730682373046875,-9.32302188873291,3.8909912109375,22.3541259765625,-186.34033203125
17.749999900000002,-2.360682964324951,20.266918182373047,-8.899248123168945,13.00048828125,25.08544921875,-123.1231689453125
17.769999900000002,-0.6943184733390808,23.228544235229492,-8.465897560119629,-20.1873779296875,25.2227783203125,-51.910400390625
17.7899999,0.7445967197418213,25.40008544921875,-7.675810813903809,-8.7890625,23.4832763671875,18.951416015625
17.8099999,1.8052281141281128,26.48705291748047,-6.600813865661621,26.824951171875,5.31005859375,90.1641845703125
17.8299999,2.341529369354248,26.283546447753906,-5.410895824432373,32.2113037109375,-14.9688720703125,154.4647216796875
17.8499999,2.2170307636260986,24.72731590270996,-4.4939165115356445,24.4293212890625,-25.9246826171875,205.230712890625
17.8699999,1.501164436340332,22.086511611938477,-4.067748546600342,10.7269287109375,-33.4014892578125,246.2310791015625
17.8899999,0.2082955539226532,18.626888275146484,-4.235342979431152,32.135009765625,-42.999267578125,283.6761474609375
17.909999900000003,-1.3670891523361206,14.858415603637695,-4.4077253341674805,41.4581298828125,-45.196533203125,310.302734375
17.929999900000002,-3.177105665206909,10.943896293640137,-4.821922302246094,10.25390625,-61.859130859375,328.4912109375
17.9499999,-5.094861030578613,6.110002517700195,-5.758055210113525,12.9852294921875,-89.17236328125,355.1177978515625
17.9699999,-6.701370716094971,1.4245500564575195,-6.955155849456787,31.79931640625,-70.1446533203125,315.185546875
17.9899999,-7.872135162353516,-3.1052796840667725,-8.355764389038086,-30.8074951171875,-27.6947021484375,264.16015625
18.0099999,-8.769960403442383,-8.02536392211914,-10.558429718017578,-67.413330078125,-61.859130859375,275.93994140625
18.0299999,-9.318233489990234,-13.24472427368164,-12.552799224853516,-8.4686279296875,-57.861328125,256.9580078125
18.0499999,-9.770736694335938,-19.103334426879883,-14.630966186523438,7.415771484375,9.368896484375,129.8065185546875
18.0699999,-10.168174743652344,-25.44318199157715,-16.34760856628418,-27.9541015625,38.116455078125,24.383544921875
18.089999900000002,-10.170568466186523,-29.96343421936035,-16.622941970825195,-65.4754638671875,60.36376953125,-84.53369140625
18.109999900000002,-9.768342971801758,-31.277851104736328,-15.550339698791504,-71.4569091796875,67.9168701171875,-187.774658203125
18.1299999,-9.2033109664917,-29.249961853027344,-13.711592674255371,-31.4483642578125,48.52294921875,-234.0545654296875
18.1499999,-8.631096839904785,-24.48550033569336,-11.638214111328125,6.77490234375,49.0570068359375,-271.270751953125
18.1699999,-8.214506149291992,-18.250999450683594,-9.828198432922363,-15.6707763671875,61.34033203125,-303.741455078125
18.1899999,-7.86734676361084,-11.432312965393066,-8.671798706054688,-21.392822265625,53.7872314453125,-321.77734375
18.2099999,-7.491456985473633,-4.78122091293335,-8.051700592041016,52.734375,22.125244140625,-316.986083984375
18.2299999,-6.9024834632873535,1.5155296325683594,-7.750030994415283,72.6165771484375,23.7274169921875,-291.6717529296875
18.249999900000002,-6.074089527130127,6.952761650085449,-7.592013359069824,-67.9779052734375,40.771484375,-262.51220703125
18.269999900000002,-4.965574264526367,11.963826179504395,-8.336610794067383,-120.91064453125,6.072998046875,-236.724853515625
18.2899999,-3.780444383621216,15.854403495788574,-9.042900085449219,20.111083984375,6.988525390625,-188.385009765625
18.3099999,-2.3104045391082764,19.608510971069336,-9.627084732055664,43.426513671875,63.5528564453125,-135.894775390625
18.3299999,-0.7781155705451965,22.582111358642578,-10.014945983886719,-69.061279296875,57.6324462890625,-70.556640625
18.3499999,0.730231523513794,24.643518447875977,-9.11233139038086,-58.4869384765625,33.99658203125,9.2315673828125
18.3699999,2.0685901641845703,25.629928588867188,-7.575253963470459,25.3448486328125,25.4669189453125,73.8525390625
18.3899999,2.9281086921691895,25.076868057250977,-5.726930618286133,48.4619140625,9.918212890625,130.3253173828125
18.409999900000003,3.1531636714935303,23.163902282714844,-3.864241600036621,23.0712890625,-9.2010498046875,179.1229248046875
18.429999900000002,2.6815059185028076,20.16157341003418,-2.3774423599243164,-6.8817138671875,-33.8897705078125,220.1385498046875
18.4499999,1.5466543436050415,16.498443603515625,-1.525106430053711,-9.9945068359375,-61.7218017578125,249.8016357421875
18.4699999,-0.14604631066322327,12.567164421081543,-1.7501614093780518,1.556396484375,-90.423583984375,267.5018310546875
18.4899999,-2.1068975925445557,8.724471092224121,-2.801215887069702,-7.4920654296875,-102.447509765625,274.8260498046875
18.5099999,-4.127603530883789,5.0469770431518555,-4.627991676330566,-21.270751953125,-95.9930419921875,279.388427734375
18.5299999,-6.004657745361328,0.8571242094039917,-7.19936466217041,-7.1258544921875,-105.1483154296875,289.0472412109375
18.5499999,-7.376535415649414,-3.354276657104492,-9.72285270690918,29.754638671875,-88.9739990234375,251.1444091796875
18.5699999,-8.315062522888184,-8.60236644744873,-12.433089256286621,28.4423828125,-58.2122802734375,203.399658203125
18.589999900000002,-8.772355079650879,-14.561534881591797,-15.10262393951416,-12.1307373046875,-43.2891845703125,160.9649658203125
18.609999900000002,-8.820239067077637,-20.523096084594727,-17.448942184448242,-45.8221435546875,-4.3182373046875,67.2760009765625
18.6299999,-8.60236644744873,-25.33065414428711,-19.237411499023438,-59.2803955078125,42.083740234375,-50.933837890625
18.6499999,-8.180987358093262,-27.69133758544922,-19.81680679321289,-46.8902587890625,77.0416259765625,-143.8140869140625
18.6699999,-7.69735860824585,-26.79111671447754,-19.244592666625977,-30.09033203125,79.58984375,-198.8067626953125
18.6899999,-7.357381820678711,-23.068134307861328,-17.721881866455078,-12.115478515625,82.58056640625,-234.0545654296875
18.7099999,-7.309497833251953,-17.67878532409668,-15.871163368225098,0.6103515625,99.761962890625,-268.2037353515625
18.7299999,-7.524975776672363,-11.865663528442383,-14.33169174194336,22.003173828125,113.0218505859375,-293.27392578125
18.749999900000002,-7.785943984985352,-6.469132900238037,-12.739546775817871,58.929443359375,119.68994140625,-309.539794921875
18.769999900000002,-7.922413349151611,-1.8507179021835327,-11.231200218200684,82.70263671875,105.46875,-317.8253173828125
18.7899999,-7.723694801330566,2.2170307636260986,-9.524134635925293,66.7877197265625,91.3543701171875,-319.9615478515625
18.8099999,-7.115567684173584,5.971138954162598,-7.740454196929932,-7.293701171875,93.7347412109375,-302.7496337890625
18.8299999,-6.035782337188721,10.134655952453613,-6.447585105895996,-32.470703125,63.995361328125,-268.2342529296875
18.8499999,-4.572925090789795,14.518439292907715,-5.365406036376953,15.380859375,54.87060546875,-206.085205078125
18.8699999,-2.786850690841675,19.225439071655273,-4.620809078216553,6.866455078125,51.1932373046875,-138.824462890625
18.8899999,-0.8858546018600464,23.795970916748047,-4.067748546600342,-47.698974609375,32.1044921875,-66.680908203125
18.909999900000003,0.751779317855835,27.234045028686523,-3.509899616241455,-22.0794677734375,1.983642578125,33.1573486328125
18.929999900000002,1.98958158493042,29.17574119567871,-2.937685489654541,44.8455810546875,-15.9912109375,118.65234375
18.9499999,2.5091233253479004,28.826189041137695,-2.382230758666992,66.0247802734375,-31.18896484375,181.6253662109375
18.9699999,2.2673089504241943,26.422409057617188,-1.9129672050476074,61.09619140625,-52.459716796875,225.0823974609375
18.9899999,1.278503656387329,22.457611083984375,-2.013523578643799,57.098388671875,-79.40673828125,262.3443603515625
19.0099999,-0.27054479718208313,17.772159576416016,-2.5019407272338867,36.68212890625,-70.892333984375,296.08154296875
19.0299999,-2.142810583114624,12.868834495544434,-3.869029998779297,2.6092529296875,-72.418212890625,317.8558349609375
19.0499999,-4.077325344085693,8.197746276855469,-5.540182590484619,-9.2315673828125,-78.1707763671875,320.3887939453125
19.0699999,-7.184999465942383,-1.3311761617660522,-9.497797966003418,15.9759521484375,-66.46728515625,300.5523681640625
19.089999900000002,-7.869740962982178,-5.4252610206604,-11.08754825592041,-8.6669921875,-39.825439453125,243.408203125
19.109999900000002,-8.063671112060547,-9.5408935546875,-12.583924293518066,-45.8526611328125,-33.355712890625,220.5963134765625
19.1299999,-8.037335395812988,-13.996502876281738,-14.223952293395996,-33.4625244140625,-43.0908203125,204.681396484375
19.1499999,-7.864952564239502,-18.84476089477539,-15.617377281188965,26.4434814453125,0.1678466796875,116.5313720703125
19.1699999,-7.647080421447754,-23.614011764526367,-16.560693740844727,40.252685546875,51.4068603515625,-23.01025390625
19.1899999,-7.271190643310547,-27.1741886138916,-16.551116943359375,-17.608642578125,53.0853271484375,-101.104736328125
19.2099999,-6.62236213684082,-27.928361892700195,-15.354015350341797,-66.34521484375,44.219970703125,-152.923583984375
19.2299999,-5.987898349761963,-25.95314598083496,-13.795390129089355,-35.8428955078125,39.55078125,-198.760986328125
19.249999900000002,-5.564124584197998,-21.87582015991211,-12.327744483947754,13.48876953125,49.25537109375,-243.2708740234375
19.269999900000002,-5.394136428833008,-16.733076095581055,-11.3269681930542,16.5863037109375,54.8858642578125,-270.7366943359375
19.2899999,-5.351040840148926,-11.286267280578613,-10.498574256896973,-2.74658203125,51.7425537109375,-280.3192138671875
19.3099999,-5.2672438621521,-5.995080947875977,-10.299856185913086,22.9644775390625,28.6712646484375,-285.2325439453125
19.3299999,-5.1331682205200195,-1.3694833517074585,-10.362105369567871,112.1978759765625,24.749755859375,-286.346435546875
19.3499999,-4.865017890930176,2.647987127304077,-10.371682167053223,88.9434814453125,54.0618896484375,-283.9813232421875
19.3699999,-4.443638324737549,6.435614109039307,-10.453084945678711,-47.7752685546875,55.999755859375,-270.69091796875
19.3899999,-3.7828385829925537,10.357316970825195,-10.232817649841309,-76.507568359375,33.172607421875,-241.9586181640625
19.409999900000003,-2.940079689025879,14.377181053161621,-9.787496566772461,-11.53564453125,52.1392822265625,-184.600830078125
19.429999900000002,-1.8076223134994507,18.71308135986328,-9.210494041442871,-0.2593994140625,74.5391845703125,-130.1727294921875
19.4499999,-0.6105214357376099,22.41212272644043,-8.307879447937012,-41.168212890625,64.056396484375,-51.5594482421875
19.4699999,0.5171475410461426,25.009830474853516,-6.8809356689453125,-43.2891845703125,36.1175537109375,35.9954833984375
19.4899999,1.3503297567367554,26.036943435668945,-5.2049946784973145,-0.9918212890625,16.0980224609375,105.6671142578125
19.5099999,1.6519991159439087,25.268404006958008,-3.6607344150543213,18.06640625,-5.218505859375,161.0107421875
19.5299999,1.3311761617660522,22.859838485717773,-2.363077163696289,12.63427734375,-26.18408203125,206.4971923828125
19.5499999,0.35673606395721436,19.407398223876953,-1.9488801956176758,15.869140625,-52.3223876953125,236.5264892578125
19.5699999,-1.0127472877502441,15.109807014465332,-2.229001760482788,8.7738037109375,-63.0035400390625,262.20703125
19.589999900000002,-2.5306711196899414,10.802638053894043,-3.404554843902588,-6.0577392578125,-53.802490234375,264.95361328125
19.609999900000002,-3.864241600036621,6.366182327270508,-5.085284233093262,-32.928466796875,-60.36376953125,265.472412109375
19.6299999,-4.63517427444458,2.631227731704712,-6.909666061401367,-33.26416015625,-66.009521484375,253.6468505859375
19.6499999,-4.764461517333984,-0.06703764945268631,-8.252813339233398,-40.5731201171875,-52.55126953125,241.2261962890625
19.6699999,-4.503493309020996,-1.9129672050476074,-9.488221168518066,-88.5162353515625,-59.0667724609375,252.6702880859375
19.6899999,-4.261679172515869,-4.462791919708252,-11.113883972167969,-105.04150390625,-85.5712890625,276.824951171875
19.7099999,-3.9240965843200684,-7.139509677886963,-12.986149787902832,-55.35888671875,-63.8580322265625,211.761474609375
19.7299999,-3.8379054069519043,-11.906365394592285,-15.121777534484863,-55.9539794921875,-4.8980712890625,148.1475830078125
19.749999900000002,-3.7876269817352295,-17.480066299438477,-17.3795108795166,-112.945556640625,-1.3580322265625,95.611572265625
19.769999900000002,-3.780444383621216,-22.409727096557617,-18.696321487426758,-118.3624267578125,21.9268798828125,-24.47509765625
19.7899999,-3.890577793121338,-25.359384536743164,-19.115306854248047,-59.9212646484375,51.8951416015625,-129.45556640625
19.8099999,-4.120420932769775,-25.280376434326172,-18.48084259033203,-15.2130126953125,75.592041015625,-178.4515380859375
19.8299999,-4.376600742340088,-22.16791343688965,-16.931795120239258,-25.787353515625,72.0672607421875,-199.2340087890625
19.8499999,-4.608838081359863,-16.8839111328125,-15.057134628295898,-0.274658203125,62.835693359375,-225.9521484375
19.8699999,-4.778826713562012,-11.097125053405762,-13.199234008789062,91.583251953125,55.9844970703125,-247.0703125
19.8899999,-4.857835292816162,-5.7125654220581055,-11.458649635314941,142.8070068359375,59.783935546875,-248.809814453125
19.909999900000003,-4.750096321105957,-0.9385270476341248,-9.706093788146973,85.9832763671875,48.8433837890625,-250.3509521484375
19.929999900000002,-4.369418144226074,3.56017804145813,-8.379706382751465,1.52587890625,15.1214599609375,-248.10791015625
19.9499999,-3.732560396194458,7.977479934692383,-7.417236804962158,16.29638671875,1.9378662109375,-212.09716796875
19.9699999,-2.7293899059295654,12.806585311889648,-7.115567684173584,61.5386962890625,16.387939453125,-153.106689453125
19.9899999,-1.5298948287963867,17.01080322265625,-7.223306655883789,41.168212890625,15.13671875,-81.298828125
20.0099999,-0.304063618183136,19.843143463134766,-7.445967197418213,4.3792724609375,-3.082275390625,-16.05224609375
20.0299999,0.7733271718025208,20.53506851196289,-7.6566572189331055,25.1312255859375,-6.4544677734375,22.735595703125
20.0499999,1.556231141090393,18.933347702026367,-7.759607791900635,63.995361328125,6.3323974609375,50.4608154296875
20.0699999,2.070984363555908,15.713146209716797,-7.750030994415283,58.3953857421875,5.92041015625,68.115234375
20.089999900000002,2.367865562438965,11.614272117614746,-7.558494567871094,21.0723876953125,-4.7607421875,77.6519775390625
20.109999900000002,2.5043349266052246,7.4986395835876465,-7.273584842681885,-5.06591796875,-7.049560546875,80.9478759765625
20.1299999,2.5330653190612793,3.995922565460205,-7.319074630737305,-4.486083984375,-10.5743408203125,77.7130126953125
20.1499999,2.4851813316345215,1.3910311460494995,-7.575253963470459,11.688232421875,-10.1165771484375,77.1484375
20.1699999,2.3989901542663574,-0.3519476354122162,-8.063671112060547,9.3994140625,-13.885498046875,77.056884765625
