# Time (seconds),Accel_X,Accel_Y,Accel_Z,Gyro_X,Gyro_Y,Gyro_Z
0.0099999,2.0853497982025146,-0.7469909191131592,-10.307038307189941,-7.75146484375,0.5035400390625,-38.8336181640625
0.029999900000000003,2.2026655673980713,-0.07661445438861847,-10.321403503417969,-11.322021484375,-3.448486328125,-36.7889404296875
0.0499999,2.233790159225464,0.7326257228851318,-10.290278434753418,-8.30078125,-7.26318359375,-27.6336669921875
0.0699999,2.1332337856292725,1.4987702369689941,-10.280701637268066,-6.2103271484375,-6.7596435546875,-15.350341796875
0.08999990000000001,1.8986018896102905,2.1356279850006104,-10.319009780883789,0.8087158203125,-5.67626953125,-12.5732421875
0.10999990000000001,1.50355863571167,2.6575639247894287,-10.400412559509277,16.7388916015625,-5.5999755859375,-12.359619140625
0.1299999,1.01753568649292,3.0813376903533936,-10.587160110473633,20.7061767578125,-7.232666015625,1.1138916015625
0.14999990000000002,0.45250412821769714,3.4739866256713867,-10.76193618774414,5.1422119140625,0.30517578125,18.5699462890625
0.1699999,-0.06224924325942993,3.825934410095215,-10.888829231262207,-4.8980712890625,10.0250244140625,27.099609375
0.1899999,-0.47405192255973816,4.027047157287598,-10.879252433776855,5.5084228515625,7.843017578125,33.0810546875
0.20999990000000002,-0.8092401623725891,4.077325344085693,-10.563218116760254,33.5235595703125,7.8277587890625,44.677734375
0.2299999,-1.036689281463623,4.0533833503723145,-10.165780067443848,32.4249267578125,0.762939453125,52.06298828125
0.2499999,-1.2330138683319092,4.041412353515625,-9.72285270690918,-1.556396484375,-0.8544921875,54.4891357421875
0.2699999,-1.4197616577148438,3.955221176147461,-9.466673851013184,-16.4031982421875,-0.579833984375,61.737060546875
0.28999990000000003,-1.6280571222305298,3.821146011352539,-9.387664794921875,3.84521484375,1.2969970703125,70.4345703125
0.3099999,-1.845929503440857,3.620033025741577,-9.41639518737793,20.69091796875,4.8828125,70.4193115234375
0.3299999,-2.1164743900299072,3.292027235031128,-9.366117477416992,17.02880859375,6.988525390625,70.4193115234375
0.34999990000000003,-2.410961151123047,2.8586769104003906,-9.277531623840332,0.518798828125,4.8828125,75.6378173828125
0.3699999,-2.741360902786255,2.3127987384796143,-9.097966194152832,-5.706787109375,4.6234130859375,77.2705078125
0.3899999,-3.0765492916107178,1.6687586307525635,-8.966285705566406,6.53076171875,5.0506591796875,69.8699951171875
0.40999990000000003,-3.469198226928711,-0.009576806798577309,-8.757989883422852,11.2762451171875,1.1138916015625,59.1888427734375
0.4299999,-3.421314239501953,-0.8355764150619507,-8.56645393371582,-4.486083984375,2.25830078125,48.7060546875
0.4499999,-3.2082302570343018,-1.577778935432434,-8.367734909057617,-17.08984375,-2.01416015625,40.6341552734375
0.4699999,-2.9089550971984863,-2.2170307636260986,-8.1139497756958,-21.9268798828125,-10.31494140625,36.590576171875
0.4899999,-2.537853717803955,-2.5905263423919678,-8.068459510803223,-13.24462890625,-21.1181640625,26.3214111328125
0.5099999,-2.1499931812286377,-2.8347349166870117,-8.22887134552002,-6.0882568359375,-20.050048828125,20.3399658203125
0.5299999,-1.7357962131500244,-2.8850131034851074,-8.628703117370605,-9.002685546875,-9.2620849609375,15.838623046875
0.5499999,-1.292868971824646,-2.8634653091430664,-9.169792175292969,-14.0380859375,-7.7972412109375,9.490966796875
0.5699999,-0.8930372595787048,-2.715024709701538,-9.66539192199707,-7.781982421875,-6.28662109375,-2.3651123046875
0.5899998999999999,-0.5530605912208557,-2.5282769203186035,-10.053253173828125,8.941650390625,-4.7454833984375,-8.697509765625
0.6099998999999999,-0.24420857429504395,-2.3343467712402344,-10.295066833496094,12.9241943359375,-5.1422119140625,-7.99560546875
0.6299999,-0.009576806798577309,-2.319981336593628,-10.35252857208252,-9.002685546875,-4.1046142578125,-9.58251953125
0.6499999,0.14844051003456116,-2.3942017555236816,-10.395624160766602,-30.181884765625,-5.3253173828125,-23.86474609375
0.6699999,0.22266076505184174,-2.403778553009033,-10.402806282043457,-12.237548828125,-6.28662109375,-43.6248779296875
0.6899999,0.20350714027881622,-2.188300371170044,-10.469843864440918,6.3018798828125,-3.7994384765625,-44.0216064453125
0.7099999,0.13168109953403473,-1.7070658206939697,-10.491392135620117,0.67138671875,-0.8697509765625,-36.895751953125
0.7299998999999999,0.07661445438861847,-1.2234370708465576,-10.486603736877441,-14.46533203125,-1.373291015625,-34.3475341796875
0.7499998999999999,0.07182604819536209,-0.8858546018600464,-10.402806282043457,-11.5966796875,0.06103515625,-41.717529296875
0.7699999,0.1149216815829277,-0.7086837291717529,-10.292673110961914,-0.7171630859375,4.302978515625,-50.3082275390625
0.7899999,0.2585737705230713,-0.6512228846549988,-10.153809547424316,0.823974609375,4.45556640625,-48.64501953125
0.8099999,0.45010992884635925,-0.7541735172271729,-9.986215591430664,-13.5955810546875,0.42724609375,-44.586181640625
0.8299999,0.6440402865409851,-0.9481038451194763,-9.763554573059082,-26.2603759765625,0.457763671875,-53.985595703125
0.8499998999999999,0.811634361743927,-1.139639973640442,-9.718064308166504,-15.2130126953125,-6.2408447265625,-69.915771484375
0.8699998999999999,0.9241618514060974,-1.1468225717544556,-9.823410034179688,4.0130615234375,-6.8359375,-73.028564453125
0.8899999,1.0007762908935547,-0.8547300100326538,-10.074800491333008,-3.47900390625,-0.6103515625,-66.22314453125
0.9099999,1.0821791887283325,-0.4572925269603729,-10.400412559509277,-21.240234375,4.486083984375,-60.516357421875
0.9299999,1.137245774269104,-0.023942016065120697,-10.579977035522461,-20.7977294921875,8.8958740234375,-65.2923583984375
0.9499999,1.1851298809051514,0.3974374830722809,-10.685321807861328,-4.6844482421875,8.4991455078125,-71.2890625
0.9699998999999999,1.1971008777618408,0.912190854549408,-10.654197692871094,3.3416748046875,6.988525390625,-68.7713623046875
0.9899998999999999,1.2090718746185303,1.4101848602294922,-10.620678901672363,-7.75146484375,9.4757080078125,-55.023193359375
1.0099999,1.2306196689605713,1.8746598958969116,-10.54645824432373,-26.275634765625,14.129638671875,-49.4842529296875
1.0299999,1.259350061416626,2.1811177730560303,-10.47942066192627,-36.19384765625,17.4102783203125,-49.86572265625
1.0499999,1.3024457693099976,2.408566951751709,-10.362105369567871,-28.4423828125,18.0511474609375,-49.591064453125
1.0699999,1.3407529592514038,2.626439332962036,-10.256759643554688,-13.0462646484375,14.9383544921875,-41.9158935546875
1.0899999,1.3670891523361206,2.8371291160583496,-10.163386344909668,-15.838623046875,14.1143798828125,-32.53173828125
1.1099999,1.3910311460494995,3.1052796840667725,-10.019734382629395,-27.435302734375,17.8070068359375,-29.541015625
1.1299999,1.436521053314209,3.423708438873291,-9.876082420349121,-26.1077880859375,15.167236328125,-26.2908935546875
1.1499999,1.4724340438842773,3.8498764038085938,-9.586383819580078,-9.5062255859375,10.7421875,-14.5416259765625
1.1699998999999999,1.4437036514282227,4.333505153656006,-9.32302188873291,12.0697021484375,3.0975341796875,0.6561279296875
1.1899998999999999,1.3239935636520386,4.699818134307861,-9.224859237670898,9.3231201171875,-3.387451171875,12.87841796875
1.2099999,1.0965443849563599,4.929661273956299,-9.294290542602539,-0.8544921875,3.0364990234375,17.9290771484375
1.2299999,0.7996633648872375,5.082890033721924,-9.536105155944824,7.5836181640625,7.598876953125,23.9715576171875
1.2499999,0.4620809257030487,5.097255229949951,-9.682151794433594,21.42333984375,8.6212158203125,40.0848388671875
1.2699999,0.12210428714752197,5.056553840637207,-9.761159896850586,1.5869140625,3.7841796875,52.703857421875
1.2899999,-0.24420857429504395,4.786009311676025,-9.720458984375,-32.6690673828125,4.7149658203125,55.7403564453125
1.3099999,-0.6416460275650024,4.398148536682129,-9.552865028381348,-24.7955322265625,11.871337890625,55.1910400390625
1.3299999,-1.0271124839782715,4.000710964202881,-9.306262016296387,0.762939453125,5.1422119140625,56.7169189453125
1.3499999,-1.3670891523361206,3.773261785507202,-9.30386734008789,-13.6260986328125,-12.420654296875,64.453125
1.3699999,-1.6711528301239014,3.8283286094665527,-9.105149269104004,-53.5736083984375,3.1890869140625,69.5037841796875
1.3899999,-1.944091796875,3.950432777404785,-9.157821655273438,-70.5108642578125,12.1307373046875,79.40673828125
1.4099999,-2.2026655673980713,3.8522706031799316,-9.05487060546875,-26.85546875,-7.62939453125,84.197998046875
1.4299998999999999,-2.4444799423217773,3.620033025741577,-8.882488250732422,28.3660888671875,-23.86474609375,70.2362060546875
1.4499999,-2.6144683361053467,3.2561142444610596,-8.71728801727295,42.4041748046875,-28.900146484375,57.7850341796875
1.4699999,-2.655169725418091,3.047818660736084,-8.643068313598633,10.4217529296875,-20.6146240234375,62.3321533203125
1.4899999,-2.5977089405059814,3.0573954582214355,-8.609549522399902,-6.9122314453125,-13.9923095703125,72.296142578125
1.5099999,-2.535459518432617,3.1004912853240967,-8.580819129943848,12.7105712890625,-19.866943359375,77.4078369140625
1.5299999,-2.4899697303771973,2.9233202934265137,-8.609549522399902,36.9415283203125,-29.815673828125,75.5462646484375
1.5499999,-2.5306711196899414,2.4133553504943848,-8.710105895996094,36.31591796875,-26.458740234375,71.4874267578125
1.5699999,-2.5905263423919678,1.6041151285171509,-8.96389102935791,24.4140625,-18.798828125,66.864013671875
1.5899999,-2.63362193107605,0.706289529800415,-9.255983352661133,23.9410400390625,-15.594482421875,58.16650390625
1.6099999,-2.6168625354766846,-0.1628057211637497,-9.493009567260742,27.4658203125,-16.387939453125,48.828125
1.6299999,-2.5019407272338867,-0.8834604024887085,-9.713275909423828,27.3895263671875,-17.333984375,44.3267822265625
1.6499999,-2.341529369354248,-1.4077905416488647,-9.813833236694336,27.069091796875,-12.20703125,38.87939453125
1.6699999,-2.1068975925445557,-1.6160861253738403,-9.86889934539795,27.587890625,-6.4544677734375,27.8472900390625
1.6899998999999999,-1.8291701078414917,-1.6352397203445435,-9.852140426635742,26.0162353515625,-8.575439453125,25.360107421875
1.7099999,-1.5610195398330688,-1.6041151285171509,-9.770736694335938,24.0478515625,-8.4991455078125,30.94482421875
1.7299999,-1.3072341680526733,-1.534683346748352,-9.78989028930664,24.0936279296875,-7.720947265625,23.712158203125
1.7499999,-1.0630255937576294,-1.6615760326385498,-9.828198432922363,26.7333984375,-2.9754638671875,12.75634765625
1.7699999,-0.849941611289978,-1.745373010635376,-9.888052940368652,12.847900390625,1.6937255859375,5.340576171875
1.7899999,-0.6440402865409851,-1.9081788063049316,-9.885659217834473,1.434326171875,1.2359619140625,4.791259765625
1.8099999,-0.48602294921875,-2.1045033931732178,-9.849745750427246,3.3416748046875,-2.349853515625,0.4119873046875
1.8299999,-0.363918662071228,-2.2888567447662354,-9.823410034179688,7.14111328125,-1.15966796875,-15.19775390625
1.8499999,-0.26575639843940735,-2.451662540435791,-9.804255485534668,-5.0201416015625,1.28173828125,-28.1829833984375
1.8699999,-0.1843535304069519,-2.513911724090576,-9.794678688049316,-26.2908935546875,2.899169921875,-28.717041015625
1.8899999,-0.11252748221158981,-2.410961151123047,-9.703699111938477,-35.5224609375,1.220703125,-34.48486328125
1.9099999,-0.08619125932455063,-2.1930887699127197,-9.627084732055664,-25.6195068359375,-4.0740966796875,-46.4324951171875
1.9299998999999999,-0.033518824726343155,-1.3287819623947144,-9.864110946655273,-16.9677734375,-3.387451171875,-52.9937744140625
1.9499999,0.038307227194309235,-0.7805097699165344,-10.156203269958496,-29.72412109375,4.7454833984375,-50.628662109375
1.9699999,0.1628057211637497,-0.304063618183136,-10.376470565795898,-28.3660888671875,6.3323974609375,-54.87060546875
1.9899999,0.30885201692581177,-0.0454898327589035,-10.467450141906738,-11.7034912109375,3.753662109375,-58.65478515625
2.0099999,0.4596867263317108,0.05985504388809204,-10.512939453125,-8.8653564453125,-1.0528564453125,-61.126708984375
2.0299999,0.6200982332229614,0.031124621629714966,-10.572794914245605,-21.97265625,4.119873046875,-63.507080078125
2.0499999,0.7613561153411865,-0.0071826050989329815,-10.721235275268555,-32.65380859375,10.3302001953125,-69.51904296875
2.0699999,0.8547300100326538,0.0454898327589035,-10.922348022460938,-37.261962890625,15.1214599609375,-73.638916015625
2.0899999,0.9097966551780701,0.22266076505184174,-11.073183059692383,-32.6995849609375,18.73779296875,-72.9827880859375
2.1099999,0.933738648891449,0.6129156351089478,-11.075576782226562,-22.76611328125,20.8740234375,-75.0274658203125
2.1299999,0.9648633003234863,1.139639973640442,-10.972626686096191,-9.796142578125,20.7977294921875,-74.6917724609375
2.1499999,0.9983820915222168,1.7286136150360107,-10.711658477783203,-2.655029296875,21.42333984375,-67.93212890625
2.1699999,1.0654197931289673,2.233790159225464,-10.405200958251953,-3.96728515625,22.15576171875,-58.9599609375
2.1899999,1.1468225717544556,2.6001031398773193,-10.041281700134277,-9.4146728515625,21.5911865234375,-55.60302734375
2.2099999,1.2617442607879639,2.9520506858825684,-9.713275909423828,-4.08935546875,18.6767578125,-56.5032958984375
2.2299999,1.400607943534851,3.35667085647583,-9.435548782348633,4.5928955078125,15.6097412109375,-47.18017578125
2.2499999,1.5275006294250488,3.8570590019226074,-9.313444137573242,-13.4124755859375,15.838623046875,-28.0303955078125
2.2699999,1.5945383310317993,4.264073371887207,-9.287108421325684,-39.4134521484375,21.4080810546875,-11.7950439453125
2.2899999,1.5658079385757446,4.414907932281494,-9.296685218811035,-37.139892578125,22.3846435546875,-7.7362060546875
2.3099999,1.4437036514282227,4.259284973144531,-9.289502143859863,-12.603759765625,14.801025390625,-7.8887939453125
2.3299999,1.290474772453308,4.062960147857666,-9.246406555175781,-5.06591796875,7.415771484375,-7.9345703125
2.3499999,1.1085153818130493,3.957615375518799,-9.17697525024414,-16.66259765625,8.575439453125,0.9002685546875
2.3699999,0.9313444495201111,4.010287761688232,-9.232041358947754,-18.5546875,8.6212158203125,13.36669921875
2.3899999,0.7493851184844971,4.182670593261719,-9.327810287475586,-3.021240234375,6.3629150390625,17.791748046875
2.4099999,0.5554547905921936,4.343081951141357,-9.423578262329102,16.66259765625,3.692626953125,20.4315185546875
2.4299999,0.37828385829925537,4.575319290161133,-9.497797966003418,18.096923828125,-0.4730224609375,25.5279541015625
2.4499999,0.19632454216480255,4.738125324249268,-9.428366661071777,-1.190185546875,1.708984375,39.55078125
2.4699999,0.028730420395731926,4.841075897216797,-9.227252960205078,-6.8817138671875,1.5411376953125,50.201416015625
2.4899999,-0.15322890877723694,4.850652694702148,-8.968679428100586,10.8795166015625,-9.246826171875,49.7283935546875
2.5099999,-0.3471592366695404,4.795586109161377,-8.705317497253418,28.9306640625,-19.6685791015625,49.9420166015625
2.5299999,-0.5291185975074768,4.778826713562012,-8.5903959274292,11.8865966796875,-22.64404296875,57.7545166015625
2.5499999,-0.768538773059845,4.8722004890441895,-8.559270858764648,-7.38525390625,-16.815185546875,68.9849853515625
2.5699999,-1.0295066833496094,4.829104900360107,-8.650250434875488,15.07568359375,-22.8424072265625,80.38330078125
2.5899999,-1.3239935636520386,4.675876140594482,-8.69095230102539,38.116455078125,-30.8380126953125,80.7037353515625
2.6099999,-1.6424223184585571,4.369418144226074,-8.772355079650879,23.0255126953125,-29.7088623046875,78.4912109375
2.6299999,-1.9728221893310547,3.885789394378662,-8.796297073364258,-6.988525390625,-22.4609375,86.5631103515625
2.6499999,-2.293645143508911,3.375824451446533,-8.813055992126465,-12.6495361328125,-20.5078125,89.4012451171875
2.6699999,-2.626439332962036,2.7269957065582275,-8.736441612243652,6.1187744140625,-24.96337890625,84.6099853515625
2.6899999,-2.9281086921691895,2.051830768585205,-8.698134422302246,13.6871337890625,-30.1971435546875,73.7152099609375
2.7099999,-3.155557870864868,1.3862427473068237,-8.643068313598633,0,-24.84130859375,67.19970703125
2.7299999,-3.292027235031128,0.828393816947937,-8.667010307312012,-17.2576904296875,-17.791748046875,64.5751953125
2.7499999,-3.332728862762451,0.22026655077934265,-8.777143478393555,-10.80322265625,-23.284912109375,62.01171875
2.7699999,-3.272873640060425,-0.33518823981285095,-8.927978515625,5.8135986328125,-26.3519287109375,43.8690185546875
2.7899999,-3.160346269607544,-0.8355764150619507,-9.191340446472168,9.979248046875,-24.5819091796875,27.64892578125
2.8099999,-3.004723072052002,-1.2282254695892334,-9.548076629638672,5.2642822265625,-20.263671875,24.0936279296875
2.8299999,-2.827552318572998,-1.3335703611373901,-9.938331604003906,-5.8441162109375,-13.1072998046875,17.242431640625
2.8499999,-2.609679937362671,-1.3000515699386597,-10.220847129821777,-5.6915283203125,-6.8511962890625,9.3231201171875
2.8699999,-2.3774423599243164,-1.1180921792984009,-10.369287490844727,-0.18310546875,-6.927490234375,1.8768310546875
2.8899999,-2.121262788772583,-0.7781155705451965,-10.357316970825195,11.0931396484375,-6.6680908203125,-3.2958984375
2.9099999,-1.8076223134994507,-0.4884171485900879,-10.333374977111816,19.59228515625,-7.2021484375,0.8392333984375
2.9299999,-1.5275006294250488,-0.3711012601852417,-10.20887565612793,10.1318359375,0.91552734375,2.838134765625
2.9499999,-1.2880805730819702,-0.5147533416748047,-10.14902114868164,-5.340576171875,2.9144287109375,-7.568359375
2.9699999,-1.091755986213684,-0.9241618514060974,-10.046070098876953,-4.2572021484375,-2.74658203125,-21.42333984375
2.9899999,-0.9050082564353943,-1.3694833517074585,-9.99100399017334,1.007080078125,-4.1351318359375,-31.5399169921875
3.0099999,-0.7326257228851318,-1.6352397203445435,-10.031704902648926,-0.0457763671875,-5.18798828125,-40.3289794921875
3.0299999,-0.5674257874488831,-1.5634137392044067,-10.18493366241455,-6.8511962890625,-0.5340576171875,-48.583984375
3.0499999,-0.45489832758903503,-1.2737152576446533,-10.426748275756836,-12.5274658203125,2.349853515625,-49.3316650390625
3.0699999,-0.38307225704193115,-0.8188169598579407,-10.642226219177246,-10.772705078125,7.9345703125,-50.1556396484375
3.0899999,-0.3232172429561615,-0.3519476354122162,-10.819397926330566,-8.9569091796875,9.21630859375,-55.35888671875
3.1099999,-0.21787235140800476,0.1149216815829277,-10.917559623718262,-4.547119140625,9.368896484375,-60.2569580078125
3.1299999,-0.10055647045373917,0.5051765441894531,-10.951078414916992,-3.2958984375,11.3525390625,-56.8389892578125
3.1499999,0.009576806798577309,0.7565677165985107,-10.958261489868164,-2.25830078125,14.7552490234375,-50.567626953125
3.1699999,0.1149216815829277,0.7972691655158997,-10.819397926330566,-1.40380859375,19.3328857421875,-52.459716796875
3.1899999,0.2322375625371933,0.5578489899635315,-10.613495826721191,-6.195068359375,17.7459716796875,-59.2498779296875
3.2099999,0.3878606855869293,0.3447650372982025,-10.295066833496094,-6.378173828125,15.68603515625,-69.915771484375
3.2299999,0.5410895943641663,0.2059013396501541,-10.029311180114746,-8.0108642578125,14.46533203125,-69.4427490234375
3.2499999,0.6560112833976746,0.1628057211637497,-9.86650562286377,-15.80810546875,17.0745849609375,-62.957763671875
3.2699999,0.7445967197418213,0.3878606855869293,-9.854534149169922,-17.1356201171875,16.815185546875,-71.685791015625
3.2899999,0.8092401623725891,0.7230489253997803,-9.938331604003906,-3.3721923828125,16.5863037109375,-80.50537109375
3.3099999,0.8643068075180054,1.2545616626739502,-10.036493301391602,1.007080078125,17.76123046875,-74.0814208984375
3.3299999000000002,0.9385270476341248,1.8962076902389526,-10.101137161254883,-6.3629150390625,20.111083984375,-63.41552734375
3.3499999,1.0127472877502441,2.4636335372924805,-10.122684478759766,-15.380859375,19.1192626953125,-57.9833984375
3.3699999,1.0989385843276978,2.983175277709961,-10.096348762512207,-6.4697265625,17.5323486328125,-60.882568359375
3.3899999,1.1468225717544556,3.318363666534424,-10.079588890075684,7.62939453125,16.5557861328125,-52.5665283203125
3.4099999,1.1204863786697388,3.49314022064209,-10.122684478759766,1.8310546875,16.1285400390625,-39.7491455078125
3.4299999,1.01753568649292,3.512293815612793,-10.213664054870605,-16.7236328125,20.5078125,-38.02490234375
3.4499999,0.7541735172271729,3.4979286193847656,-10.304644584655762,0.396728515625,21.6827392578125,-38.604736328125
3.4699999,0.7374141216278076,3.6511576175689697,-10.125079154968262,13.427734375,18.3258056640625,-23.223876953125
3.4899999,0.8188169598579407,3.9839515686035156,-9.86650562286377,8.148193359375,13.24462890625,-14.373779296875
3.5099999,0.9145850539207458,4.292803764343262,-9.459490776062012,-4.8370361328125,13.397216796875,-7.781982421875
3.5299999,0.9840168952941895,4.570530891418457,-9.215282440185547,2.3345947265625,5.096435546875,0.640869140625
3.5499999,0.9409212470054626,4.778826713562012,-8.992621421813965,33.0657958984375,-1.983642578125,10.7421875
3.5699999,0.7637503147125244,4.946420669555664,-9.066842079162598,41.9921875,-6.134033203125,19.3939208984375
3.5899999,0.4836287498474121,5.080495834350586,-9.229647636413574,14.373779296875,-1.0528564453125,29.4189453125
3.6099999,0.10055647045373917,5.102043628692627,-9.44991397857666,-4.6539306640625,6.317138671875,43.5028076171875
3.6299999,-0.33758243918418884,5.037400245666504,-9.5624418258667,13.4124755859375,3.4637451171875,54.5806884765625
3.6499999,-0.7948749661445618,4.975151062011719,-9.59835433959961,28.6407470703125,-6.256103515625,56.4117431640625
3.6699999,-1.235408067703247,4.841075897216797,-9.490615844726562,1.52587890625,-2.1820068359375,66.34521484375
3.6899999,-1.656787633895874,4.699818134307861,-9.327810287475586,-40.3289794921875,5.1422119140625,78.6285400390625
3.7099999,-2.0661959648132324,4.436455726623535,-9.035717010498047,-38.421630859375,2.685546875,84.4573974609375
3.7299999,-2.4205379486083984,4.072536945343018,-8.712499618530273,1.2054443359375,-14.373779296875,78.857421875
3.7499999,-2.741360902786255,3.7205893993377686,-8.389283180236816,14.312744140625,-25.0244140625,72.20458984375
3.7699999,-2.999934673309326,3.3734302520751953,-8.283937454223633,-11.383056640625,-20.4620361328125,79.5745849609375
3.7899999,-3.19865345954895,3.1507694721221924,-8.303091049194336,-34.7747802734375,-10.498046875,84.28955078125
3.8099999,-3.3423056602478027,2.868253707885742,-8.44195556640625,-21.514892578125,-11.7340087890625,78.9031982421875
3.8299999000000002,-3.421314239501953,2.5761611461639404,-8.523358345031738,4.7149658203125,-17.822265625,69.488525390625
3.8499999,-3.404554843902588,2.300827741622925,-8.56884765625,13.85498046875,-19.3939208984375,67.0013427734375
3.8699999,-3.3039982318878174,2.049436569213867,-8.5903959274292,6.2103271484375,-16.326904296875,72.540283203125
3.8899999,-3.157952070236206,1.6974890232086182,-8.667010307312012,6.40869140625,-14.5111083984375,75.1800537109375
3.9099999,-2.999934673309326,1.1827356815338135,-8.757989883422852,16.54052734375,-15.7318115234375,66.070556640625
3.9299999,-2.8562827110290527,0.5291185975074768,-8.868123054504395,14.6484375,-14.0228271484375,55.938720703125
3.9499999,-2.741360902786255,-0.16998831927776337,-8.96149730682373,-2.197265625,-12.3443603515625,53.6651611328125
3.9699999,-2.6144683361053467,-0.8020575642585754,-8.98543930053711,-11.5509033203125,-10.2386474609375,50.9796142578125
3.9899999,-2.43011474609375,-1.37906014919281,-8.968679428100586,-13.3819580078125,-14.8162841796875,41.56494140625
4.0099999,-2.2002713680267334,-1.9560627937316895,-8.932766914367676,-16.4642333984375,-18.7530517578125,28.0303955078125
4.029999900000001,-1.9153614044189453,-2.2888567447662354,-8.999804496765137,-19.53125,-23.49853515625,10.2081298828125
4.0499999,-1.6184803247451782,-2.1164743900299072,-9.23443603515625,-9.5672607421875,-24.7802734375,-5.55419921875
4.069999900000001,-1.335964560508728,-1.4389152526855469,-9.691728591918945,3.0364990234375,-23.6358642578125,-1.739501953125
4.0899999000000005,-1.0965443849563599,-0.45489832758903503,-10.192116737365723,-1.007080078125,-14.7857666015625,11.4288330078125
4.1099999,-0.9552865028381348,0.31124621629714966,-10.632649421691895,-11.7645263671875,-5.2947998046875,14.9078369140625
4.1299999000000005,-0.9385270476341248,0.6919242739677429,-10.833763122558594,-8.5296630859375,-4.1961669921875,3.3721923828125
4.1499999,-0.9888052940368652,0.5506663918495178,-10.836156845092773,4.791259765625,-6.77490234375,-7.5225830078125
4.1699999000000005,-1.0797849893569946,0.1867477297782898,-10.630255699157715,-1.2359619140625,-2.960205078125,-9.7198486328125
4.1899999,-1.1444283723831177,-0.33997663855552673,-10.436325073242188,-24.47509765625,1.800537109375,-13.7786865234375
4.209999900000001,-1.1492167711257935,-0.7565677165985107,-10.220847129821777,-21.514892578125,3.8604736328125,-27.740478515625
4.2299999,-1.0630255937576294,-0.9528923034667969,-10.134655952453613,2.3040771484375,0.274658203125,-43.64013671875
4.249999900000001,-0.9169792532920837,-0.849941611289978,-10.093954086303711,5.7373046875,0.9002685546875,-42.0074462890625
4.2699999,-0.6871358752250671,-0.5291185975074768,-10.146626472473145,-10.0250244140625,4.57763671875,-36.6973876953125
4.289999900000001,-0.3998316824436188,-0.28730419278144836,-10.189722061157227,-9.0484619140625,4.8980712890625,-39.0167236328125
4.3099999,-0.090979665517807,-0.14604631066322327,-10.347740173339844,3.35693359375,-0.4119873046875,-51.69677734375
4.329999900000001,0.18914192914962769,-0.14604631066322327,-10.572794914245605,0.152587890625,1.800537109375,-59.2803955078125
4.3499999,0.43095630407333374,-0.19153612852096558,-10.879252433776855,-11.199951171875,11.9476318359375,-56.0760498046875
4.369999900000001,0.6392518281936646,-0.1867477297782898,-11.21204662322998,-18.707275390625,18.3868408203125,-60.3790283203125
4.3899999,0.8140285611152649,0.07661445438861847,-11.468226432800293,-3.2196044921875,18.9971923828125,-76.141357421875
4.409999900000001,0.9840168952941895,0.4836287498474121,-11.580753326416016,12.8326416015625,21.8048095703125,-73.8525390625
4.4299999,1.1276689767837524,1.036689281463623,-11.537657737731934,-4.6234130859375,28.3966064453125,-61.7218017578125
4.449999900000001,1.1994950771331787,1.4484920501708984,-11.341333389282227,-25.970458984375,36.0870361328125,-57.1746826171875
4.4699999,1.1492167711257935,1.6089035272598267,-10.991780281066895,-35.5987548828125,38.57421875,-67.3370361328125
4.489999900000001,1.0319008827209473,1.6160861253738403,-10.577583312988281,-24.7344970703125,37.78076171875,-78.79638671875
4.5099999,0.9600749015808105,1.9081788063049316,-10.110713958740234,-8.941650390625,33.538818359375,-84.8541259765625
4.529999900000001,0.993593692779541,2.473210334777832,-9.703699111938477,-12.7105712890625,30.1666259765625,-71.96044921875
4.5499999,1.158793568611145,3.2345664501190186,-9.334992408752441,-33.0047607421875,31.646728515625,-55.60302734375
4.569999900000001,1.3527239561080933,3.861847400665283,-9.045293807983398,-49.0264892578125,31.707763671875,-47.9278564453125
4.5899999000000005,1.4987702369689941,4.244919776916504,-8.868123054504395,-46.600341796875,25.45166015625,-48.553466796875
4.609999900000001,1.5442601442337036,4.565742492675781,-8.789113998413086,-24.3072509765625,17.425537109375,-48.919677734375
4.6299999000000005,1.5203180313110352,4.920084476470947,-8.791508674621582,-6.9580078125,11.8865966796875,-36.6363525390625
4.6499999,1.4221558570861816,5.418078422546387,-8.899248123168945,-9.2620849609375,10.3607177734375,-17.9595947265625
4.6699999000000005,1.2545616626739502,5.875370979309082,-9.136273384094238,-17.5323486328125,9.1400146484375,-3.2501220703125
4.6899999,1.0127472877502441,6.09324312210083,-9.423578262329102,1.4801025390625,9.490966796875,5.1422119140625
4.709999900000001,0.7086837291717529,6.035782337188721,-9.651026725769043,35.797119140625,7.3394775390625,5.43212890625
4.7299999,0.3998316824436188,5.858611583709717,-9.895236015319824,52.1087646484375,-3.2958984375,4.669189453125
4.749999900000001,0.11971008777618408,5.803544998168945,-9.928754806518555,31.890869140625,-0.3814697265625,12.054443359375
4.7699999,-0.12449848651885986,5.841852188110352,-9.885659217834473,3.47900390625,8.85009765625,33.416748046875
4.789999900000001,-0.36152446269989014,5.861005783081055,-9.651026725769043,9.94873046875,6.927490234375,49.8046875
4.8099999,-0.5985504388809204,5.851428985595703,-9.313444137573242,37.3992919921875,-5.523681640625,45.5780029296875
4.829999900000001,-0.8427590131759644,5.748478412628174,-8.884882926940918,40.4052734375,-12.5885009765625,46.7376708984375
4.8499999,-1.1204863786697388,5.722142219543457,-8.604761123657227,-7.26318359375,-8.7432861328125,63.385009765625
4.869999900000001,-1.436521053314209,5.5976433753967285,-8.360552787780762,-19.012451171875,-3.47900390625,82.6568603515625
4.8899999,-1.7549498081207275,5.420472621917725,-8.243236541748047,13.336181640625,-11.962890625,81.207275390625
4.909999900000001,-2.1045033931732178,5.008669853210449,-8.106766700744629,32.6385498046875,-23.529052734375,72.7996826171875
4.9299999,-2.403778553009033,4.5825018882751465,-8.068459510803223,28.4576416015625,-25.45166015625,75.5157470703125
4.949999900000001,-2.676717519760132,4.120420932769775,-8.109161376953125,6.6375732421875,-20.4620361328125,85.44921875
4.9699999,-3.112462282180786,3.1747114658355713,-8.40843677520752,9.09423828125,-16.9830322265625,76.2786865234375
4.989999900000001,-3.246537446975708,2.7461493015289307,-8.53532886505127,21.697998046875,-19.0887451171875,71.563720703125
5.0099999,-3.3063924312591553,2.43011474609375,-8.647856712341309,12.9547119140625,-14.8773193359375,78.2318115234375
5.029999900000001,-3.3207578659057617,2.1092917919158936,-8.741230010986328,0.823974609375,-8.6517333984375,85.113525390625
5.0499999,-3.2992098331451416,1.7046716213226318,-8.810662269592285,9.918212890625,-7.38525390625,77.7130126953125
5.069999900000001,-3.2393548488616943,1.0295066833496094,-8.846575736999512,25.5126953125,-11.0931396484375,69.0460205078125
5.0899999000000005,-3.141192674636841,0.2801215946674347,-8.83939266204834,20.7061767578125,-11.7034912109375,59.1888427734375
5.109999900000001,-2.959233283996582,-0.3878606855869293,-8.923190116882324,5.0811767578125,-10.223388671875,50.079345703125
5.1299999000000005,-2.698265314102173,-0.8882488012313843,-9.01895809173584,6.8511962890625,-8.7432861328125,42.0379638671875
5.1499999,-2.403778553009033,-1.2832920551300049,-9.193734169006348,18.4478759765625,-7.659912109375,38.970947265625
5.1699999000000005,-2.121262788772583,-1.4987702369689941,-9.351752281188965,15.167236328125,-8.8958740234375,28.5491943359375
5.1899999,-1.800439715385437,-1.659181833267212,-9.502586364746094,10.8184814453125,-7.8582763671875,18.4173583984375
5.209999900000001,-1.4676456451416016,-1.8842366933822632,-9.555258750915527,10.3912353515625,-5.645751953125,15.2587890625
5.2299999,-1.1228805780410767,-2.166752576828003,-9.607931137084961,-1.190185546875,-4.119873046875,6.8817138671875
5.249999900000001,-0.8475474119186401,-2.406172752380371,-9.62947940826416,-17.8070068359375,-3.84521484375,-14.5721435546875
5.2699999,-0.7206547260284424,-2.4588451385498047,-9.691728591918945,-17.7001953125,-5.096435546875,-31.92138671875
5.289999900000001,-0.7134721279144287,-2.142810583114624,-9.720458984375,-8.85009765625,-2.25830078125,-34.8052978515625
5.3099999,-0.7661445140838623,-1.5945383310317993,-9.761159896850586,-7.2784423828125,-4.5623779296875,-30.2581787109375
5.329999900000001,-0.8379706144332886,-1.0797849893569946,-9.763554573059082,-13.0767822265625,-6.805419921875,-30.9295654296875
5.3499999,-0.8403648138046265,-0.7254431247711182,-9.794678688049316,-11.29150390625,-7.2479248046875,-45.5322265625
5.369999900000001,-0.7661445140838623,-0.3256114423274994,-9.938331604003906,-0.274658203125,-7.7972412109375,-59.4940185546875
5.3899999,-0.6248866319656372,0.07900865375995636,-10.11789608001709,2.2735595703125,-5.035400390625,-51.910400390625
5.409999900000001,-0.42856210470199585,0.4381389021873474,-10.220847129821777,-12.3291015625,1.708984375,-36.468505859375
5.4299999,-0.17956513166427612,0.569819986820221,-10.321403503417969,-27.0538330078125,-0.3204345703125,-41.6412353515625
5.449999900000001,0.047884032130241394,0.5315127968788147,-10.259154319763184,-13.153076171875,-2.716064453125,-61.981201171875
5.4699999,0.24420857429504395,0.40222588181495667,-10.326191902160645,8.0413818359375,-5.859375,-63.9801025390625
5.489999900000001,0.3998316824436188,0.3064578175544739,-10.429142951965332,1.4190673828125,-4.730224609375,-51.8035888671875
5.5099999,0.5315127968788147,0.2322375625371933,-10.702081680297852,-15.0146484375,0.7476806640625,-48.583984375
5.529999900000001,0.6129156351089478,0.22744916379451752,-10.984597206115723,-10.8795166015625,5.18798828125,-65.4449462890625
5.5499999,0.6847416758537292,0.17717093229293823,-11.24795913696289,0.732421875,10.31494140625,-66.6046142578125
5.569999900000001,0.7158663272857666,0.17956513166427612,-11.370063781738281,-6.744384765625,13.763427734375,-57.80029296875
5.5899999000000005,0.6871358752250671,0.028730420395731926,-11.348516464233398,-21.3623046875,17.9595947265625,-59.0057373046875
5.609999900000001,0.6129156351089478,0.13168109953403473,-11.252747535705566,-22.491455078125,19.134521484375,-83.4808349609375
5.6299999000000005,0.5267243981361389,0.4213795065879822,-11.097125053405762,-2.38037109375,20.8892822265625,-92.71240234375
5.6499999,0.47644615173339844,1.1540051698684692,-10.90798282623291,0.3662109375,23.92578125,-74.859619140625
5.6699999000000005,0.47644615173339844,1.9273324012756348,-10.711658477783203,-9.063720703125,24.383544921875,-58.319091796875
5.6899999,0.5099649429321289,2.4684219360351562,-10.436325073242188,-18.1427001953125,26.3671875,-62.7288818359375
5.709999900000001,0.5937620401382446,2.7964274883270264,-10.170568466186523,-15.3961181640625,25.6500244140625,-76.751708984375
5.7299999,0.7350199222564697,3.0550012588500977,-9.888052940368652,-1.6632080078125,23.4832763671875,-70.465087890625
5.749999900000001,0.9265560507774353,3.5194764137268066,-9.694122314453125,1.861572265625,19.0582275390625,-53.4515380859375
5.7699999,1.0654197931289673,4.0749311447143555,-9.617507934570312,-7.8125,18.0816650390625,-39.73388671875
5.789999900000001,1.1540051698684692,4.630385875701904,-9.710882186889648,-16.7388916015625,19.927978515625,-34.3780517578125
5.8099999,1.1324573755264282,5.015852451324463,-9.876082420349121,-8.8653564453125,23.3306884765625,-23.37646484375
5.829999900000001,1.048660397529602,5.173870086669922,-9.981427192687988,5.6610107421875,24.7650146484375,-7.843017578125
5.8499999,0.9457096457481384,5.0469770431518555,-9.943120002746582,9.8724365234375,18.7835693359375,-0.2899169921875
5.869999900000001,0.8475474119186401,4.786009311676025,-9.715670585632324,8.2244873046875,15.716552734375,-2.8839111328125
5.8899999,0.7038952708244324,4.520252704620361,-9.440337181091309,5.9967041015625,11.4593505859375,1.800537109375
5.909999900000001,0.47884035110473633,4.338293552398682,-9.2033109664917,14.6026611328125,7.232666015625,16.754150390625
5.9299999,0.2082955539226532,4.2544965744018555,-9.172186851501465,17.6544189453125,2.7618408203125,24.200439453125
5.949999900000001,-0.1173158809542656,4.146757125854492,-9.260771751403809,2.74658203125,5.9814453125,23.1475830078125
5.9699999,-0.4165911078453064,4.151545524597168,-9.437943458557129,-5.18798828125,11.871337890625,24.993896484375
5.989999900000001,-0.6775590777397156,4.2329487800598145,-9.433155059814453,5.8135986328125,12.4053955078125,39.031982421875
6.0099999,-0.9217676520347595,4.388571739196777,-9.349357604980469,13.12255859375,2.01416015625,50.6134033203125
6.029999900000001,-1.1540051698684692,4.486733913421631,-9.107542991638184,17.852783203125,-3.204345703125,54.19921875
6.0499999,-1.3886369466781616,4.46518611907959,-8.860940933227539,11.5966796875,-1.15966796875,53.40576171875
6.069999900000001,-1.6136919260025024,4.326322555541992,-8.655038833618164,8.5906982421875,0,61.3250732421875
6.0899999000000005,-1.8052281141281128,4.14915132522583,-8.494627952575684,8.23974609375,-5.55419921875,69.4732666015625
6.109999900000001,-1.9847931861877441,3.9001545906066895,-8.305485725402832,8.758544921875,-5.18798828125,74.15771484375
6.1299999000000005,-2.1284453868865967,3.5003228187561035,-8.166622161865234,2.0751953125,-5.889892578125,74.0203857421875
6.149999900000001,-2.2457611560821533,2.9712042808532715,-7.994239330291748,-3.2806396484375,-8.72802734375,73.6541748046875
6.1699999000000005,-2.3582887649536133,2.410961151123047,-7.920019149780273,-2.13623046875,-14.9383544921875,69.88525390625
6.1899999,-2.451662540435791,1.920149803161621,-7.910442352294922,4.3487548828125,-18.0511474609375,65.4754638671875
6.209999900000001,-2.5091233253479004,1.4173674583435059,-8.063671112060547,4.8980712890625,-16.6778564453125,67.108154296875
6.2299999,-2.5019407272338867,0.8523358106613159,-8.233659744262695,4.69970703125,-14.0838623046875,66.2994384765625
6.249999900000001,-2.3918075561523438,0.14604631066322327,-8.446743965148926,8.9569091796875,-18.4783935546875,55.0994873046875
6.2699999,-2.1715409755706787,-0.5770025849342346,-8.676587104797363,20.32470703125,-25.5889892578125,37.65869140625
6.289999900000001,-1.889025092124939,-1.1348515748977661,-8.920795440673828,19.95849609375,-22.4609375,28.717041015625
6.3099999,-1.5753847360610962,-1.4532804489135742,-9.275136947631836,0.7476806640625,-16.7236328125,29.1595458984375
6.329999900000001,-1.2832920551300049,-1.5059528350830078,-9.576807022094727,-12.6953125,-10.1318359375,26.1383056640625
6.3499999,-1.0558429956436157,-1.4939818382263184,-9.813833236694336,-6.561279296875,-11.8560791015625,17.852783203125
6.369999900000001,-0.8858546018600464,-1.4628572463989258,-9.988609313964844,5.340576171875,-16.2506103515625,7.7667236328125
6.3899999,-0.7493851184844971,-1.3766659498214722,-10.14902114868164,10.7269287109375,-16.4642333984375,0.4730224609375
6.409999900000001,-0.6416460275650024,-1.2210428714752197,-10.33098030090332,9.063720703125,-12.2528076171875,-4.1046142578125
6.4299999,-0.5386953949928284,-1.0247182846069336,-10.553641319274902,6.3629150390625,-7.6751708984375,-5.4473876953125
6.449999900000001,-0.4141969084739685,-0.7374141216278076,-10.752359390258789,4.39453125,-6.1798095703125,-10.5133056640625
6.4699999,-0.2968810200691223,-0.4213795065879822,-10.886435508728027,8.48388671875,-3.2501220703125,-14.5721435546875
6.489999900000001,-0.17717093229293823,-0.11971008777618408,-10.927136421203613,10.3759765625,0.7171630859375,-12.3138427734375
6.5099999,0.040701430290937424,0.13168109953403473,-10.843339920043945,-9.0484619140625,5.8441162109375,-11.6729736328125
6.529999900000001,0.12210428714752197,0.026336219161748886,-10.771512985229492,-11.9781494140625,10.5743408203125,-20.1263427734375
6.5499999,0.2059013396501541,-0.07422025501728058,-10.702081680297852,-1.2664794921875,12.5579833984375,-30.517578125
6.569999900000001,0.3016694188117981,0.011971008032560349,-10.613495826721191,5.6610107421875,10.4827880859375,-32.5469970703125
6.5899999000000005,0.43095630407333374,0.304063618183136,-10.512939453125,1.1749267578125,9.613037109375,-25.6500244140625
6.609999900000001,0.6392518281936646,0.7182605266571045,-10.405200958251953,-4.4097900390625,10.4827880859375,-22.430419921875
6.6299999000000005,0.7996633648872375,1.1085153818130493,-10.433931350708008,-5.7220458984375,9.033203125,-24.9176025390625
6.649999900000001,0.8547300100326538,1.5945383310317993,-10.541669845581055,-0.8087158203125,9.2926025390625,-30.1666259765625
6.6699999000000005,0.6919242739677429,1.9321208000183105,-10.584765434265137,9.124755859375,16.7083740234375,-19.83642578125
6.6899999,0.363918662071228,2.1954829692840576,-10.584765434265137,2.349853515625,17.913818359375,-9.9945068359375
6.709999900000001,0.019153613597154617,2.2433669567108154,-10.283096313476562,-2.4261474609375,18.6309814453125,-12.39013671875
6.7299999,-0.19632454216480255,2.0805611610412598,-9.911994934082031,3.173828125,12.6953125,-15.289306640625
6.749999900000001,-0.2346317619085312,1.9033904075622559,-9.461885452270508,4.852294921875,8.758544921875,-13.427734375
6.7699999,-0.1364694982767105,1.8291701078414917,-9.117119789123535,2.410888671875,6.77490234375,-7.598876953125
6.789999900000001,0.002394201699644327,1.821987509727478,-8.93037223815918,-1.52587890625,3.7689208984375,-0.823974609375
6.8099999,0.11252748221158981,1.8171991109848022,-8.880094528198242,-0.274658203125,1.373291015625,1.8157958984375
6.829999900000001,0.1628057211637497,1.7286136150360107,-8.992621421813965,3.4027099609375,-0.9765625,1.15966796875
6.8499999,0.15801730751991272,1.601720929145813,-9.17697525024414,1.7852783203125,-1.7242431640625,0.1068115234375
6.869999900000001,0.11971008777618408,1.4508862495422363,-9.440337181091309,-0.091552734375,-1.8463134765625,1.46484375
6.8899999,0.0694318488240242,1.3670891523361206,-9.691728591918945,0.274658203125,-1.3580322265625,3.41796875
6.909999900000001,0.011971008032560349,1.2832920551300049,-9.923966407775879,0.3814697265625,-0.3509521484375,5.615234375
6.9299999,-0.040701430290937424,1.1803414821624756,-10.093954086303711,0.152587890625,1.3580322265625,6.28662109375
6.949999900000001,-0.08140286058187485,1.0414776802062988,-10.168174743652344,-0.4730224609375,3.0670166015625,4.21142578125
6.9699999,-0.10295066982507706,0.8643068075180054,-10.1753568649292,-0.0457763671875,3.0670166015625,2.5177001953125
6.989999900000001,-0.10055647045373917,0.7326257228851318,-10.101137161254883,0.2288818359375,2.9754638671875,0.6256103515625
7.0099999,-0.08619125932455063,0.6584054827690125,-10.014945983886719,-1.0223388671875,2.7313232421875,-0.244140625
7.029999900000001,-0.06464344263076782,0.6727706789970398,-9.904812812805176,-0.701904296875,3.509521484375,-0.457763671875
7.0499999,-0.038307227194309235,0.7469909191131592,-9.81143856048584,1.4190673828125,3.0975341796875,-0.701904296875
7.069999900000001,-0.0071826050989329815,0.8762778043746948,-9.737217903137207,0.1220703125,1.9683837890625,-1.2054443359375
7.0899999000000005,0.031124621629714966,1.0007762908935547,-9.677363395690918,0.1373291015625,2.532958984375,0.1678466796875
7.109999900000001,0.0694318488240242,1.1085153818130493,-9.66299819946289,0.5340576171875,1.8157958984375,0.9002685546875
7.1299999000000005,0.09576806426048279,1.1851298809051514,-9.655815124511719,1.8310546875,1.8768310546875,1.2969970703125
7.149999900000001,0.10534487664699554,1.2018892765045166,-9.679757118225098,2.3956298828125,0.5035400390625,1.15966796875
7.1699999000000005,0.10534487664699554,1.1899182796478271,-9.710882186889648,2.2125244140625,0.518798828125,1.190185546875
7.1899999,0.0933738648891449,1.1516109704971313,-9.720458984375,3.0517578125,1.5869140625,1.1138916015625
7.209999900000001,0.07900865375995636,1.1037269830703735,-9.739612579345703,3.570556640625,0.3662109375,1.2969970703125
7.2299999,0.06224924325942993,1.0342950820922852,-9.734824180603027,2.8076171875,-0.579833984375,2.38037109375
7.249999900000001,0.0454898327589035,0.950498104095459,-9.734824180603027,2.410888671875,-0.3204345703125,2.3345947265625
7.2699999,0.028730420395731926,0.8571242094039917,-9.744400978088379,3.0975341796875,-0.0762939453125,0.5645751953125
7.289999900000001,0.009576806798577309,0.7781155705451965,-9.773131370544434,2.7618408203125,-0.4730224609375,-1.0528564453125
7.3099999,0,0.7445967197418213,-9.801861763000488,1.8310546875,0.1678466796875,-0.9765625
7.329999900000001,-0.002394201699644327,0.7445967197418213,-9.835380554199219,0.2899169921875,0.3662109375,0.06103515625
7.3499999,0,0.7948749661445618,-9.861717224121094,-0.274658203125,0.518798828125,-0.701904296875
7.369999900000001,0.004788403399288654,0.8690952062606812,-9.871294021606445,1.129150390625,0.8544921875,-0.823974609375
7.3899999,0.004788403399288654,0.9457096457481384,-9.86650562286377,1.861572265625,0.8544921875,0.4119873046875
7.409999900000001,0.0071826050989329815,1.0127472877502441,-9.856928825378418,2.0294189453125,0.8697509765625,1.46484375
7.4299999,0.011971008032560349,1.0342950820922852,-9.859322547912598,2.593994140625,0.9002685546875,1.2969970703125
7.449999900000001,0.021547814831137657,1.039083480834961,-9.852140426635742,1.64794921875,1.617431640625,0.762939453125
7.4699999,0.026336219161748886,0.9888052940368652,-9.854534149169922,0.213623046875,1.6021728515625,2.0904541015625
7.489999900000001,0.028730420395731926,0.9361328482627869,-9.828198432922363,-0.5645751953125,1.7852783203125,2.2125244140625
7.5099999,0.023942016065120697,0.8643068075180054,-9.797073364257812,-0.152587890625,1.1138916015625,0.4730224609375
7.529999900000001,0.016759412363171577,0.7972691655158997,-9.77791976928711,0.06103515625,0.579833984375,0.152587890625
7.5499999,0.016759412363171577,0.768538773059845,-9.749189376831055,-0.1220703125,1.03759765625,-0.0762939453125
7.569999900000001,0.023942016065120697,0.7805097699165344,-9.758766174316406,-1.15966796875,0.5340576171875,0.0457763671875
7.5899999000000005,0.031124621629714966,0.8092401623725891,-9.768342971801758,-0.732421875,0.9002685546875,1.0833740234375
7.609999900000001,0.031124621629714966,0.8403648138046265,-9.785101890563965,0.244140625,1.2359619140625,0.9765625
7.6299999000000005,0.023942016065120697,0.8619126081466675,-9.804255485534668,-0.1068115234375,0.8544921875,-0.1678466796875
7.649999900000001,0.019153613597154617,0.8643068075180054,-9.818621635437012,-0.54931640625,0.4119873046875,-0.274658203125
7.6699999000000005,0.023942016065120697,0.8786720037460327,-9.825803756713867,-0.3509521484375,0.7171630859375,-0.3204345703125
7.6899999,0.033518824726343155,0.8906430602073669,-9.825803756713867,1.1749267578125,0.946044921875,-0.1068115234375
7.709999900000001,0.040701430290937424,0.8930372595787048,-9.816226959228516,1.8768310546875,0.30517578125,0.0762939453125
7.7299999,0.038307227194309235,0.9002198576927185,-9.80904483795166,1.068115234375,-0.2899169921875,-0.54931640625
7.749999900000001,0.031124621629714966,0.8978256583213806,-9.80904483795166,1.007080078125,-0.06103515625,0.0457763671875
7.7699999,0.023942016065120697,0.8930372595787048,-9.821015357971191,0.640869140625,0.762939453125,0.518798828125
7.789999900000001,0.026336219161748886,0.8786720037460327,-9.840168952941895,0.732421875,1.3885498046875,0.5035400390625
7.8099999,0.031124621629714966,0.8643068075180054,-9.84495735168457,0.946044921875,1.434326171875,-0.213623046875
7.829999900000001,0.033518824726343155,0.8475474119186401,-9.823410034179688,0.640869140625,1.0223388671875,-0.1068115234375
7.8499999,0.033518824726343155,0.8403648138046265,-9.799467086791992,0.396728515625,0.3509521484375,0.3204345703125
7.869999900000001,0.026336219161748886,0.8379706144332886,-9.775525093078613,0.3814697265625,-0.0457763671875,0.396728515625
7.8899999,0.019153613597154617,0.8259995579719543,-9.785101890563965,0.213623046875,0.1983642578125,-0.1068115234375
7.909999900000001,0.014365210197865963,0.8188169598579407,-9.818621635437012,0.06103515625,1.007080078125,-0.6561279296875
7.9299999,0.011971008032560349,0.8236053586006165,-9.852140426635742,0.152587890625,1.708984375,-0.5645751953125
7.949999900000001,0.0071826050989329815,0.8379706144332886,-9.861717224121094,0.0152587890625,1.5716552734375,-0.0762939453125
7.9699999,0.004788403399288654,0.8523358106613159,-9.852140426635742,0.1678466796875,0.8697509765625,0.244140625
7.989999900000001,0.004788403399288654,0.8451532125473022,-9.806650161743164,0.457763671875,1.0223388671875,0.152587890625
8.0099999,0.011971008032560349,0.8307880163192749,-9.787496566772461,-0.8087158203125,0.1983642578125,-0.5645751953125
8.0299999,0.023942016065120697,0.7781155705451965,-9.763554573059082,-1.4190673828125,0.3814697265625,-0.823974609375
8.049999900000001,0.028730420395731926,0.7829039692878723,-9.775525093078613,-0.8087158203125,0.4425048828125,-1.0528564453125
8.069999900000001,0.033518824726343155,0.7996633648872375,-9.806650161743164,-0.091552734375,0.4730224609375,-0.7171630859375
8.0899999,0.033518824726343155,0.8403648138046265,-9.830592155456543,0.0762939453125,1.129150390625,-0.579833984375
8.1099999,0.028730420395731926,0.8738836050033569,-9.847352027893066,0.0457763671875,0.9765625,-0.0762939453125
8.129999900000001,0.019153613597154617,0.9026140570640564,-9.854534149169922,0.335693359375,0.7476806640625,-0.091552734375
8.149999900000001,0.011971008032560349,0.9217676520347595,-9.84495735168457,1.312255859375,0.701904296875,-0.3662109375
8.1699999,0.009576806798577309,0.9217676520347595,-9.852140426635742,0.823974609375,0.762939453125,0.30517578125
8.1899999,0.011971008032560349,0.8978256583213806,-9.84495735168457,0.1068115234375,1.1444091796875,0.762939453125
8.2099999,0.021547814831137657,0.8738836050033569,-9.832986831665039,0.396728515625,1.3885498046875,0.0152587890625
8.229999900000001,0.021547814831137657,0.8403648138046265,-9.80904483795166,0.7476806640625,0.7171630859375,-0.091552734375
8.2499999,0.021547814831137657,0.8164227604866028,-9.78989028930664,0.3814697265625,0.5340576171875,0.4425048828125
8.2699999,0.016759412363171577,0.8020575642585754,-9.780313491821289,0.9918212890625,0.701904296875,0.5645751953125
8.2899999,0.016759412363171577,0.8044517636299133,-9.77791976928711,1.5716552734375,1.1138916015625,0.091552734375
8.309999900000001,0.019153613597154617,0.8068459630012512,-9.792284965515137,0.3204345703125,0.30517578125,0.4119873046875
8.3299999,0.019153613597154617,0.8092401623725891,-9.792284965515137,0.1068115234375,0.5645751953125,0.701904296875
8.3499999,0.016759412363171577,0.811634361743927,-9.797073364257812,-0.091552734375,0.518798828125,0.2899169921875
8.3699999,0.011971008032560349,0.8020575642585754,-9.799467086791992,0.823974609375,0.579833984375,0.0762939453125
8.389999900000001,0.0071826050989329815,0.7924807667732239,-9.80904483795166,1.312255859375,0.6256103515625,0.30517578125
8.4099999,0.004788403399288654,0.7852981686592102,-9.81143856048584,1.1749267578125,0.6561279296875,0.244140625
8.4299999,0.004788403399288654,0.7829039692878723,-9.832986831665039,0.3204345703125,-0.1983642578125,0.06103515625
8.4499999,0.002394201699644327,0.7781155705451965,-9.830592155456543,1.0223388671875,1.1138916015625,0.4730224609375
8.469999900000001,0.002394201699644327,0.768538773059845,-9.84256362915039,0.732421875,0.7781982421875,-0.0457763671875
8.4899999,0,0.7613561153411865,-9.823410034179688,0.823974609375,1.0986328125,-0.823974609375
8.5099999,0.004788403399288654,0.7613561153411865,-9.821015357971191,0.5950927734375,0.2288818359375,-1.068115234375
8.5299999,0.0071826050989329815,0.7709329724311829,-9.794678688049316,1.220703125,0.8697509765625,-0.518798828125
8.549999900000001,0.009576806798577309,0.8044517636299133,-9.799467086791992,1.312255859375,0.457763671875,-0.0457763671875
8.569999900000001,0.009576806798577309,0.8140285611152649,-9.794678688049316,1.312255859375,0.2593994140625,1.007080078125
8.5899999,0.0071826050989329815,0.8259995579719543,-9.804255485534668,0.7476806640625,0.335693359375,0.48828125
8.6099999,0.004788403399288654,0.8140285611152649,-9.80904483795166,0.7171630859375,0.274658203125,-0.0457763671875
8.629999900000001,0.004788403399288654,0.7924807667732239,-9.818621635437012,0.274658203125,0.244140625,0.3814697265625
8.649999900000001,0.004788403399288654,0.7637503147125244,-9.806650161743164,0.701904296875,0.54931640625,0.8544921875
8.6699999,0.004788403399288654,0.751779317855835,-9.799467086791992,0.213623046875,0.2593994140625,-0.396728515625
8.6899999,0.002394201699644327,0.730231523513794,-9.787496566772461,0.3204345703125,-0.4425048828125,-0.1373291015625
8.709999900000001,-0.002394201699644327,0.727837324142456,-9.77791976928711,0.3662109375,-0.06103515625,-0.152587890625
8.729999900000001,-0.009576806798577309,0.7254431247711182,-9.77791976928711,0.274658203125,-0.1983642578125,-0.18310546875
8.7499999,-0.021547814831137657,0.730231523513794,-9.806650161743164,0.2288818359375,-0.7171630859375,-0.2288818359375
8.7699999,-0.038307227194309235,0.727837324142456,-9.835380554199219,0.2593994140625,-0.1220703125,-0.0152587890625
8.7899999,-0.047884032130241394,0.7326257228851318,-9.890447616577148,0.3814697265625,0.4119873046875,-0.213623046875
8.809999900000001,-0.05267243832349777,0.7398083209991455,-9.93593692779541,0.42724609375,1.129150390625,-0.579833984375
8.8299999,-0.047884032130241394,0.751779317855835,-9.945513725280762,0.1983642578125,1.5716552734375,-0.5340576171875
8.8499999,-0.038307227194309235,0.7709329724311829,-9.921571731567383,0.0762939453125,1.5869140625,-0.0762939453125
8.8699999,-0.028730420395731926,0.768538773059845,-9.873687744140625,0.54931640625,0.9307861328125,0.42724609375
8.889999900000001,-0.021547814831137657,0.7709329724311829,-9.813833236694336,0.823974609375,0.579833984375,-0.4425048828125
8.9099999,-0.023942016065120697,0.7589619159698486,-9.785101890563965,0.91552734375,0.6256103515625,-0.5340576171875
8.9299999,-0.026336219161748886,0.7565677165985107,-9.785101890563965,0.4730224609375,0.762939453125,0.18310546875
8.9499999,-0.031124621629714966,0.7469909191131592,-9.806650161743164,0.244140625,1.2969970703125,0.9765625
8.969999900000001,-0.033518824726343155,0.7374141216278076,-9.840168952941895,-0.244140625,1.2054443359375,0.4119873046875
8.9899999,-0.031124621629714966,0.7254431247711182,-9.849745750427246,0.0457763671875,1.52587890625,-0.6866455078125
9.0099999,-0.028730420395731926,0.7134721279144287,-9.847352027893066,0.06103515625,1.1749267578125,-0.5035400390625
9.0299999,-0.026336219161748886,0.7134721279144287,-9.832986831665039,-0.0762939453125,1.0223388671875,0.1220703125
9.049999900000001,-0.028730420395731926,0.7110779285430908,-9.823410034179688,0.2288818359375,1.03759765625,0.1678466796875
9.069999900000001,-0.026336219161748886,0.7158663272857666,-9.823410034179688,-0.0152587890625,1.4495849609375,-0.42724609375
9.0899999,-0.021547814831137657,0.7254431247711182,-9.830592155456543,0.030517578125,1.7242431640625,-0.3509521484375
9.1099999,-0.014365210197865963,0.7445967197418213,-9.816226959228516,0.1373291015625,1.617431640625,0.3204345703125
9.129999900000001,-0.004788403399288654,0.7589619159698486,-9.806650161743164,0.3662109375,1.2054443359375,0.946044921875
9.149999900000001,-0.004788403399288654,0.7565677165985107,-9.780313491821289,0.3814697265625,1.03759765625,0.7171630859375
9.1699999,-0.004788403399288654,0.7398083209991455,-9.775525093078613,0.2593994140625,0.457763671875,-0.030517578125
9.1899999,-0.011971008032560349,0.7158663272857666,-9.780313491821289,-0.2899169921875,0.6561279296875,-0.1220703125
9.209999900000001,-0.016759412363171577,0.7015010714530945,-9.806650161743164,-0.6256103515625,0.701904296875,0.213623046875
9.229999900000001,-0.021547814831137657,0.706289529800415,-9.835380554199219,-0.5035400390625,1.220703125,-0.0457763671875
9.2499999,-0.021547814831137657,0.7110779285430908,-9.852140426635742,-0.2288818359375,1.2969970703125,0.244140625
9.2699999,-0.016759412363171577,0.7254431247711182,-9.84256362915039,-0.0762939453125,1.1444091796875,0.18310546875
9.2899999,-0.009576806798577309,0.7469909191131592,-9.832986831665039,-0.5645751953125,0.3204345703125,-0.30517578125
9.309999900000001,-0.002394201699644327,0.7565677165985107,-9.801861763000488,0.396728515625,0.8087158203125,0.4730224609375
9.3299999,0.002394201699644327,0.7541735172271729,-9.792284965515137,-0.091552734375,0.457763671875,0.946044921875
9.3499999,0.002394201699644327,0.751779317855835,-9.785101890563965,-0.5645751953125,0.640869140625,-0.0152587890625
9.3699999,-0.0071826050989329815,0.727837324142456,-9.797073364257812,0.6256103515625,0.335693359375,0.1220703125
9.389999900000001,-0.016759412363171577,0.7182605266571045,-9.80904483795166,0.06103515625,0.640869140625,-0.06103515625
9.4099999,-0.028730420395731926,0.706289529800415,-9.835380554199219,-0.48828125,0.640869140625,0.152587890625
9.4299999,-0.033518824726343155,0.7015010714530945,-9.856928825378418,0.2899169921875,0.9765625,0.1983642578125
9.4499999,-0.038307227194309235,0.7158663272857666,-9.871294021606445,1.0833740234375,1.129150390625,-0.1678466796875
9.469999900000001,-0.031124621629714966,0.7254431247711182,-9.8784761428833,0.67138671875,1.312255859375,0.48828125
9.4899999,-0.023942016065120697,0.730231523513794,-9.864110946655273,0.091552734375,1.28173828125,1.1749267578125
9.5099999,-0.016759412363171577,0.7254431247711182,-9.849745750427246,0.030517578125,1.2664794921875,0.42724609375
9.5299999,-0.009576806798577309,0.6991068720817566,-9.825803756713867,0.244140625,0.9765625,-0.3662109375
9.549999900000001,-0.014365210197865963,0.6871358752250671,-9.78989028930664,0.5035400390625,1.0986328125,-0.4730224609375
9.569999900000001,-0.016759412363171577,0.7086837291717529,-9.797073364257812,-0.0152587890625,0.48828125,0.48828125
9.5899999,-0.016759412363171577,0.7374141216278076,-9.801861763000488,0.18310546875,0.9307861328125,1.0986328125
9.6099999,-0.011971008032560349,0.751779317855835,-9.818621635437012,1.068115234375,1.2664794921875,0.4730224609375
9.629999900000001,-0.004788403399288654,0.7469909191131592,-9.821015357971191,1.0833740234375,1.0986328125,-0.06103515625
9.649999900000001,0.002394201699644327,0.7350199222564697,-9.821015357971191,1.15966796875,0.579833984375,0.1373291015625
9.6699999,0.002394201699644327,0.7254431247711182,-9.799467086791992,1.9378662109375,0.9613037109375,0.6103515625
9.6899999,-0.004788403399288654,0.7230489253997803,-9.785101890563965,1.6021728515625,0.3662109375,0.7171630859375
9.709999900000001,-0.011971008032560349,0.7254431247711182,-9.770736694335938,1.2359619140625,0.1678466796875,0.6561279296875
9.729999900000001,-0.016759412363171577,0.7326257228851318,-9.768342971801758,1.77001953125,-0.3814697265625,1.007080078125
9.7499999,-0.016759412363171577,0.7230489253997803,-9.770736694335938,1.46484375,-0.1068115234375,1.5869140625
9.7699999,-0.016759412363171577,0.6871358752250671,-9.770736694335938,0.6866455078125,0.1678466796875,1.739501953125
9.7899999,-0.021547814831137657,0.6440402865409851,-9.770736694335938,0.213623046875,-0.579833984375,0.457763671875
9.809999900000001,-0.038307227194309235,0.5937620401382446,-9.765948295593262,-0.091552734375,-1.0833740234375,-0.0762939453125
9.8299999,-0.05985504388809204,0.5578489899635315,-9.77791976928711,-0.7171630859375,-0.9002685546875,0.5950927734375
9.8499999,-0.08140286058187485,0.5171475410461426,-9.797073364257812,-1.739501953125,-0.6561279296875,0.457763671875
9.8699999,-0.090979665517807,0.5171475410461426,-9.837775230407715,-2.166748046875,-0.2899169921875,-1.617431640625
9.889999900000001,-0.08140286058187485,0.5267243981361389,-9.880870819091797,-1.5411376953125,-0.0457763671875,-2.1514892578125
9.9099999,-0.05985504388809204,0.5722141861915588,-9.928754806518555,-0.8544921875,0.457763671875,-0.823974609375
9.9299999,-0.033518824726343155,0.6344634294509888,-9.947908401489258,-1.6326904296875,1.89208984375,-0.67138671875
9.9499999,-0.019153613597154617,0.7015010714530945,-9.93593692779541,-1.007080078125,1.77001953125,-1.6937255859375
9.969999900000001,-0.019153613597154617,0.7637503147125244,-9.90241813659668,-0.8087158203125,0.67138671875,-1.373291015625
9.9899999,-0.026336219161748886,0.8068459630012512,-9.847352027893066,-0.5950927734375,0.8087158203125,0.3662109375
10.0099999,-0.035913024097681046,0.8307880163192749,-9.797073364257812,-0.18310546875,0.7476806640625,0.8087158203125
10.0299999,-0.038307227194309235,0.8259995579719543,-9.780313491821289,-0.3204345703125,-0.0152587890625,0.244140625
10.049999900000001,-0.040701430290937424,0.790086567401886,-9.758766174316406,0.3204345703125,0.5035400390625,0.4730224609375
10.069999900000001,-0.043095629662275314,0.7445967197418213,-9.761159896850586,-0.18310546875,0.030517578125,0.48828125
10.0899999,-0.05506663769483566,0.6847416758537292,-9.765948295593262,-0.732421875,-0.2899169921875,0.579833984375
10.1099999,-0.0694318488240242,0.6272808313369751,-9.785101890563965,-0.701904296875,-0.3509521484375,-0.1220703125
10.129999900000001,-0.07900865375995636,0.5937620401382446,-9.799467086791992,-0.2899169921875,0.3814697265625,-1.3885498046875
10.149999900000001,-0.07900865375995636,0.5961562395095825,-9.825803756713867,-0.4730224609375,0.0762939453125,-1.3427734375
10.1699999,-0.07900865375995636,0.6320692300796509,-9.830592155456543,0.030517578125,0.1678466796875,-0.152587890625
10.1899999,-0.07661445438861847,0.6943184733390808,-9.852140426635742,-0.0152587890625,-0.5645751953125,-0.0152587890625
10.209999900000001,-0.08379705995321274,0.7541735172271729,-9.873687744140625,0.885009765625,0.2288818359375,-0.30517578125
10.229999900000001,-0.090979665517807,0.790086567401886,-9.9000244140625,1.4190673828125,0.6103515625,0.3662109375
10.2499999,-0.10055647045373917,0.7972691655158997,-9.943120002746582,0.79345703125,0.701904296875,1.28173828125
10.2699999,-0.10534487664699554,0.7565677165985107,-9.959878921508789,0.2593994140625,1.52587890625,1.3275146484375
10.2899999,-0.10295066982507706,0.706289529800415,-9.947908401489258,0.213623046875,2.4566650390625,-0.274658203125
10.309999900000001,-0.09576806426048279,0.6607996821403503,-9.909601211547852,-0.1678466796875,2.1209716796875,-0.79345703125
10.3299999,-0.08619125932455063,0.629675030708313,-9.830592155456543,-0.5950927734375,1.4190673828125,0.5035400390625
10.3499999,-0.07422025501728058,0.6368576288223267,-9.765948295593262,-0.18310546875,0.8392333984375,0.6103515625
10.3699999,-0.06464344263076782,0.646434485912323,-9.727641105651855,-0.1068115234375,0.2593994140625,0.030517578125
10.389999900000001,-0.05985504388809204,0.6560112833976746,-9.734824180603027,-0.3662109375,0.518798828125,-0.0762939453125
10.4099999,-0.06224924325942993,0.6584054827690125,-9.763554573059082,-0.3509521484375,1.1444091796875,0.3662109375
10.4299999,-0.06464344263076782,0.6607996821403503,-9.804255485534668,-0.3814697265625,1.0986328125,-0.1983642578125
10.4499999,-0.0694318488240242,0.6560112833976746,-9.825803756713867,-0.1983642578125,0.946044921875,-0.4119873046875
10.469999900000001,-0.0694318488240242,0.6512228846549988,-9.821015357971191,-0.6866455078125,1.220703125,-0.42724609375
10.4899999,-0.06703764945268631,0.6488286852836609,-9.801861763000488,-0.762939453125,0.640869140625,-0.2593994140625
10.5099999,-0.06224924325942993,0.6560112833976746,-9.782708168029785,-0.732421875,0.274658203125,-0.4425048828125
10.5299999,-0.05985504388809204,0.667982280254364,-9.770736694335938,-0.518798828125,0.152587890625,-0.640869140625
10.549999900000001,-0.06464344263076782,0.6847416758537292,-9.77791976928711,-0.42724609375,0.1678466796875,-0.30517578125
10.569999900000001,-0.07422025501728058,0.7015010714530945,-9.804255485534668,-0.7476806640625,0.1678466796875,-0.0762939453125
10.5899999,-0.08379705995321274,0.7038952708244324,-9.840168952941895,-0.640869140625,0.4730224609375,-0.0457763671875
10.6099999,-0.090979665517807,0.706289529800415,-9.86889934539795,-0.0457763671875,0.8697509765625,-0.885009765625
10.629999900000001,-0.0933738648891449,0.706289529800415,-9.897629737854004,0.0457763671875,0.8392333984375,-0.79345703125
10.649999900000001,-0.0933738648891449,0.706289529800415,-9.9000244140625,-0.244140625,1.3275146484375,-0.1068115234375
10.6699999,-0.08858546614646912,0.7110779285430908,-9.890447616577148,-0.1068115234375,1.3427734375,0.0152587890625
10.6899999,-0.08619125932455063,0.7134721279144287,-9.859322547912598,-0.213623046875,1.251220703125,-0.3662109375
10.709999900000001,-0.08140286058187485,0.7038952708244324,-9.825803756713867,0.1373291015625,0.9918212890625,-0.2593994140625
10.729999900000001,-0.07661445438861847,0.7038952708244324,-9.78989028930664,-0.091552734375,0.91552734375,-0.1373291015625
10.7499999,-0.0694318488240242,0.706289529800415,-9.77791976928711,-0.213623046875,0.274658203125,0.2288818359375
10.7699999,-0.06703764945268631,0.7038952708244324,-9.780313491821289,0.18310546875,0.885009765625,0.8087158203125
10.7899999,-0.07422025501728058,0.6871358752250671,-9.794678688049316,0.0762939453125,0.8392333984375,0.244140625
10.809999900000001,-0.08379705995321274,0.6751648783683777,-9.828198432922363,-0.274658203125,0.4730224609375,-0.6866455078125
10.8299999,-0.09576806426048279,0.6607996821403503,-9.84256362915039,0.18310546875,1.0223388671875,-0.8697509765625
10.8499999,-0.10295066982507706,0.6703764796257019,-9.854534149169922,0.2593994140625,1.2054443359375,-0.1678466796875
10.8699999,-0.10055647045373917,0.6871358752250671,-9.864110946655273,0.091552734375,0.823974609375,0.457763671875
10.889999900000001,-0.09576806426048279,0.7110779285430908,-9.852140426635742,0.1983642578125,1.03759765625,0.2899169921875
10.9099999,-0.08858546614646912,0.7254431247711182,-9.852140426635742,0.18310546875,1.251220703125,0.213623046875
10.9299999,-0.08140286058187485,0.7230489253997803,-9.840168952941895,0.2593994140625,0.9613037109375,0.54931640625
10.9499999,-0.07900865375995636,0.7110779285430908,-9.835380554199219,0.3204345703125,1.1444091796875,0.48828125
10.969999900000001,-0.08140286058187485,0.6871358752250671,-9.823410034179688,0.2899169921875,1.40380859375,0.091552734375
10.9899999,-0.08379705995321274,0.6631938815116882,-9.823410034179688,0.1068115234375,1.068115234375,-0.1983642578125
11.0099999,-0.08619125932455063,0.6536170840263367,-9.813833236694336,-0.1220703125,1.0528564453125,-0.0762939453125
11.0299999,-0.08379705995321274,0.6536170840263367,-9.813833236694336,-0.2288818359375,1.0528564453125,0.2593994140625
11.049999900000001,-0.07900865375995636,0.6631938815116882,-9.81143856048584,-0.5645751953125,0.91552734375,0.3509521484375
11.069999900000001,-0.07422025501728058,0.689530074596405,-9.828198432922363,0.1678466796875,1.1749267578125,0.30517578125
11.0899999,-0.07422025501728058,0.6847416758537292,-9.837775230407715,-0.3662109375,0.8697509765625,0.640869140625
11.1099999,-0.07422025501728058,0.6751648783683777,-9.823410034179688,-0.54931640625,1.220703125,0.1983642578125
11.129999900000001,-0.0694318488240242,0.6584054827690125,-9.823410034179688,-0.823974609375,0.335693359375,-0.6561279296875
11.149999900000001,-0.0694318488240242,0.6584054827690125,-9.806650161743164,-0.3662109375,0.7171630859375,-0.518798828125
11.1699999,-0.0694318488240242,0.6584054827690125,-9.81143856048584,0.030517578125,0.579833984375,0.3662109375
11.1899999,-0.06703764945268631,0.6727706789970398,-9.81143856048584,0.1220703125,1.0223388671875,0.0152587890625
11.209999900000001,-0.0694318488240242,0.6823474764823914,-9.823410034179688,-0.1678466796875,0.5645751953125,-0.3509521484375
11.229999900000001,-0.07422025501728058,0.6871358752250671,-9.828198432922363,-0.3662109375,0.5035400390625,-0.1220703125
11.2499999,-0.07900865375995636,0.6919242739677429,-9.835380554199219,-0.2899169921875,0.4425048828125,0.0762939453125
11.2699999,-0.08619125932455063,0.689530074596405,-9.84495735168457,-0.3814697265625,0.518798828125,0.06103515625
11.2899999,-0.090979665517807,0.6871358752250671,-9.852140426635742,0.0457763671875,0.79345703125,-0.30517578125
11.309999900000001,-0.090979665517807,0.6919242739677429,-9.873687744140625,0.732421875,1.1444091796875,-0.244140625
11.3299999,-0.08858546614646912,0.6919242739677429,-9.86650562286377,1.0833740234375,1.6021728515625,0.3662109375
11.3499999,-0.08379705995321274,0.7015010714530945,-9.876082420349121,0.4119873046875,1.1749267578125,0.1373291015625
11.3699999,-0.07661445438861847,0.7015010714530945,-9.84256362915039,0.579833984375,1.3580322265625,-0.213623046875
11.389999900000001,-0.06703764945268631,0.6991068720817566,-9.80904483795166,0.3662109375,1.129150390625,0.3509521484375
11.4099999,-0.05985504388809204,0.6751648783683777,-9.75637149810791,0.274658203125,0.7476806640625,1.007080078125
11.4299999,-0.05506663769483566,0.6392518281936646,-9.715670585632324,-0.213623046875,-0.0762939453125,0.5340576171875
11.4499999,-0.05746084079146385,0.5913678407669067,-9.696516990661621,-0.6256103515625,-0.244140625,-0.2899169921875
11.469999900000001,-0.06703764945268631,0.5626373887062073,-9.710882186889648,-1.2664794921875,-0.2593994140625,-1.0223388671875
11.4899999,-0.07900865375995636,0.5650315880775452,-9.746794700622559,-1.251220703125,0.1678466796875,-0.8087158203125
11.5099999,-0.090979665517807,0.5961562395095825,-9.785101890563965,-1.64794921875,-0.030517578125,-0.244140625
11.5299999,-0.10055647045373917,0.6392518281936646,-9.828198432922363,-1.7547607421875,-0.1983642578125,-0.3204345703125
11.549999900000001,-0.10534487664699554,0.6799532771110535,-9.847352027893066,-0.823974609375,0.152587890625,-0.701904296875
11.569999900000001,-0.10773907601833344,0.7110779285430908,-9.856928825378418,-0.732421875,0.4119873046875,-0.54931640625
11.5899999,-0.11013327538967133,0.7182605266571045,-9.856928825378418,-1.312255859375,0.091552734375,0.1220703125
11.6099999,-0.11013327538967133,0.7206547260284424,-9.840168952941895,-1.5411376953125,-0.2593994140625,-0.3509521484375
11.629999900000001,-0.10773907601833344,0.706289529800415,-9.830592155456543,-0.885009765625,-0.1678466796875,-0.732421875
11.649999900000001,-0.11013327538967133,0.6943184733390808,-9.821015357971191,-0.4425048828125,0,-0.579833984375
11.6699999,-0.11013327538967133,0.689530074596405,-9.81143856048584,-0.30517578125,0.1220703125,-0.457763671875
11.6899999,-0.1173158809542656,0.6943184733390808,-9.816226959228516,-1.3580322265625,-0.6103515625,-0.518798828125
11.709999900000001,-0.12449848651885986,0.6943184733390808,-9.823410034179688,-0.946044921875,-0.42724609375,-0.0762939453125
11.729999900000001,-0.1364694982767105,0.727837324142456,-9.84495735168457,-0.3509521484375,-0.1678466796875,-0.9307861328125
11.7499999,-0.15322890877723694,0.7757213711738586,-9.861717224121094,-0.06103515625,0.06103515625,-0.1220703125
11.7699999,-0.16519992053508759,0.8643068075180054,-9.880870819091797,0.54931640625,-0.2593994140625,1.5869140625
11.7899999,-0.16998831927776337,0.9888052940368652,-9.9000244140625,2.1209716796875,-0.67138671875,2.8228759765625
11.809999900000001,-0.15801730751991272,1.1468225717544556,-9.923966407775879,1.9989013671875,-0.5340576171875,4.5013427734375
11.8299999,-0.14844051003456116,1.3311761617660522,-9.928754806518555,5.18798828125,-0.3509521484375,7.5836181640625
11.8499999,-0.1149216815829277,1.6304513216018677,-9.964667320251465,10.07080078125,-2.227783203125,10.1318359375
11.8699999,-0.05267243832349777,1.9105730056762695,-10.007762908935547,15.31982421875,-2.44140625,17.9901123046875
11.889999900000001,0.05506663769483566,2.1116859912872314,-10.08437728881836,17.822265625,-0.4730224609375,26.4739990234375
11.9099999,0.2059013396501541,2.1140801906585693,-10.187328338623047,9.5367431640625,3.4332275390625,29.0374755859375
11.9299999,0.35673606395721436,1.922544002532959,-10.220847129821777,3.8299560546875,6.591796875,28.3355712890625
11.9499999,0.5123591423034668,1.6112977266311646,-10.251971244812012,9.8724365234375,3.90625,29.0679931640625
11.969999900000001,0.6703764796257019,1.3024457693099976,-10.201693534851074,10.498046875,3.5400390625,33.0352783203125
11.9899999,0.8475474119186401,0.9983820915222168,-10.220847129821777,9.27734375,2.44140625,37.7960205078125
12.0099999,1.0223240852355957,0.727837324142456,-10.254365921020508,10.406494140625,2.6397705078125,37.3382568359375
12.0299999,1.1827356815338135,0.4405331015586853,-10.338163375854492,8.8348388671875,3.2958984375,36.62109375
12.049999900000001,1.290474772453308,0.14604631066322327,-10.369287490844727,2.777099609375,2.288818359375,38.787841796875
12.069999900000001,1.3623007535934448,-0.11971008777618408,-10.302249908447266,-0.457763671875,1.28173828125,38.543701171875
12.0899999,1.3646949529647827,-0.38067805767059326,-10.098742485046387,2.655029296875,-2.3193359375,36.0260009765625
12.1099999,1.2617442607879639,-0.5793967843055725,-9.873687744140625,14.5111083984375,-9.3536376953125,32.04345703125
12.129999900000001,1.0797849893569946,-0.6847416758537292,-9.806650161743164,22.9949951171875,-16.8304443359375,30.3802490234375
12.149999900000001,0.8164227604866028,-0.790086567401886,-9.78989028930664,6.7596435546875,-7.01904296875,34.97314453125
12.1699999,0.5147533416748047,-1.0127472877502441,-9.967061996459961,-15.2130126953125,-1.3885498046875,37.3382568359375
12.1899999,0.19632454216480255,-1.4724340438842773,-10.029311180114746,-7.4920654296875,-3.387451171875,30.6854248046875
12.209999900000001,-0.14844051003456116,-1.9752163887023926,-10.165780067443848,19.83642578125,-11.810302734375,9.27734375
12.229999900000001,-0.5171475410461426,-2.5282769203186035,-10.338163375854492,36.6668701171875,-8.6822509765625,-0.9002685546875
12.2499999,-0.8858546018600464,-2.7700912952423096,-10.38844108581543,12.0849609375,9.9945068359375,-8.2550048828125
12.2699999,-1.1899182796478271,-2.760514497756958,-10.438719749450684,-27.28271484375,12.3138427734375,-16.1285400390625
12.289999900000002,-1.4460978507995605,-2.609679937362671,-10.295066833496094,-31.6162109375,4.058837890625,-18.1427001953125
12.309999900000001,-1.6543933153152466,-2.4899697303771973,-10.04846477508545,-9.46044921875,5.9661865234375,-23.1170654296875
12.3299999,-1.8100165128707886,-2.477998733520508,-10.02691650390625,0.762939453125,9.7198486328125,-36.07177734375
12.3499999,-1.987187385559082,-2.5091233253479004,-9.801861763000488,-19.5159912109375,29.998779296875,-51.4678955078125
12.3699999,-2.121262788772583,-2.3750481605529785,-9.62947940826416,-62.5,35.614013671875,-62.6983642578125
12.389999900000001,-2.2385785579681396,-1.9967641830444336,-9.41639518737793,-72.0977783203125,17.3797607421875,-66.8182373046875
12.4099999,-2.3343467712402344,-1.4077905416488647,-9.169792175292969,-44.7998046875,23.9410400390625,-69.1070556640625
12.4299999,-2.470816135406494,-0.7637503147125244,-9.05247688293457,-31.646728515625,31.6314697265625,-77.2857666015625
12.4499999,-2.671929121017456,-0.15322890877723694,-8.87051773071289,-35.003662109375,34.11865234375,-82.672119140625
12.469999900000001,-2.8993782997131348,0.42856210470199585,-8.813055992126465,-33.9202880859375,17.39501953125,-88.958740234375
12.4899999,-3.1435868740081787,0.950498104095459,-8.482656478881836,-12.63427734375,22.9034423828125,-85.5712890625
12.5099999,-3.2752678394317627,1.280897855758667,-8.276755332946777,-9.21630859375,22.4761962890625,-83.251953125
12.5299999,-3.359065055847168,1.41257905960083,-7.994239330291748,-16.1590576171875,13.6871337890625,-90.2099609375
12.549999900000001,-3.3518824577331543,1.7621324062347412,-7.893682956695557,-9.1094970703125,6.561279296875,-106.7657470703125
12.569999900000001,-3.2417490482330322,2.343923568725586,-7.860164165496826,26.30615234375,3.7384033203125,-100.6927490234375
12.5899999,-2.9664158821105957,3.1531636714935303,-8.109161376953125,32.04345703125,0.2899169921875,-71.4111328125
12.6099999,-2.1547815799713135,4.259284973144531,-8.554482460021973,-40.8477783203125,15.6097412109375,-58.074951171875
12.629999900000001,-1.7597382068634033,4.247313976287842,-8.700529098510742,7.32421875,0.7476806640625,-62.9119873046875
12.649999900000001,-1.414973258972168,4.197035789489746,-8.643068313598633,44.2657470703125,-11.53564453125,-60.5010986328125
12.6699999,-1.0797849893569946,4.156333923339844,-8.643068313598633,21.4691162109375,-12.4359130859375,-43.7469482421875
12.6899999,-0.6943184733390808,4.23773717880249,-8.83699893951416,-34.60693359375,-12.4969482421875,-36.1328125
12.709999900000001,-0.3016694188117981,4.642356872558594,-9.248801231384277,-31.8450927734375,-10.0555419921875,-36.956787109375
12.729999900000001,0.035913024097681046,4.989516258239746,-9.68694019317627,10.6048583984375,-6.5765380859375,-21.240234375
12.7499999,0.40940847992897034,5.523423194885254,-10.103530883789062,24.3377685546875,-11.4288330078125,-2.197265625
12.7699999,0.6631938815116882,5.719748020172119,-10.32858657836914,7.01904296875,-19.3328857421875,11.8408203125
12.789999900000002,0.8379706144332886,5.384559631347656,-10.45547866821289,-3.1890869140625,-17.1051025390625,22.9644775390625
12.809999900000001,0.9169792532920837,4.829104900360107,-10.65898609161377,1.3275146484375,-17.6849365234375,16.0064697265625
12.8299999,0.9433154463768005,4.266467571258545,-10.78587818145752,17.9901123046875,-11.4898681640625,16.3116455078125
12.8499999,0.9840168952941895,3.993528366088867,-10.898406028747559,6.8359375,-9.3841552734375,32.04345703125
12.8699999,1.1276689767837524,4.120420932769775,-10.74996566772461,-10.589599609375,-7.7056884765625,46.7376708984375
12.889999900000001,1.3623007535934448,4.357447147369385,-10.508151054382324,-8.85009765625,-10.5133056640625,60.333251953125
12.9099999,1.625662922859192,4.400542736053467,-10.273519515991211,3.2958984375,-14.6026611328125,74.3255615234375
12.9299999,1.9033904075622559,4.194641590118408,-10.134655952453613,12.603759765625,-13.031005859375,81.2225341796875
12.9499999,2.1978771686553955,3.7253777980804443,-10.132261276245117,10.0555419921875,-12.1917724609375,80.56640625
12.969999900000001,2.477998733520508,3.0190882682800293,-10.218452453613281,11.1083984375,-11.2457275390625,86.3494873046875
12.9899999,2.695871114730835,2.255337953567505,-10.311826705932617,20.843505859375,-11.322021484375,89.813232421875
13.0099999,2.806004285812378,1.45806884765625,-10.5344877243042,30.670166015625,-13.61083984375,86.5936279296875
13.0299999,2.779668092727661,0.7326257228851318,-10.721235275268555,35.5987548828125,-7.5225830078125,83.221435546875
13.049999900000001,2.612074136734009,0.11252748221158981,-10.99656867980957,10.467529296875,-0.244140625,84.5184326171875
13.069999900000001,2.3558945655822754,-0.40222588181495667,-11.027692794799805,-21.331787109375,10.3912353515625,89.35546875
13.0899999,2.032677173614502,-0.8188169598579407,-10.958261489868164,-23.4527587890625,8.270263671875,82.275390625
13.1099999,1.680729627609253,-1.192312479019165,-10.63504409790039,11.0321044921875,0.6866455078125,70.4193115234375
13.129999900000001,1.335964560508728,-1.5179238319396973,-10.247182846069336,43.365478515625,-4.7149658203125,62.286376953125
13.149999900000001,1.0678139925003052,-1.577778935432434,-9.988609313964844,23.6358642578125,-6.2408447265625,57.12890625
13.1699999,0.8738836050033569,-1.5155296325683594,-9.765948295593262,-16.7083740234375,2.7008056640625,61.0809326171875
13.1899999,0.7110779285430908,-1.4652514457702637,-9.730035781860352,-4.82177734375,1.15966796875,67.7947998046875
13.209999900000001,0.49320554733276367,-1.7932571172714233,-9.77791976928711,50.23193359375,-6.8206787109375,60.9893798828125
13.229999900000001,0.18914192914962769,-2.2385785579681396,-10.103530883789062,84.1217041015625,-10.6353759765625,31.6619873046875
13.2499999,-0.21787235140800476,-2.784456491470337,-9.96945571899414,51.025390625,13.885498046875,19.3939208984375
13.2699999,-0.6607996821403503,-3.0358476638793945,-10.47702693939209,-45.3643798828125,-2.4871826171875,25.146484375
13.289999900000002,-1.1468225717544556,-3.181894063949585,-10.259154319763184,-45.22705078125,15.7928466796875,29.84619140625
13.309999900000001,-1.5897499322891235,-3.2848446369171143,-10.395624160766602,-4.0130615234375,5.7220458984375,3.11279296875
13.3299999,-1.9943699836730957,-3.428496837615967,-10.271124839782715,20.56884765625,-0.030517578125,-27.4505615234375
13.3499999,-2.276885747909546,-3.469198226928711,-10.211270332336426,-4.9896240234375,4.21142578125,-40.557861328125
13.3699999,-2.4181437492370605,-3.181894063949585,-10.11550235748291,-46.32568359375,21.240234375,-42.327880859375
13.389999900000001,-2.470816135406494,-2.6599581241607666,-9.914389610290527,-52.9937744140625,33.843994140625,-49.072265625
13.4099999,-2.477998733520508,-2.0159177780151367,-9.651026725769043,-34.5611572265625,29.3426513671875,-60.5010986328125
13.4299999,-2.4851813316345215,-1.3766659498214722,-9.337387084960938,-10.101318359375,15.5029296875,-70.6024169921875
13.4499999,-2.5091233253479004,-0.6823474764823914,-9.279925346374512,2.532958984375,21.4691162109375,-75.1190185546875
13.469999900000001,-2.628833532333374,-0.10534487664699554,-9.14585018157959,-5.8441162109375,43.76220703125,-74.432373046875
13.4899999,-2.762908697128296,0.6631938815116882,-8.937555313110352,-28.4271240234375,46.9512939453125,-79.498291015625
13.5099999,-2.8826189041137695,1.1563993692398071,-9.074024200439453,-38.57421875,-2.1514892578125,-75.592041015625
13.5299999,-2.9759926795959473,1.7836803197860718,-8.832210540771484,-0.8392333984375,15.289306640625,-73.73046875
13.549999900000001,-2.9544448852539062,2.233790159225464,-8.96389102935791,-5.279541015625,28.900146484375,-75.2105712890625
13.569999900000001,-2.873042106628418,2.3104045391082764,-8.846575736999512,-30.2581787109375,27.5115966796875,-65.36865234375
13.5899999,-2.7317841053009033,2.341529369354248,-8.62630844116211,-54.3060302734375,18.890380859375,-75.042724609375
13.6099999,-2.5953147411346436,2.2912509441375732,-8.341399192810059,-33.416748046875,11.993408203125,-89.53857421875
13.629999900000001,-2.47560453414917,2.3511061668395996,-8.224082946777344,14.2822265625,11.077880859375,-85.4949951171875
13.649999900000001,-2.3487119674682617,2.5498247146606445,-8.17380428314209,19.8822021484375,9.521484375,-79.0252685546875
13.6699999,-2.2170307636260986,2.7509377002716064,-8.252813339233398,-17.4713134765625,5.9814453125,-80.5511474609375
13.6899999,-2.097320795059204,3.0142998695373535,-8.291120529174805,-29.6783447265625,4.486083984375,-89.53857421875
13.709999900000001,-1.9919757843017578,3.3710360527038574,-8.358158111572266,1.5411376953125,6.3934326171875,-86.669921875
13.729999900000001,-1.9057846069335938,3.8307228088378906,-8.47547435760498,27.9541015625,-1.6021728515625,-71.3653564453125
13.7499999,-1.7908629179000854,4.091690540313721,-8.418013572692871,20.0653076171875,-1.800537109375,-58.349609375
13.7699999,-1.6280571222305298,4.213795185089111,-8.520963668823242,-17.3492431640625,-8.0108642578125,-64.5294189453125
13.789999900000002,-1.4101848602294922,4.247313976287842,-8.504204750061035,-18.37158203125,-4.7607421875,-71.8231201171875
13.809999900000001,-1.170764684677124,4.46518611907959,-8.647856712341309,5.4168701171875,-9.0179443359375,-59.814453125
13.8299999,-0.8906430602073669,4.912901878356934,-8.762778282165527,18.9361572265625,-17.15087890625,-45.0286865234375
13.8499999,-0.5793967843055725,5.389348030090332,-8.949525833129883,13.397216796875,-21.1181640625,-28.3203125
13.8699999,-0.2585737705230713,5.750872611999512,-9.138668060302734,5.9051513671875,-19.6685791015625,-19.3939208984375
13.889999900000001,0.021547814831137657,5.983109951019287,-9.50737476348877,14.6636962890625,-20.9503173828125,-6.6375732421875
13.9099999,0.24420857429504395,6.088454723358154,-9.854534149169922,20.32470703125,-19.04296875,13.9923095703125
13.9299999,0.4165911078453064,5.983109951019287,-10.220847129821777,13.641357421875,-19.378662109375,34.1033935546875
13.9499999,0.5530605912208557,5.640739440917969,-10.417171478271484,7.2174072265625,-17.1661376953125,38.5589599609375
13.969999900000001,0.6847416758537292,5.1810526847839355,-10.642226219177246,11.474609375,-20.2789306640625,41.6259765625
13.9899999,0.7709329724311829,4.666299343109131,-10.682928085327148,19.1650390625,-17.27294921875,52.9937744140625
14.0099999,0.8762778043746948,4.307168960571289,-10.69489860534668,14.8773193359375,-13.18359375,66.162109375
14.0299999,1.0821791887283325,4.022258758544922,-10.625467300415039,7.14111328125,-16.8914794921875,73.3642578125
14.049999900000001,1.3431471586227417,3.687070608139038,-10.591948509216309,15.2435302734375,-20.3704833984375,80.047607421875
14.069999900000001,1.6328455209732056,3.3518824577331543,-10.66137981414795,33.38623046875,-18.7225341796875,82.33642578125
14.0899999,1.9057846069335938,2.9903578758239746,-10.848128318786621,50.323486328125,-13.671875,85.5712890625
14.1099999,2.10210919380188,2.5498247146606445,-11.085153579711914,40.6951904296875,-7.4920654296875,95.0164794921875
14.129999900000001,2.185906171798706,1.3766659498214722,-11.480196952819824,13.9923095703125,3.7841796875,100.8758544921875
14.149999900000001,2.126051187515259,0.6560112833976746,-11.520898818969727,32.7911376953125,11.444091796875,92.8497314453125
14.1699999,2.0638017654418945,-0.033518824726343155,-11.367670059204102,46.44775390625,14.83154296875,86.6241455078125
14.1899999,2.032677173614502,-0.4357447028160095,-10.989385604858398,26.824951171875,12.8631591796875,86.181640625
14.209999900000001,1.9704279899597168,-0.8212111592292786,-10.438719749450684,11.3067626953125,11.474609375,94.0093994140625
14.229999900000001,1.8411411046981812,-1.2641384601593018,-9.86650562286377,46.9818115234375,6.9580078125,90.7440185546875
14.2499999,1.6352397203445435,-1.6615760326385498,-9.428366661071777,86.944580078125,-2.3345947265625,64.666748046875
14.2699999,1.3766659498214722,-2.0422539710998535,-9.294290542602539,54.9774169921875,-5.8135986328125,57.4493408203125
14.289999900000002,1.1300631761550903,-2.3104045391082764,-9.32541561126709,-24.2462158203125,7.659912109375,71.9451904296875
14.309999900000001,0.8738836050033569,-2.470816135406494,-9.550470352172852,-45.6390380859375,15.228271484375,73.5931396484375
14.3299999,0.569819986820221,-3.0142998695373535,-9.720458984375,4.791259765625,7.9498291015625,57.9681396484375
14.3499999,0.21308395266532898,-3.6535518169403076,-9.555258750915527,53.0548095703125,-2.25830078125,27.9083251953125
14.3699999,-0.181959331035614,-4.223371982574463,-9.437943458557129,23.0712890625,-16.4794921875,4.9896240234375
14.389999900000001,-0.6536170840263367,-4.537012100219727,-9.174580574035645,-39.9932861328125,-6.866455078125,4.9285888671875
14.4099999,-1.158793568611145,-4.656722068786621,-9.210494041442871,-39.459228515625,-1.922607421875,1.373291015625
14.4299999,-1.6519991159439087,-4.651933670043945,-9.495404243469238,5.615234375,-6.0272216796875,-27.3895263671875
14.4499999,-2.1499931812286377,-4.546588897705078,-9.473855972290039,28.839111328125,5.2032470703125,-56.9915771484375
14.469999900000001,-2.4875755310058594,-3.861847400665283,-9.555258750915527,-3.0517578125,-3.5552978515625,-65.73486328125
14.4899999,-2.7317841053009033,-3.1914708614349365,-9.50498104095459,-40.9393310546875,-19.317626953125,-41.6259765625
14.5099999,-2.896984100341797,-2.319981336593628,-9.38048267364502,-50.1556396484375,5.645751953125,-40.0543212890625
14.5299999,-3.0573954582214355,-1.886630892753601,-9.488221168518066,-42.0989990234375,10.9710693359375,-64.8193359375
14.549999900000001,-3.2537200450897217,-1.5682021379470825,-9.349357604980469,-8.5906982421875,7.8125,-87.9364013671875
14.569999900000001,-3.428496837615967,-0.9792284965515137,-9.437943458557129,5.859375,-9.2315673828125,-90.6219482421875
14.5899999,-3.598485231399536,-0.2753331959247589,-9.442731857299805,-7.0953369140625,-1.556396484375,-71.71630859375
14.6099999,-3.6727054119110107,0.5841852426528931,-9.66539192199707,-25.69580078125,16.05224609375,-70.037841796875
14.629999900000001,-3.732560396194458,1.0462661981582642,-9.821015357971191,-31.2652587890625,22.0947265625,-77.1942138671875
14.649999900000001,-3.7708675861358643,1.338358759880066,-9.832986831665039,-16.7694091796875,20.9808349609375,-85.906982421875
14.6699999,-3.756502389907837,1.6160861253738403,-9.658209800720215,5.2490234375,16.78466796875,-92.22412109375
14.6899999,-3.667917013168335,2.0015525817871094,-9.320627212524414,8.026123046875,19.6685791015625,-82.6873779296875
14.709999900000001,-3.466804027557373,2.315192937850952,-8.892065048217773,-11.8408203125,21.7437744140625,-69.610595703125
14.729999900000001,-3.1747114658355713,2.5498247146606445,-8.578424453735352,-24.6429443359375,13.2904052734375,-72.1282958984375
14.7499999,-2.851494312286377,2.6455929279327393,-8.291120529174805,-3.3721923828125,10.92529296875,-82.855224609375
14.7699999,-2.492363929748535,2.8419175148010254,-8.248024940490723,19.83642578125,8.880615234375,-79.7271728515625
14.789999900000002,-2.10210919380188,3.117250680923462,-8.26239013671875,18.798828125,3.997802734375,-62.347412109375
14.809999900000001,-1.7094600200653076,3.3039982318878174,-8.51138687133789,-3.72314453125,-1.3275146484375,-47.4395751953125
14.8299999,-1.37906014919281,3.292027235031128,-8.865729331970215,-15.106201171875,-1.9683837890625,-48.3551025390625
14.8499999,-1.2090718746185303,3.050212860107422,-9.430760383605957,-0.335693359375,0.6561279296875,-52.8564453125
14.8699999,-1.194706678390503,2.7509377002716064,-9.876082420349121,12.2528076171875,4.9285888671875,-50.1251220703125
14.889999900000001,-1.2018892765045166,2.5019407272338867,-10.096348762512207,10.19287109375,2.8839111328125,-43.4417724609375
14.9099999,-1.1994950771331787,2.33913516998291,-10.086771965026855,-10.43701171875,-6.1492919921875,-39.24560546875
14.9299999,-1.1180921792984009,2.276885747909546,-9.859322547912598,-16.7694091796875,-3.0975341796875,-39.276123046875
14.9499999,-0.9983820915222168,2.406172752380371,-9.701305389404297,-7.75146484375,-5.126953125,-36.3006591796875
14.969999900000001,-0.849941611289978,2.647987127304077,-9.519346237182617,-1.739501953125,-6.2713623046875,-22.857666015625
14.9899999,-0.6943184733390808,2.8395233154296875,-9.354146003723145,-10.1165771484375,-10.345458984375,-9.4757080078125
15.0099999,-0.5123591423034668,3.045424461364746,-9.174580574035645,-17.364501953125,-13.9617919921875,-11.0931396484375
15.0299999,-0.35913026332855225,3.1675288677215576,-9.0859956741333,-9.1400146484375,-20.2789306640625,-6.9427490234375
15.049999900000001,-0.21547815203666687,3.339911460876465,-9.05247688293457,7.598876953125,-21.4385986328125,6.988525390625
15.069999900000001,-0.05506663769483566,3.529053211212158,-9.129091262817383,8.6517333984375,-23.9715576171875,21.5606689453125
15.0899999,0.11971008777618408,3.6750996112823486,-9.232041358947754,-5.126953125,-26.824951171875,29.5562744140625
15.1099999,0.2753331959247589,3.7014358043670654,-9.524134635925293,-9.735107421875,-29.8309326171875,37.567138671875
15.129999900000001,0.3423708379268646,3.598485231399536,-9.892841339111328,4.0435791015625,-25.7415771484375,48.4161376953125
15.149999900000001,0.3447650372982025,3.3255462646484375,-10.393229484558105,19.805908203125,-19.287109375,57.4798583984375
15.1699999,0.33279404044151306,2.9735984802246094,-10.83855152130127,16.4947509765625,-16.6473388671875,57.2052001953125
15.1899999,0.33518823981285095,2.580949544906616,-11.224017143249512,6.5155029296875,-16.0369873046875,59.3719482421875
15.209999900000001,0.36152446269989014,2.2194249629974365,-11.494562149047852,6.134033203125,-12.359619140625,68.8629150390625
15.229999900000001,0.395043283700943,1.9752163887023926,-11.66455078125,10.528564453125,-5.645751953125,75.1190185546875
15.2499999,0.44532153010368347,1.7956513166427612,-11.70046329498291,14.3280029296875,0.3814697265625,75.775146484375
15.2699999,0.545877993106842,1.6831238269805908,-11.561599731445312,17.974853515625,1.8310546875,76.3092041015625
15.289999900000002,0.689530074596405,1.6687586307525635,-11.224017143249512,18.61572265625,3.9825439453125,81.451416015625
15.309999900000001,0.8307880163192749,1.6639702320098877,-10.8720703125,11.1846923828125,5.4473876953125,92.132568359375
15.3299999,0.9241618514060974,1.5634137392044067,-10.608707427978516,5.9967041015625,5.43212890625,99.5330810546875
15.3499999,0.9600749015808105,1.2330138683319092,-10.47942066192627,13.397216796875,9.368896484375,97.8240966796875
15.3699999,0.9720458984375,0.7182605266571045,-10.450690269470215,25.604248046875,11.8560791015625,90.301513671875
15.389999900000001,1.0247182846069336,0.2059013396501541,-10.390835762023926,24.5361328125,11.5203857421875,84.7625732421875
15.4099999,1.1252747774124146,-0.17477671802043915,-10.280701637268066,6.0577392578125,9.307861328125,87.9058837890625
15.4299999,1.2042834758758545,-0.5722141861915588,-10.180145263671875,0.7476806640625,8.392333984375,97.59521484375
15.4499999,1.2306196689605713,-1.015141487121582,-10.086771965026855,22.2930908203125,9.2315673828125,90.6982421875
15.469999900000001,1.137245774269104,-1.4484920501708984,-10.034099578857422,43.6553955078125,7.5225830078125,69.82421875
15.4899999,0.9600749015808105,-1.8722656965255737,-10.146626472473145,20.5230712890625,2.410888671875,65.643310546875
15.5099999,0.7589619159698486,-2.1523873805999756,-10.199298858642578,-19.683837890625,12.3748779296875,73.8525390625
15.5299999,0.47884035110473633,-2.408566951751709,-10.295066833496094,-25.390625,18.6309814453125,71.1517333984375
15.549999900000001,0.14365209639072418,-2.875436305999756,-10.254365921020508,18.98193359375,10.7879638671875,53.131103515625
15.569999900000001,-0.26575639843940735,-3.464409828186035,-10.079588890075684,44.0673828125,-1.739501953125,27.2674560546875
15.5899999,-0.7182605266571045,-4.048594951629639,-9.926360130310059,1.77001953125,-0.823974609375,11.871337890625
15.6099999,-1.1635819673538208,-4.484339714050293,-9.749189376831055,-39.1082763671875,11.65771484375,2.5634765625
15.629999900000001,-1.5705963373184204,-4.692635536193848,-9.713275909423828,-33.0352783203125,12.0391845703125,-12.6190185546875
15.649999900000001,-2.2697031497955322,-4.733336925506592,-9.579200744628906,4.08935546875,1.312255859375,-63.323974609375
15.6699999,-2.537853717803955,-4.376600742340088,-9.454702377319336,-20.538330078125,8.4991455078125,-80.1544189453125
15.6899999,-2.762908697128296,-3.5960910320281982,-9.500192642211914,-47.515869140625,9.2010498046875,-79.6661376953125
15.709999900000001,-2.913743495941162,-2.4372973442077637,-9.437943458557129,-32.6080322265625,15.7470703125,-79.1015625
15.729999900000001,-3.002328872680664,-1.1348515748977661,-9.57441234588623,-10.7269287109375,9.8114013671875,-79.376220703125
15.7499999,-3.0597896575927734,0.009576806798577309,-9.581595420837402,-9.6588134765625,13.24462890625,-76.2939453125
15.7699999,-3.141192674636841,0.7182605266571045,-9.567230224609375,-20.5078125,22.918701171875,-73.2421875
15.789999900000002,-3.248931646347046,1.1037269830703735,-9.485827445983887,-22.1405029296875,22.88818359375,-84.381103515625
15.809999900000001,-3.40216064453125,1.2545616626739502,-9.373299598693848,-3.2196044921875,19.012451171875,-94.085693359375
15.8299999,-3.5482068061828613,1.3335703611373901,-9.186552047729492,4.852294921875,24.322509765625,-89.141845703125
15.8499999,-3.6296098232269287,1.3886369466781616,-8.959102630615234,-9.6435546875,28.2745361328125,-85.7086181640625
15.869999900000002,-3.6798880100250244,1.4053963422775269,-8.71489429473877,-19.3939208984375,24.0325927734375,-95.5963134765625
15.889999900000001,-3.641580820083618,1.5658079385757446,-8.525752067565918,10.9710693359375,16.11328125,-112.6708984375
15.9099999,-3.471592426300049,2.0207061767578125,-8.40843677520752,41.3055419921875,13.519287109375,-112.8082275390625
15.9299999,-3.177105665206909,2.6599581241607666,-8.379706382751465,35.9954833984375,13.7939453125,-92.6361083984375
15.9499999,-2.801215887069702,3.2561142444610596,-8.374917984008789,4.9591064453125,9.94873046875,-80.3985595703125
15.969999900000001,-2.4875755310058594,3.533841609954834,-8.463502883911133,-10.5133056640625,6.072998046875,-84.503173828125
15.9899999,-2.279279947280884,3.600879430770874,-8.729259490966797,17.0745849609375,1.983642578125,-90.6982421875
16.0099999,-2.145204782485962,3.5649664402008057,-8.918401718139648,48.6907958984375,8.392333984375,-79.2694091796875
16.0299999,-1.946485996246338,3.5936968326568604,-9.066842079162598,23.2391357421875,3.7841796875,-62.2711181640625
16.0499999,-1.7094600200653076,3.507505416870117,-9.047688484191895,-33.416748046875,-5.18798828125,-49.62158203125
16.0699999,-1.4724340438842773,3.2824504375457764,-8.951920509338379,-46.0968017578125,-3.9215087890625,-47.9888916015625
16.089999900000002,-1.2521674633026123,3.071760892868042,-8.920795440673828,-11.3372802734375,-5.18798828125,-52.6580810546875
16.109999900000002,-1.0127472877502441,3.026270866394043,-8.951920509338379,16.7694091796875,-11.8255615234375,-46.2493896484375
16.1299999,-0.7398083209991455,3.1268274784088135,-8.987833023071289,6.28662109375,-20.111083984375,-26.55029296875
16.1499999,-0.43335050344467163,3.3854012489318848,-9.07641887664795,-16.7083740234375,-23.5748291015625,-14.495849609375
16.1699999,-0.16998831927776337,3.6152446269989014,-9.339780807495117,-19.59228515625,-26.580810546875,-8.6517333984375
16.1899999,0.026336219161748886,3.7014358043670654,-9.674968719482422,-3.082275390625,-23.590087890625,3.6468505859375
16.2099999,0.17477671802043915,3.799597978591919,-10.108319282531738,10.1318359375,-25.32958984375,10.284423828125
16.2299999,0.304063618183136,3.8307228088378906,-10.436325073242188,10.406494140625,-24.8870849609375,20.7977294921875
16.249999900000002,0.395043283700943,3.845088005065918,-10.704475402832031,0.1220703125,-23.0255126953125,34.210205078125
16.269999900000002,0.4381389021873474,3.821146011352539,-10.888829231262207,-11.5203857421875,-18.5699462890625,48.40087890625
16.2899999,0.42377370595932007,3.7158010005950928,-10.970232009887695,-12.2833251953125,-14.7705078125,57.525634765625
16.3099999,0.40940847992897034,3.5410242080688477,-10.989385604858398,-0.06103515625,-14.9383544921875,62.31689453125
16.3299999,0.4165911078453064,3.2561142444610596,-10.924742698669434,14.617919921875,-15.5029296875,68.8018798828125
16.3499999,0.4429273009300232,2.913743495941162,-10.855310440063477,12.1307373046875,-13.7481689453125,77.0721435546875
16.3699999,0.48602294921875,2.4420857429504395,-10.84094524383545,3.35693359375,-10.498046875,81.8023681640625
16.3899999,0.5650315880775452,1.941697597503662,-10.831368446350098,9.4146728515625,-6.53076171875,80.841064453125
16.4099999,0.6560112833976746,1.3718775510787964,-10.793061256408691,23.6968994140625,-3.9215087890625,79.986572265625
16.429999900000002,0.7757213711738586,0.9361328482627869,-10.65898609161377,32.1807861328125,-2.8228759765625,79.3304443359375
16.4499999,0.8834604024887085,0.6033388376235962,-10.529699325561523,20.9197998046875,-4.150390625,81.3446044921875
16.4699999,0.9816226959228516,0.4118026793003082,-10.472238540649414,5.035400390625,-1.5411376953125,84.3353271484375
16.4899999,1.0271124839782715,0.20350714027881622,-10.524910926818848,5.401611328125,3.8604736328125,84.808349609375
16.5099999,1.0414776802062988,-0.08140286058187485,-10.623072624206543,20.6756591796875,8.636474609375,82.427978515625
16.5299999,1.0558429956436157,-0.31842881441116333,-10.680533409118652,23.98681640625,8.9111328125,72.3419189453125
16.5499999,1.091755986213684,-0.3902548849582672,-10.520122528076172,18.06640625,11.04736328125,68.7255859375
16.5699999,1.1420341730117798,-0.3734954595565796,-10.307038307189941,7.171630859375,10.1318359375,81.7108154296875
16.589999900000002,1.158793568611145,-0.45489832758903503,-9.981427192687988,7.2021484375,10.833740234375,89.8895263671875
16.609999900000002,1.1540051698684692,-0.6057330369949341,-9.713275909423828,14.190673828125,6.8511962890625,71.3653564453125
16.6299999,1.1204863786697388,-0.8212111592292786,-9.493009567260742,19.1497802734375,1.3275146484375,54.840087890625
16.6499999,1.0007762908935547,-0.8738836050033569,-9.433155059814453,5.767822265625,-0.9307861328125,62.6983642578125
16.6699999,0.7781155705451965,-0.9074024558067322,-9.672574996948242,-4.9591064453125,-1.6937255859375,78.1097412109375
16.6899999,0.45010992884635925,-1.0582371950149536,-10.02691650390625,7.8887939453125,5.2032470703125,72.0977783203125
16.7099999,0.0694318488240242,-1.5275006294250488,-10.441113471984863,21.209716796875,9.3231201171875,51.1322021484375
16.7299999,-0.2753331959247589,-2.1380221843719482,-10.623072624206543,12.1307373046875,8.3465576171875,37.41455078125
16.749999900000002,-0.5386953949928284,-2.6623523235321045,-10.60391902923584,-6.9122314453125,6.04248046875,32.89794921875
16.769999900000002,-0.768538773059845,-3.227383852005005,-10.493785858154297,-0.457763671875,3.5247802734375,28.472900390625
16.7899999,-1.0199298858642578,-3.6727054119110107,-10.335768699645996,20.08056640625,6.7901611328125,5.1727294921875
16.8099999,-1.280897855758667,-3.9432501792907715,-10.304644584655762,16.4031982421875,4.8065185546875,-24.2767333984375
16.8299999,-1.5155296325683594,-3.9647979736328125,-10.211270332336426,-4.4403076171875,5.523681640625,-30.548095703125
16.8499999,-1.702277421951294,-3.5482068061828613,-10.141838073730469,-24.35302734375,9.5977783203125,-32.89794921875
16.8699999,-1.8483237028121948,-2.956839084625244,-10.038887977600098,-21.1639404296875,13.6260986328125,-40.252685546875
16.8899999,-1.9823989868164062,-2.3942017555236816,-9.799467086791992,-6.500244140625,16.143798828125,-50.079345703125
16.9099999,-2.1547815799713135,-1.886630892753601,-9.627084732055664,-8.3465576171875,10.68115234375,-61.58447265625
16.929999900000002,-2.3558945655822754,-1.4915876388549805,-9.27034854888916,-8.544921875,10.7879638671875,-66.802978515625
16.9499999,-2.559401512145996,-1.0989385843276978,-9.057265281677246,-10.1470947265625,7.537841796875,-71.0601806640625
16.9699999,-2.806004285812378,-0.8619126081466675,-8.822632789611816,-16.387939453125,5.6915283203125,-75.592041015625
16.9899999,-3.0573954582214355,-0.6177040338516235,-8.83939266204834,-22.552490234375,2.3193359375,-86.8072509765625
17.0099999,-3.3423056602478027,-0.28969839215278625,-8.882488250732422,-6.622314453125,4.1046142578125,-99.0447998046875
17.0299999,-3.667917013168335,0.07900865375995636,-8.987833023071289,15.5487060546875,5.523681640625,-95.062255859375
17.0499999,-3.912125587463379,0.5913678407669067,-9.229647636413574,20.721435546875,-2.8839111328125,-95.062255859375
17.0699999,-4.07014274597168,0.993593692779541,-9.29189682006836,33.4625244140625,3.9825439453125,-99.517822265625
17.089999900000002,-4.065354347229004,1.1875240802764893,-9.387664794921875,41.7938232421875,9.9945068359375,-104.2022705078125
17.109999900000002,-3.912125587463379,1.2210428714752197,-9.23682975769043,36.956787109375,12.7716064453125,-106.8572998046875
17.1299999,-3.6343982219696045,1.1563993692398071,-8.942343711853027,20.01953125,10.8795166015625,-105.377197265625
17.1499999,-3.3039982318878174,1.3024457693099976,-8.643068313598633,3.2806396484375,1.6937255859375,-107.147216796875
17.1699999,-2.5689783096313477,2.3535003662109375,-8.425195693969727,2.8228759765625,5.6304931640625,-81.48193359375
17.1899999,-2.1571757793426514,2.8347349166870117,-8.53532886505127,1.0986328125,7.6141357421875,-61.6455078125
17.2099999,-1.742978811264038,3.0406360626220703,-8.767566680908203,-9.796142578125,2.2125244140625,-59.14306640625
17.2299999,-1.3623007535934448,3.098097085952759,-9.095572471618652,-13.7176513671875,-4.08935546875,-67.535400390625
17.249999900000002,-1.091755986213684,3.095702886581421,-9.394847869873047,-9.2315673828125,-0.9307861328125,-55.7861328125
17.269999900000002,-0.8403648138046265,3.1531636714935303,-9.670180320739746,-11.8865966796875,-1.77001953125,-34.0728759765625
17.2899999,-0.6272808313369751,3.1268274784088135,-9.856928825378418,-21.942138671875,-7.720947265625,-23.1781005859375
17.3099999,-0.3926490843296051,2.9664158821105957,-9.931148529052734,-25.421142578125,-10.3607177734375,-27.2369384765625
17.3299999,-0.17238251864910126,2.8347349166870117,-10.036493301391602,-20.782470703125,-10.8184814453125,-26.1383056640625
17.3499999,0.047884032130241394,2.8586769104003906,-10.11550235748291,-12.908935546875,-9.246826171875,-12.4359130859375
17.3699999,0.26336219906806946,3.0885202884674072,-10.11789608001709,-9.1552734375,-9.6893310546875,4.7149658203125
17.3899999,0.49559974670410156,3.3423056602478027,-10.096348762512207,-16.845703125,-14.7552490234375,14.404296875
17.409999900000003,0.6823474764823914,3.4380736351013184,-10.034099578857422,-18.218994140625,-15.1519775390625,23.956298828125
17.429999900000002,0.8212111592292786,3.4308910369873047,-10.043676376342773,-17.242431640625,-13.2598876953125,33.050537109375
17.4499999,0.8906430602073669,3.2561142444610596,-10.127472877502441,-15.7623291015625,-13.397216796875,42.999267578125
17.4699999,0.9409212470054626,2.9951462745666504,-10.244789123535156,-9.6893310546875,-12.8173828125,50.445556640625
17.4899999,0.9744400978088379,2.609679937362671,-10.338163375854492,-3.3416748046875,-12.2833251953125,52.3834228515625
17.5099999,0.9864110946655273,2.1787235736846924,-10.381258964538574,2.4871826171875,-10.772705078125,51.9256591796875
17.5299999,0.9648633003234863,1.723825216293335,-10.383652687072754,3.082275390625,-11.77978515625,53.2684326171875
17.5499999,0.9169792532920837,1.3623007535934448,-10.390835762023926,0.54931640625,-12.664794921875,53.8787841796875
17.5699999,0.8427590131759644,1.0630255937576294,-10.429142951965332,6.7596435546875,-8.9874267578125,55.17578125
17.589999900000002,0.7445967197418213,0.8643068075180054,-10.498574256896973,9.2620849609375,-5.2947998046875,55.938720703125
17.609999900000002,0.646434485912323,0.7158663272857666,-10.577583312988281,3.7078857421875,-2.50244140625,57.5408935546875
17.6299999,0.5674257874488831,0.5817909836769104,-10.579977035522461,-0.9002685546875,-0.9613037109375,58.807373046875
17.6499999,0.5171475410461426,0.45489832758903503,-10.491392135620117,1.708984375,0.4730224609375,57.4493408203125
17.6699999,0.47884035110473633,0.33518823981285095,-10.38604736328125,11.3372802734375,-0.640869140625,55.17578125
17.6899999,0.45010992884635925,0.181959331035614,-10.27591323852539,14.9383544921875,1.15966796875,55.4046630859375
17.7099999,0.4141969084739685,0.004788403399288654,-10.194510459899902,7.7362060546875,4.2572021484375,54.473876953125
17.7299999,0.38546648621559143,-0.2513911724090576,-10.113107681274414,4.608154296875,5.92041015625,50.2471923828125
17.749999900000002,0.3687070608139038,-0.5291185975074768,-10.02691650390625,6.5765380859375,3.997802734375,42.816162109375
17.769999900000002,0.33039984107017517,-0.8140285611152649,-9.880870819091797,14.434814453125,2.4261474609375,37.506103515625
17.7899999,0.27054479718208313,-1.0055646896362305,-9.801861763000488,12.1612548828125,1.220703125,33.0047607421875
17.8099999,0.14604631066322327,-1.1779472827911377,-9.77791976928711,4.33349609375,2.6702880859375,31.707763671875
17.8299999,-0.0454898327589035,-1.3024457693099976,-9.8784761428833,4.69970703125,3.8299560546875,26.0162353515625
17.8499999,-0.2777273952960968,-1.3934253454208374,-10.000580787658691,15.5487060546875,6.77490234375,16.7694091796875
17.8699999,-0.4908113479614258,-1.3982137441635132,-10.072406768798828,23.0712890625,8.392333984375,11.1236572265625
17.8899999,-0.6727706789970398,-1.3718775510787964,-10.022128105163574,16.11328125,7.7362060546875,11.1846923828125
17.909999900000003,-0.8092401623725891,-1.2234370708465576,-9.974244117736816,3.9215087890625,5.4473876953125,8.4686279296875
17.929999900000002,-0.9385270476341248,-1.1228805780410767,-9.940725326538086,2.838134765625,8.453369140625,4.2266845703125
17.9499999,-1.0773907899856567,-1.0869675874710083,-9.995792388916016,11.5203857421875,13.0615234375,0.152587890625
17.9699999,-1.1994950771331787,-1.0295066833496094,-10.04846477508545,17.852783203125,15.1214599609375,-8.4381103515625
17.9899999,-1.2689268589019775,-0.9385270476341248,-10.017339706420898,16.3421630859375,13.7939453125,-14.0838623046875
18.0099999,-1.259350061416626,-0.7422025203704834,-9.880870819091797,10.5743408203125,11.016845703125,-13.3209228515625
18.0299999,-1.1994950771331787,-0.4668693244457245,-9.72285270690918,0.6561279296875,10.009765625,-11.7034912109375
18.0499999,-1.1109095811843872,-0.19632454216480255,-9.62947940826416,-3.875732421875,8.544921875,-13.0767822265625
18.0699999,-1.0247182846069336,0.05027823522686958,-9.591172218322754,0.5645751953125,8.026123046875,-17.15087890625
18.089999900000002,-0.9481038451194763,0.2968810200691223,-9.586383819580078,4.791259765625,8.392333984375,-18.157958984375
18.109999900000002,-0.8643068075180054,0.5578489899635315,-9.557653427124023,4.7454833984375,6.805419921875,-14.1754150390625
18.1299999,-0.7757213711738586,0.7829039692878723,-9.442731857299805,0.457763671875,4.7607421875,-9.46044921875
18.1499999,-0.6751648783683777,0.9169792532920837,-9.332598686218262,-2.7618408203125,1.2054443359375,-7.965087890625
18.1699999,-0.5937620401382446,0.9074024558067322,-9.217676162719727,-1.3885498046875,-1.15966796875,-8.697509765625
18.1899999,-0.5027823448181152,0.871489405632019,-9.241618156433105,-1.6632080078125,-3.173828125,-10.1318359375
18.2099999,-0.3878606855869293,0.8643068075180054,-9.346963882446289,-1.3885498046875,-3.692626953125,-8.6669921875
18.2299999,-0.2537853717803955,0.9097966551780701,-9.53849983215332,0.518798828125,-2.6092529296875,-2.5177001953125
18.249999900000002,-0.10534487664699554,0.9576807022094727,-9.765948295593262,0.6866455078125,-2.99072265625,1.9683837890625
18.269999900000002,0.019153613597154617,0.9193734526634216,-9.99100399017334,1.8768310546875,-2.38037109375,4.791259765625
18.2899999,0.07661445438861847,0.7230489253997803,-10.168174743652344,2.7008056640625,0.1068115234375,6.34765625
18.3099999,0.06224924325942993,0.4165911078453064,-10.29746150970459,1.1444091796875,1.953125,5.1116943359375
18.3299999,-0.004788403399288654,0.06703764945268631,-10.350133895874023,0.946044921875,2.9754638671875,1.678466796875
18.3499999,-0.09816227108240128,-0.2082955539226532,-10.311826705932617,0.9002685546875,3.662109375,-1.190185546875
18.3699999,-0.1843535304069519,-0.3734954595565796,-10.220847129821777,1.190185546875,3.7078857421875,-1.0986328125
18.3899999,-0.2322375625371933,-0.3902548849582672,-10.096348762512207,-0.2899169921875,3.9520263671875,-1.007080078125
18.409999900000003,-0.23942017555236816,-0.31842881441116333,-9.96945571899414,0.79345703125,4.21142578125,-0.8697509765625
18.429999900000002,-0.19871874153614044,-0.19632454216480255,-9.859322547912598,2.62451171875,4.2877197265625,-1.28173828125
18.4499999,-0.12689268589019775,-0.0694318488240242,-9.801861763000488,0.8392333984375,3.0670166015625,-1.373291015625
18.4699999,-0.05027823522686958,0.06224924325942993,-9.744400978088379,0.091552734375,4.3182373046875,-1.678466796875
18.4899999,0.009576806798577309,0.17717093229293823,-9.713275909423828,0.3662109375,3.90625,-0.8087158203125
18.5099999,0.031124621629714966,0.272938996553421,-9.694122314453125,-0.30517578125,2.3651123046875,0.48828125
18.5299999,0.019153613597154617,0.31364041566848755,-9.679757118225098,0.213623046875,0.9002685546875,1.6937255859375
18.5499999,-0.0071826050989329815,0.3280056416988373,-9.6989107131958,0.8697509765625,0.885009765625,0.2899169921875
18.5699999,-0.031124621629714966,0.2968810200691223,-9.742006301879883,3.387451171875,0.8392333984375,-0.0457763671875
18.589999900000002,-0.0454898327589035,0.27054479718208313,-9.78989028930664,3.936767578125,1.15966796875,0.9613037109375
18.609999900000002,-0.047884032130241394,0.24181437492370605,-9.856928825378418,1.9989013671875,0.732421875,2.62451171875
18.6299999,-0.0454898327589035,0.1867477297782898,-9.9000244140625,1.0833740234375,1.52587890625,4.4097900390625
18.6499999,-0.038307227194309235,0.090979665517807,-9.938331604003906,1.1749267578125,1.89208984375,3.23486328125
18.6699999,-0.031124621629714966,-0.009576806798577309,-9.931148529052734,2.44140625,2.3040771484375,0.4730224609375
18.6899999,-0.035913024097681046,-0.13407529890537262,-9.861717224121094,1.739501953125,2.227783203125,1.708984375
18.7099999,-0.033518824726343155,-0.13407529890537262,-9.847352027893066,1.2054443359375,1.3580322265625,1.708984375
18.7299999,-0.033518824726343155,-0.13168109953403473,-9.818621635437012,2.0751953125,1.8768310546875,0.5950927734375
18.749999900000002,-0.023942016065120697,-0.11971008777618408,-9.825803756713867,1.5869140625,1.5411376953125,-0.42724609375
18.769999900000002,-0.016759412363171577,-0.12210428714752197,-9.801861763000488,0.9918212890625,1.5411376953125,0.1373291015625
18.7899999,-0.019153613597154617,-0.09816227108240128,-9.806650161743164,0.762939453125,0.7476806640625,-0.3204345703125
18.8099999,-0.016759412363171577,-0.047884032130241394,-9.797073364257812,2.4261474609375,1.1138916015625,-1.2054443359375
18.8299999,-0.016759412363171577,-0.002394201699644327,-9.799467086791992,1.953125,1.6021728515625,0.579833984375
18.8499999,-0.014365210197865963,0.0454898327589035,-9.821015357971191,0.5950927734375,0.762939453125,2.0294189453125
18.8699999,-0.016759412363171577,0.05506663769483566,-9.828198432922363,0.3814697265625,1.129150390625,2.2430419921875
18.8899999,-0.016759412363171577,0,-9.86889934539795,0.091552734375,0.7781982421875,1.800537109375
18.909999900000003,-0.019153613597154617,-0.07661445438861847,-9.890447616577148,0.1678466796875,2.1209716796875,0.8392333984375
18.929999900000002,-0.011971008032560349,-0.15322890877723694,-9.909601211547852,-0.06103515625,2.227783203125,-0.3814697265625
18.9499999,0,-0.18914192914962769,-9.890447616577148,-0.18310546875,2.2125244140625,-0.8544921875
18.9699999,0.014365210197865963,-0.2059013396501541,-9.830592155456543,-0.213623046875,1.6937255859375,-0.1678466796875
18.9899999,0.028730420395731926,-0.21787235140800476,-9.758766174316406,-1.15966796875,0.732421875,0.1678466796875
19.0099999,0.035913024097681046,-0.2537853717803955,-9.68933391571045,-0.8544921875,0.0152587890625,-0.79345703125
19.0299999,0.035913024097681046,-0.2777273952960968,-9.660603523254395,0.6561279296875,-0.67138671875,-2.9144287109375
19.0499999,0.028730420395731926,-0.28730419278144836,-9.66539192199707,1.068115234375,-0.762939453125,-3.41796875
19.0699999,0.021547814831137657,-0.22026655077934265,-9.718064308166504,-1.40380859375,-1.28173828125,-3.265380859375
19.089999900000002,0.011971008032560349,-0.10534487664699554,-9.782708168029785,-0.9613037109375,-0.48828125,-1.861572265625
19.109999900000002,0,0.021547814831137657,-9.84256362915039,-1.1444091796875,-0.457763671875,-0.152587890625
19.1299999,-0.009576806798577309,0.13407529890537262,-9.9000244140625,-1.8157958984375,-0.579833984375,-0.0152587890625
19.1499999,-0.019153613597154617,0.19871874153614044,-9.919178009033203,-0.3814697265625,-0.244140625,-0.3814697265625
19.1699999,-0.026336219161748886,0.22026655077934265,-9.921571731567383,1.3580322265625,-0.030517578125,0.3509521484375
19.1899999,-0.033518824726343155,0.19393034279346466,-9.914389610290527,1.495361328125,-0.3662109375,1.46484375
19.2099999,-0.040701430290937424,0.13168109953403473,-9.907206535339355,0.91552734375,-0.8392333984375,1.46484375
19.2299999,-0.05267243832349777,0.040701430290937424,-9.911994934082031,0.6256103515625,-0.091552734375,1.007080078125
19.249999900000002,-0.05985504388809204,-0.040701430290937424,-9.938331604003906,1.0223388671875,0.5340576171875,0.5950927734375
19.269999900000002,-0.06464344263076782,-0.11013327538967133,-9.940725326538086,1.15966796875,1.251220703125,0.8087158203125
19.2899999,-0.05746084079146385,-0.13407529890537262,-9.943120002746582,0.6103515625,0.946044921875,0.67138671875
19.3099999,-0.05506663769483566,-0.1388636976480484,-9.911994934082031,0.213623046875,0.762939453125,0.5340576171875
19.3299999,-0.05027823522686958,-0.13407529890537262,-9.8784761428833,1.0833740234375,0.6561279296875,0.8697509765625
19.3499999,-0.05027823522686958,-0.12689268589019775,-9.861717224121094,0.9918212890625,0.3814697265625,0.30517578125
19.3699999,-0.05267243832349777,-0.12210428714752197,-9.84495735168457,1.2054443359375,0.9002685546875,0.06103515625
19.3899999,-0.05267243832349777,-0.11013327538967133,-9.86650562286377,1.3275146484375,0.91552734375,-0.152587890625
19.409999900000003,-0.05267243832349777,-0.0933738648891449,-9.86889934539795,1.6632080078125,1.52587890625,0.3204345703125
19.429999900000002,-0.0454898327589035,-0.05746084079146385,-9.876082420349121,1.2054443359375,1.2664794921875,0.30517578125
19.4499999,-0.043095629662275314,-0.047884032130241394,-9.856928825378418,1.068115234375,1.007080078125,1.46484375
19.4699999,-0.033518824726343155,-0.035913024097681046,-9.832986831665039,0.3204345703125,0.7171630859375,1.4495849609375
19.4899999,-0.033518824726343155,-0.07661445438861847,-9.787496566772461,1.129150390625,0.9307861328125,1.617431640625
19.5099999,-0.035913024097681046,-0.12210428714752197,-9.765948295593262,1.0223388671875,0.0152587890625,0.823974609375
19.5299999,-0.040701430290937424,-0.16998831927776337,-9.75397777557373,0.701904296875,-0.79345703125,-0.244140625
19.5499999,-0.047884032130241394,-0.19393034279346466,-9.775525093078613,1.0223388671875,-0.4119873046875,0.1068115234375
19.5699999,-0.05027823522686958,-0.20350714027881622,-9.813833236694336,0.732421875,0.335693359375,0.6103515625
19.589999900000002,-0.05027823522686958,-0.19153612852096558,-9.852140426635742,0.274658203125,0.1678466796875,0.4425048828125
19.609999900000002,-0.05506663769483566,-0.18914192914962769,-9.8784761428833,0.518798828125,0.244140625,0.2899169921875
19.6299999,-0.05506663769483566,-0.17477671802043915,-9.895236015319824,0.244140625,0.274658203125,-0.0457763671875
19.6499999,-0.05506663769483566,-0.15083470940589905,-9.892841339111328,0.4425048828125,0.48828125,-0.06103515625
19.6699999,-0.05506663769483566,-0.12928688526153564,-9.888052940368652,0.06103515625,0.6103515625,0.885009765625
19.6899999,-0.05746084079146385,-0.1149216815829277,-9.86889934539795,-0.0457763671875,0.5950927734375,1.3275146484375
19.7099999,-0.05985504388809204,-0.10773907601833344,-9.849745750427246,0.54931640625,0.4425048828125,0.2899169921875
19.7299999,-0.06464344263076782,-0.11013327538967133,-9.837775230407715,0.91552734375,0.2899169921875,0.0152587890625
19.749999900000002,-0.06703764945268631,-0.1149216815829277,-9.84495735168457,0.6103515625,0.335693359375,0.9613037109375
19.769999900000002,-0.0694318488240242,-0.11971008777618408,-9.854534149169922,0.67138671875,0.9765625,1.4495849609375
19.7899999,-0.07661445438861847,-0.14844051003456116,-9.873687744140625,0.823974609375,1.129150390625,1.190185546875
19.8099999,-0.090979665517807,-0.19153612852096558,-9.86650562286377,1.0528564453125,1.0528564453125,0.030517578125
19.8299999,-0.09576806426048279,-0.2322375625371933,-9.861717224121094,0.6561279296875,-0.091552734375,-0.762939453125
19.8499999,-0.09816227108240128,-0.2537853717803955,-9.861717224121094,0.1068115234375,0.0457763671875,-0.3662109375
19.8699999,-0.090979665517807,-0.26096799969673157,-9.859322547912598,0.3662109375,1.0223388671875,0.1373291015625
19.8899999,-0.08140286058187485,-0.2537853717803955,-9.885659217834473,-0.091552734375,0.9765625,-0.2899169921875
19.909999900000003,-0.07661445438861847,-0.23942017555236816,-9.876082420349121,0.2899169921875,1.40380859375,-1.0833740234375
19.929999900000002,-0.07182604819536209,-0.22266076505184174,-9.86650562286377,0.0152587890625,0.8697509765625,-1.28173828125
19.9499999,-0.0694318488240242,-0.19871874153614044,-9.828198432922363,0.06103515625,0.8697509765625,-0.67138671875
19.9699999,-0.06464344263076782,-0.1604115068912506,-9.81143856048584,-0.5340576171875,-0.396728515625,-0.335693359375
19.9899999,-0.06224924325942993,-0.1364694982767105,-9.804255485534668,-0.518798828125,0.0762939453125,0.640869140625
20.0099999,-0.06464344263076782,-0.12928688526153564,-9.823410034179688,0.1068115234375,0.9613037109375,0.5340576171875
20.0299999,-0.06703764945268631,-0.12928688526153564,-9.84256362915039,0.3509521484375,0.9613037109375,-0.518798828125
20.0499999,-0.07182604819536209,-0.1388636976480484,-9.859322547912598,0.06103515625,0.3662109375,-0.518798828125
20.0699999,-0.07661445438861847,-0.1388636976480484,-9.861717224121094,0.6561279296875,0.6866455078125,0.518798828125
20.089999900000002,-0.07900865375995636,-0.11971008777618408,-9.864110946655273,1.8310546875,0.7781982421875,0.54931640625
20.109999900000002,-0.08619125932455063,-0.10534487664699554,-9.86650562286377,1.922607421875,0.8087158203125,0.701904296875
20.1299999,-0.09816227108240128,-0.11013327538967133,-9.861717224121094,0.701904296875,1.2054443359375,1.3275146484375
20.1499999,-0.10773907601833344,-0.14604631066322327,-9.840168952941895,0.7476806640625,1.3275146484375,1.190185546875
20.1699999,-0.10773907601833344,-0.19871874153614044,-9.818621635437012,0.579833984375,0.3662109375,0.091552734375
