# Time (seconds),Accel_X,Accel_Y,Accel_Z,Gyro_X,Gyro_Y,Gyro_Z
0.0099999,0.8307880163192749,-12.320562362670898,2.1092917919158936,-5.31005859375,-57.5714111328125,-32.7301025390625
0.029999900000000003,0.7589619159698486,-12.519280433654785,1.7405846118927002,2.6702880859375,-61.431884765625,-37.384033203125
0.0499999,0.7781155705451965,-12.717999458312988,1.1971008777618408,-23.49853515625,-62.2711181640625,-41.4581298828125
0.0699999,0.9026140570640564,-12.770671844482422,0.3519476354122162,-46.44775390625,-63.690185546875,-53.680419921875
0.08999990000000001,1.1348515748977661,-12.78503704071045,-0.608127236366272,-33.935546875,-54.901123046875,-67.2607421875
0.10999990000000001,1.4413094520568848,-12.655750274658203,-1.6879122257232666,-8.6517333984375,-41.839599609375,-65.765380859375
0.1299999,1.8100165128707886,-12.126631736755371,-2.626439332962036,0.42724609375,-27.587890625,-69.27490234375
0.14999990000000002,2.185906171798706,-11.348516464233398,-3.3279404640197754,-2.38037109375,-18.37158203125,-68.90869140625
0.1699999,2.513911724090576,-10.357316970825195,-3.73016619682312,-4.180908203125,-11.1541748046875,-63.8885498046875
0.1899999,2.7437551021575928,-9.301473617553711,-3.9384617805480957,-1.9683837890625,-4.7607421875,-60.48583984375
0.20999990000000002,2.87064790725708,-8.315062522888184,-4.089296340942383,3.5400390625,4.0130615234375,-56.488037109375
0.2299999,2.8993782997131348,-7.457938194274902,-4.28322696685791,-1.6937255859375,14.3890380859375,-49.98779296875
0.2499999,2.8586769104003906,-6.720524311065674,-4.553771495819092,-10.5133056640625,26.7486572265625,-43.0145263671875
0.2699999,2.765302896499634,-6.256049156188965,-4.831499099731445,-10.0250244140625,39.48974609375,-29.8614501953125
0.28999990000000003,2.6408045291900635,-6.119579315185547,-5.020640850067139,-1.64794921875,52.0782470703125,-21.1639404296875
0.3099999,2.518700122833252,-6.200982570648193,-4.9799394607543945,3.326416015625,62.31689453125,-25.909423828125
0.3299999,2.43011474609375,-6.452373504638672,-4.661510944366455,-1.7547607421875,68.0694580078125,-27.496337890625
0.34999990000000003,2.3918075561523438,-6.593631267547607,-4.005499362945557,-9.2926025390625,70.6787109375,-21.2860107421875
0.3699999,2.427720546722412,-6.698976516723633,-3.2609026432037354,-7.4005126953125,65.91796875,-10.9710693359375
0.3899999,2.497152328491211,-6.710947513580322,-2.5522189140319824,-0.3814697265625,62.4847412109375,-9.1705322265625
0.40999990000000003,2.58813214302063,-6.718130111694336,-1.8842366933822632,2.9144287109375,70.98388671875,-12.298583984375
0.4299999,2.6599581241607666,-6.720524311065674,-1.4413094520568848,-0.2288818359375,70.220947265625,-4.1961669921875
0.4499999,2.7126305103302,-6.655880928039551,-1.1779472827911377,-10.7269287109375,61.798095703125,6.3018798828125
0.4699999,2.7102363109588623,-6.653486728668213,-0.8906430602073669,-4.547119140625,74.615478515625,17.1051025390625
0.4899999,2.7030537128448486,-6.5265936851501465,-0.7924807667732239,1.953125,77.362060546875,20.1416015625
0.5099999,2.655169725418091,-6.464344501495361,-0.6153098344802856,4.608154296875,77.9876708984375,34.332275390625
0.5299999,2.580949544906616,-6.268020153045654,-0.2561795711517334,2.899169921875,88.3636474609375,51.910400390625
0.5499999,2.4588451385498047,-6.098031520843506,0.12210428714752197,-6.317138671875,85.8917236328125,67.44384765625
0.5699999,2.255337953567505,-6.081272125244141,0.667982280254364,-10.589599609375,84.53369140625,82.1075439453125
0.5899998999999999,1.9584569931030273,-6.428431510925293,1.4628572463989258,-0.6256103515625,91.8731689453125,94.970703125
0.6099998999999999,1.6136919260025024,-6.993463039398193,2.5067291259765625,3.60107421875,88.5009765625,99.8382568359375
0.6299999,1.015141487121582,-8.252813339233398,4.505887508392334,-64.605712890625,31.1126708984375,109.1156005859375
0.6499999,0.8451532125473022,-8.317456245422363,4.898536682128906,-53.22265625,28.5186767578125,124.969482421875
0.6699999,0.524330198764801,-8.611943244934082,4.948814868927002,-8.0718994140625,39.7186279296875,161.4227294921875
0.6899999,0.1364694982767105,-9.876082420349121,5.094861030578613,-1.8157958984375,43.060302734375,185.3179931640625
0.7099999,-0.4165911078453064,-10.78587818145752,5.389348030090332,-54.412841796875,0.6866455078125,79.254150390625
0.7299998999999999,-0.950498104095459,-12.466608047485352,5.032611846923828,-46.844482421875,-79.681396484375,62.255859375
0.7499998999999999,-1.4532804489135742,-14.501679420471191,4.314351558685303,9.521484375,-52.5360107421875,144.073486328125
0.7699999,-1.821987509727478,-16.735469818115234,2.913743495941162,-20.93505859375,-14.251708984375,105.316162109375
0.7899999,-2.099714994430542,-18.143260955810547,1.2665326595306396,-9.857177734375,-45.562744140625,-36.865234375
0.8099999,-2.1954829692840576,-18.59815788269043,0.33279404044151306,27.557373046875,-52.18505859375,-61.5997314453125
0.8299999,-2.0925323963165283,-16.725893020629883,-0.07661445438861847,29.8614501953125,-43.0755615234375,-5.706787109375
0.8499998999999999,-1.8770540952682495,-13.5870943069458,0.08619125932455063,-10.7879638671875,-56.21337890625,-3.875732421875
0.8699998999999999,-1.7142484188079834,-10.498574256896973,0.768538773059845,-23.4375,-65.704345703125,-15.9149169921875
0.8899999,-1.656787633895874,-8.42040729522705,1.4221558570861816,-18.98193359375,-85.693359375,-13.12255859375
0.9099999,-1.7046716213226318,-7.299921035766602,1.8555063009262085,-26.06201171875,-99.945068359375,-9.796142578125
0.9299999,-1.7812861204147339,-7.062894821166992,1.8100165128707886,-43.1671142578125,-94.66552734375,-16.6473388671875
0.9499999,-1.8148049116134644,-7.613561630249023,1.137245774269104,-52.2613525390625,-98.8616943359375,-17.8375244140625
0.9699998999999999,-1.7932571172714233,-8.571242332458496,0.21308395266532898,-36.0565185546875,-93.5211181640625,-20.5230712890625
0.9899998999999999,-1.6927006244659424,-9.677363395690918,-0.8810662031173706,-22.5372314453125,-82.6873779296875,-30.3955078125
1.0099999,-1.534683346748352,-10.680533409118652,-1.8171991109848022,-27.8167724609375,-77.606201171875,-35.33935546875
1.0299999,-1.3215993642807007,-11.561599731445312,-2.58813214302063,-32.958984375,-73.79150390625,-36.1785888671875
1.0499999,-1.0773907899856567,-12.24155330657959,-3.1052796840667725,-26.4434814453125,-67.0013427734375,-44.281005859375
1.0699999,-0.8140285611152649,-12.78264331817627,-3.375824451446533,-14.434814453125,-53.5430908203125,-59.6160888671875
1.0899999,-0.5410895943641663,-13.10107135772705,-3.469198226928711,-16.510009765625,-48.9654541015625,-71.6552734375
1.1099999,-0.2585737705230713,-13.139378547668457,-3.469198226928711,-27.64892578125,-49.37744140625,-78.094482421875
1.1299999,0.028730420395731926,-12.995726585388184,-3.4165258407592773,-30.029296875,-44.0216064453125,-81.0699462890625
1.1499999,0.31124621629714966,-12.763489723205566,-3.5458126068115234,-29.60205078125,-38.299560546875,-90.2557373046875
1.1699998999999999,0.569819986820221,-12.452242851257324,-3.861847400665283,-28.2135009765625,-32.6690673828125,-104.949951171875
1.1899998999999999,0.8164227604866028,-12.138602256774902,-4.290409564971924,-24.688720703125,-19.47021484375,-106.75048828125
1.2099999,1.0797849893569946,-11.583148002624512,-4.865017890930176,-29.083251953125,-10.1470947265625,-110.1531982421875
1.2299999,1.3742717504501343,-10.893617630004883,-5.523423194885254,-29.84619140625,-0.3204345703125,-112.3199462890625
1.2499999,1.6855180263519287,-10.146626472473145,-6.0597243309021,-20.9808349609375,23.345947265625,-105.621337890625
1.2699999,2.0015525817871094,-9.253589630126953,-6.495469093322754,-15.106201171875,41.5496826171875,-105.5145263671875
1.2899999,2.300827741622925,-8.446743965148926,-6.696582317352295,-6.7138671875,49.5758056640625,-95.916748046875
1.3099999,2.5713725090026855,-7.575253963470459,-6.653486728668213,2.44140625,64.056396484375,-88.4552001953125
1.3299999,2.8107926845550537,-6.768408298492432,-6.449979305267334,1.0833740234375,80.0628662109375,-80.169677734375
1.3499999,2.9951462745666504,-6.0836663246154785,-5.868188381195068,1.5106201171875,96.9696044921875,-66.741943359375
1.3699999,3.136404275894165,-5.600037574768066,-5.058948040008545,9.857177734375,98.2513427734375,-56.671142578125
1.3899999,3.251325845718384,-5.2265424728393555,-4.082113742828369,12.14599609375,88.0279541015625,-50.7354736328125
1.4099999,3.3518824577331543,-4.95120906829834,-3.1076738834381104,9.246826171875,93.2769775390625,-44.9066162109375
1.4299998999999999,3.4332852363586426,-4.67827033996582,-2.293645143508911,4.425048828125,103.3477783203125,-30.0140380859375
1.4499999,3.44765043258667,-4.587290287017822,-1.5466543436050415,-0.457763671875,104.0802001953125,-14.8773193359375
1.4699999,3.4117374420166016,-4.613626480102539,-0.7709329724311829,-1.03759765625,96.9085693359375,-10.3912353515625
1.4899999,3.332728862762451,-4.654327869415283,-0.10295066982507706,-10.1470947265625,82.763671875,-10.3912353515625
1.5099999,3.2800562381744385,-4.599261283874512,0.2825157940387726,-19.7601318359375,77.117919921875,6.072998046875
1.5299999,3.2106244564056396,-4.302380561828613,0.35673606395721436,-23.3612060546875,84.5947265625,29.5562744140625
1.5499999,3.0861260890960693,-4.137180328369141,0.4141969084739685,-15.44189453125,97.0458984375,52.398681640625
1.5699999,2.8850131034851074,-4.151545524597168,0.5674257874488831,-6.134033203125,87.646484375,62.1185302734375
1.5899999,2.6599581241607666,-4.218583583831787,0.8738836050033569,-12.054443359375,66.192626953125,60.1654052734375
1.6099999,2.4660277366638184,-4.266467571258545,1.0773907899856567,-25.1617431640625,61.03515625,80.7647705078125
1.6299999,2.2625205516815186,-4.213795185089111,1.0678139925003052,-30.914306640625,71.075439453125,111.7706298828125
1.6499999,2.0015525817871094,-4.6255974769592285,1.1444283723831177,-12.8936767578125,88.7451171875,139.6026611328125
1.6699999,1.723825216293335,-5.329493045806885,1.381454348564148,-16.876220703125,76.507568359375,130.157470703125
1.6899998999999999,1.4245500564575195,-6.138733386993408,1.8387469053268433,-73.2269287109375,50.1708984375,114.288330078125
1.7099999,1.0965443849563599,-6.742072105407715,2.5234885215759277,-124.969482421875,54.0008544921875,150.634765625
1.7299999,0.5889736413955688,-8.197746276855469,3.3016040325164795,-127.0904541015625,54.5654296875,214.53857421875
1.7499999,0.016759412363171577,-9.909601211547852,4.228160381317139,-105.95703125,25.5584716796875,190.0177001953125
1.7699999,-0.6536170840263367,-12.097901344299316,4.565742492675781,-98.9837646484375,-48.2025146484375,108.5205078125
1.7899999,-1.1971008777618408,-14.16409683227539,4.525041103363037,-14.22119140625,-53.741455078125,121.0174560546875
1.8099999,-1.680729627609253,-16.139312744140625,3.7660791873931885,34.8968505859375,-36.407470703125,151.8402099609375
1.8299999,-1.944091796875,-16.970102310180664,2.6455929279327393,20.965576171875,-61.4166259765625,70.1751708984375
1.8499999,-2.161964178085327,-17.403451919555664,1.2856862545013428,5.2337646484375,-102.0050048828125,-16.8304443359375
1.8699999,-2.123656988143921,-17.74103546142578,0.21787235140800476,-7.568359375,-70.86181640625,27.9388427734375
1.8899999,-1.8626888990402222,-16.555904388427734,-1.1899182796478271,-75.0732421875,-70.1751708984375,-1.6937255859375
1.9099999,-1.4676456451416016,-15.516820907592773,-2.121262788772583,-40.283203125,-66.3299560546875,-27.740478515625
1.9299998999999999,-1.0319008827209473,-13.953407287597656,-2.851494312286377,55.7403564453125,-64.2242431640625,-17.88330078125
1.9499999,-0.6153098344802856,-12.164938926696777,-2.9257144927978516,72.3114013671875,-54.13818359375,-16.326904296875
1.9699999,-0.27054479718208313,-10.450690269470215,-2.6240451335906982,19.256591796875,-49.0264892578125,-8.9111328125
1.9899999,-0.0694318488240242,-9.114726066589355,-1.9177556037902832,-29.4189453125,-55.0079345703125,-16.357421875
2.0099999,0.011971008032560349,-8.540117263793945,-1.1683704853057861,-32.2723388671875,-62.591552734375,-18.06640625
2.0299999,0.028730420395731926,-8.429984092712402,-0.8427590131759644,-16.41845703125,-71.319580078125,-23.3154296875
2.0499999,0.014365210197865963,-8.772355079650879,-1.036689281463623,-16.3421630859375,-58.0902099609375,-21.1944580078125
2.0699999,-0.033518824726343155,-9.263166427612305,-1.4508862495422363,-24.71923828125,-32.0892333984375,-18.6614990234375
2.0899999,-0.14365209639072418,-9.806650161743164,-1.8339585065841675,-27.2674560546875,-34.7900390625,-23.4832763671875
2.1099999,-0.2849099934101105,-10.450690269470215,-2.207453966140747,-7.62939453125,-66.131591796875,-25.0091552734375
2.1299999,-0.3663128614425659,-11.08754825592041,-2.5258827209472656,2.50244140625,-64.4073486328125,-26.9012451171875
2.1499999,-0.33518823981285095,-11.463438034057617,-3.026270866394043,-26.2451171875,-34.1796875,-47.6531982421875
2.1699999,-0.1364694982767105,-12.102689743041992,-3.7876269817352295,-28.9764404296875,-14.1143798828125,-64.300537109375
2.1899999,-0.12928688526153564,-12.20803451538086,-3.6104562282562256,-2.01416015625,-22.8424072265625,-70.3887939453125
2.2099999,-0.14365209639072418,-12.318167686462402,-3.318363666534424,-2.044677734375,-35.8734130859375,-62.896728515625
2.2299999,-0.14365209639072418,-12.085929870605469,-3.1052796840667725,-38.4674072265625,-31.8756103515625,-86.0748291015625
2.2499999,-0.08619125932455063,-12.145785331726074,-3.2106244564056396,-45.1507568359375,-22.1405029296875,-93.44482421875
2.2699999,-0.014365210197865963,-12.050017356872559,-3.687070608139038,-21.6522216796875,-17.5018310546875,-101.0894775390625
2.2899999,0.05267243832349777,-11.987768173217773,-4.1874589920043945,1.617431640625,-2.7313232421875,-106.4605712890625
2.3099999,0.09816227108240128,-11.994950294494629,-4.745307922363281,-0.3662109375,6.2713623046875,-106.048583984375
2.3299999,0.14365209639072418,-11.906365394592285,-4.963180065155029,-23.529052734375,14.4805908203125,-118.865966796875
2.3499999,0.27054479718208313,-11.676521301269531,-5.006275653839111,-38.5284423828125,13.427734375,-140.5181884765625
2.3699999,0.524330198764801,-10.876858711242676,-5.032611846923828,-23.590087890625,13.7786865234375,-148.712158203125
2.3899999,0.9552865028381348,-9.821015357971191,-5.0876784324646,11.260986328125,35.8123779296875,-123.10791015625
2.4099999,1.4939818382263184,-8.461109161376953,-5.190629482269287,9.674072265625,56.82373046875,-102.5390625
2.4299999,2.078166961669922,-7.242460250854492,-5.307945251464844,-19.6990966796875,58.9141845703125,-105.8349609375
2.4499999,2.631227731704712,-6.299144744873047,-5.360617637634277,-32.8521728515625,58.441162109375,-101.5472412109375
2.4699999,3.1483752727508545,-5.556941986083984,-5.430049419403076,-16.1895751953125,74.859619140625,-82.3822021484375
2.4899999,3.603273630142212,-4.802768707275391,-5.547365188598633,8.1329345703125,94.451904296875,-63.0950927734375
2.5099999,3.995922565460205,-4.170699596405029,-5.506663799285889,26.30615234375,110.931396484375,-44.1131591796875
2.5299999,4.256890773773193,-3.5242648124694824,-5.219359874725342,18.7530517578125,116.0736083984375,-33.0810546875
2.5499999,4.371812343597412,-3.0190882682800293,-4.575319290161133,5.2947998046875,123.7030029296875,-13.885498046875
2.5699999,4.376600742340088,-2.52109432220459,-3.6583402156829834,2.349853515625,130.218505859375,6.591796875
2.5899999,4.247313976287842,-1.965639591217041,-2.6671407222747803,6.8359375,126.1444091796875,22.7813720703125
2.6099999,4.034229755401611,-1.6112977266311646,-1.659181833267212,11.53564453125,124.481201171875,49.7894287109375
2.6299999,3.7277719974517822,-1.292868971824646,-0.6775590777397156,-9.1705322265625,125.18310546875,67.840576171875
2.6499999,3.378218650817871,-1.400607943534851,0.1628057211637497,-45.10498046875,116.5771484375,80.99365234375
2.6699999,2.9664158821105957,-1.8818424940109253,1.0893617868423462,-58.1817626953125,105.743408203125,96.9696044921875
2.6899999,2.5905263423919678,-2.612074136734009,1.8746598958969116,-41.56494140625,89.752197265625,106.8267822265625
2.7099999,2.248155355453491,-3.469198226928711,2.5977089405059814,-13.1072998046875,75.531005859375,125.7171630859375
2.7299999,1.9393033981323242,-4.352658748626709,3.2082302570343018,-2.0904541015625,72.998046875,145.81298828125
2.7499999,1.6208745241165161,-5.360617637634277,3.77565598487854,-17.76123046875,65.4296875,156.6009521484375
2.7699999,1.2497732639312744,-6.871358871459961,4.388571739196777,-52.642822265625,47.30224609375,151.4892578125
2.7899999,0.9026140570640564,-8.456320762634277,4.910507678985596,-100.1434326171875,20.416259765625,120.3460693359375
2.8099999,0.6416460275650024,-10.153809547424316,5.078101634979248,-142.7001953125,-0.4119873046875,98.5870361328125
2.8299999,0.45010992884635925,-11.75553035736084,4.824316501617432,-159.8968505859375,6.53076171875,105.377197265625
2.8499999,0.05506663769483566,-12.947842597961426,5.123591423034668,-141.7999267578125,29.1290283203125,94.879150390625
2.8699999,-0.42377370595932007,-13.311761856079102,5.559336185455322,-43.6859130859375,-44.6319580078125,75.6683349609375
2.8899999,-1.0342950820922852,-13.951013565063477,4.5609540939331055,26.06201171875,-215.8050537109375,134.2315673828125
2.9099999,-1.5682021379470825,-14.396334648132324,3.31118106842041,58.7921142578125,-145.0347900390625,148.193359375
2.9299999,-1.9057846069335938,-15.49527359008789,0.727837324142456,29.022216796875,-40.2679443359375,83.404541015625
2.9499999,-2.027888774871826,-16.970102310180664,-2.0470423698425293,-34.0576171875,-104.00390625,12.0391845703125
2.9699999,-1.9632453918457031,-17.87032127380371,-3.6846764087677,-32.562255859375,-130.79833984375,-23.3612060546875
2.9899999,-1.7908629179000854,-17.702728271484375,-4.426878929138184,17.7764892578125,-94.329833984375,-32.5927734375
3.0099999,-1.5107412338256836,-16.63730812072754,-4.364629745483398,52.581787109375,-68.115234375,-24.90234375
3.0299999,-1.3048399686813354,-14.844050407409668,-3.6750996112823486,-7.7056884765625,-97.412109375,-58.9599609375
3.0499999,-1.259350061416626,-13.151350021362305,-2.293645143508911,-67.6727294921875,-116.729736328125,-88.7298583984375
3.0699999,-1.3192051649093628,-11.793837547302246,-1.2737152576446533,-49.0570068359375,-139.70947265625,-86.181640625
3.0899999,-1.3742717504501343,-10.704475402832031,-0.6799532771110535,1.89208984375,-144.6075439453125,-86.0137939453125
3.1099999,-1.3120225667953491,-10.043676376342773,-0.9576807022094727,4.058837890625,-142.974853515625,-91.5374755859375
3.1299999,-1.115697979927063,-9.651026725769043,-1.7334020137786865,-12.4053955078125,-136.1541748046875,-99.7314453125
3.1499999,-0.7326257228851318,-9.251194953918457,-3.0166940689086914,-11.0321044921875,-130.2032470703125,-103.57666015625
3.1699999,-0.24899697303771973,-8.983044624328613,-4.369418144226074,2.9754638671875,-113.922119140625,-89.7369384765625
3.1899999,0.26096799969673157,-9.153033256530762,-5.367800235748291,28.3203125,-78.3538818359375,-66.8182373046875
3.2099999,0.7541735172271729,-9.50737476348877,-6.045359134674072,26.91650390625,-78.06396484375,-81.6802978515625
3.2299999,1.2186486721038818,-10.196905136108398,-6.476315498352051,19.805908203125,-81.573486328125,-96.8475341796875
3.2499999,1.5705963373184204,-11.12346076965332,-6.528987884521484,26.702880859375,-49.9725341796875,-85.4644775390625
3.2699999,1.900996208190918,-11.693281173706055,-6.493074893951416,44.3572998046875,-19.59228515625,-93.1243896484375
3.2899999,2.2146365642547607,-12.045228958129883,-6.524199485778809,44.3115234375,-34.24072265625,-105.1177978515625
3.3099999,2.4684219360351562,-12.155362129211426,-6.203376770019531,53.955078125,-18.2037353515625,-103.7445068359375
3.3299999000000002,2.7293899059295654,-11.78904914855957,-5.817910194396973,50.59814453125,4.5623779296875,-111.38916015625
3.3499999,3.028665065765381,-11.202469825744629,-5.552153587341309,19.439697265625,-3.9825439453125,-116.6839599609375
3.3699999,3.335123062133789,-10.366893768310547,-5.298368453979492,3.326416015625,-1.0528564453125,-112.548828125
3.3899999,3.6583402156829834,-9.442731857299805,-5.16429328918457,7.14111328125,25.6500244140625,-108.306884765625
3.4099999,3.97916316986084,-8.456320762634277,-5.236119270324707,-1.5411376953125,39.3218994140625,-106.62841796875
3.4299999,4.273650169372559,-7.405265808105469,-5.396530628204346,-10.7421875,43.365478515625,-102.72216796875
3.4499999,4.537012100219727,-6.380547523498535,-5.614402770996094,-3.0364990234375,58.013916015625,-86.42578125
3.4699999,4.721365928649902,-5.427655220031738,-5.75326681137085,11.138916015625,84.1064453125,-65.2008056640625
3.4899999,4.797980308532715,-4.812345504760742,-5.602431774139404,13.2904052734375,105.133056640625,-52.4139404296875
3.5099999,4.745307922363281,-4.410119533538818,-5.066130638122559,-2.9449462890625,104.5379638671875,-56.7779541015625
3.5299999,4.577713489532471,-4.290409564971924,-4.046200752258301,-9.1094970703125,102.2796630859375,-51.4984130859375
3.5499999,4.4077253341674805,-4.141968727111816,-3.045424461364746,-17.2576904296875,96.7864990234375,-38.14697265625
3.5699999,4.218583583831787,-3.9695863723754883,-1.9512743949890137,-22.8271484375,101.74560546875,-25.665283203125
3.5899999,4.07014274597168,-3.7014358043670654,-0.9911994934082031,-21.8505859375,107.025146484375,-15.3961181640625
3.6099999,3.9169139862060547,-3.2776620388031006,-0.18914192914962769,-40.0848388671875,87.493896484375,-8.2855224609375
3.6299999,3.7900211811065674,-2.676717519760132,0.40940847992897034,-56.45751953125,77.7740478515625,9.7198486328125
3.6499999,3.6511576175689697,-2.2146365642547607,0.7182605266571045,-47.149658203125,82.6263427734375,40.771484375
3.6699999,3.5003228187561035,-1.8267759084701538,0.9528923034667969,-27.28271484375,94.207763671875,56.243896484375
3.6899999,3.0597896575927734,-1.7286136150360107,1.2713210582733154,-65.338134765625,70.1141357421875,78.3233642578125
3.7099999,2.75812029838562,-2.099714994430542,1.4963760375976562,-50.2166748046875,72.6776123046875,112.7166748046875
3.7299999,2.425326347351074,-2.827552318572998,1.8124107122421265,-26.5960693359375,76.4007568359375,126.8310546875
3.7499999,2.1045033931732178,-3.864241600036621,2.3535003662109375,-54.99267578125,65.216064453125,117.3553466796875
3.7699999,1.889025092124939,-5.03021764755249,2.676717519760132,-115.3106689453125,32.2113037109375,118.0572509765625
3.7899999,1.7621324062347412,-6.777985095977783,2.5546131134033203,-90.6829833984375,22.9949951171875,159.72900390625
3.8099999,1.659181833267212,-8.863334655761719,2.580949544906616,-7.3699951171875,88.409423828125,162.5518798828125
3.8299999000000002,1.5538369417190552,-11.192893028259277,3.0406360626220703,0.30517578125,102.8594970703125,109.6954345703125
3.8499999,1.4197616577148438,-12.933477401733398,4.2090067863464355,-55.9539794921875,14.190673828125,72.174072265625
3.8699999,1.3311761617660522,-13.900734901428223,5.4228668212890625,-124.725341796875,-75.531005859375,98.6175537109375
3.8899999,1.280897855758667,-13.536816596984863,5.688623428344727,-99.700927734375,-80.9173583984375,105.4229736328125
3.9099999,1.2234370708465576,-14.144943237304688,4.558559894561768,3.814697265625,-65.49072265625,140.228271484375
3.9299999,1.115697979927063,-13.749900817871094,2.7317841053009033,51.9866943359375,-36.468505859375,68.4661865234375
3.9499999,0.8786720037460327,-13.82172679901123,0.9648633003234863,12.3748779296875,-52.4444580078125,44.952392578125
3.9699999,0.5746083855628967,-13.536816596984863,-0.07182604819536209,-32.04345703125,-57.9986572265625,104.2022705078125
3.9899999,0.2346317619085312,-13.2710599899292,-0.8212111592292786,-54.26025390625,-73.455810546875,96.3287353515625
4.0099999,-0.023942016065120697,-13.939042091369629,-1.37906014919281,-23.101806640625,-74.3560791015625,60.8978271484375
4.029999900000001,-0.20111294090747833,-14.709975242614746,-1.8722656965255737,14.434814453125,-54.595947265625,4.8370361328125
4.0499999,-0.2322375625371933,-15.334861755371094,-2.1715409755706787,22.7508544921875,-42.6788330078125,-0.701904296875
4.069999900000001,-0.23942017555236816,-14.985308647155762,-1.8770540952682495,14.6331787109375,-45.47119140625,-0.244140625
4.0899999000000005,-0.2944868206977844,-13.895946502685547,-1.1420341730117798,-2.899169921875,-61.4166259765625,-23.3001708984375
4.1099999,-0.4213795065879822,-12.634202003479004,-0.24899697303771973,-16.815185546875,-78.91845703125,-36.7889404296875
4.1299999000000005,-0.5985504388809204,-11.405977249145508,0.5123591423034668,-23.7579345703125,-85.1287841796875,-39.9169921875
4.1499999,-0.7541735172271729,-10.400412559509277,0.9169792532920837,-29.6630859375,-89.5233154296875,-48.2635498046875
4.1699999000000005,-0.8595184087753296,-9.782708168029785,0.9074024558067322,-42.510986328125,-104.4158935546875,-51.08642578125
4.1899999,-0.8738836050033569,-9.528923034667969,0.4908113479614258,-37.7349853515625,-113.922119140625,-54.473876953125
4.209999900000001,-0.7733271718025208,-9.533711433410645,-0.2585737705230713,-29.022216796875,-112.7471923828125,-59.783935546875
4.2299999,-0.5841852426528931,-9.821015357971191,-1.158793568611145,-41.1376953125,-104.583740234375,-67.19970703125
4.249999900000001,-0.2968810200691223,-10.249577522277832,-2.2409727573394775,-48.27880859375,-108.58154296875,-71.685791015625
4.2699999,0.05027823522686958,-10.776301383972168,-3.3470940589904785,-39.337158203125,-110.382080078125,-78.5980224609375
4.289999900000001,0.43095630407333374,-11.331756591796875,-4.383783340454102,-33.0963134765625,-87.890625,-86.73095703125
4.3099999,0.8451532125473022,-11.915942192077637,-5.4252610206604,-35.9344482421875,-75.347900390625,-93.0938720703125
4.329999900000001,1.2761094570159912,-12.270283699035645,-6.311115741729736,-37.6739501953125,-69.6563720703125,-107.97119140625
4.3499999,1.7262194156646729,-12.418724060058594,-7.12035608291626,-25.0701904296875,-58.929443359375,-113.739013671875
4.369999900000001,2.2002713680267334,-12.148179054260254,-7.8529815673828125,-10.3912353515625,-35.5682373046875,-115.3564453125
4.3899999,2.6886885166168213,-11.5065336227417,-8.561665534973145,-6.9732666015625,-10.9405517578125,-114.8681640625
4.409999900000001,3.1316158771514893,-10.666168212890625,-9.07641887664795,-10.92529296875,11.1083984375,-110.7177734375
4.4299999,3.488351821899414,-9.739612579345703,-9.349357604980469,-13.1378173828125,29.754638671875,-109.222412109375
4.449999900000001,3.7181951999664307,-8.96149730682373,-9.349357604980469,0.42724609375,45.440673828125,-106.0943603515625
4.4699999,3.845088005065918,-8.221688270568848,-9.0859956741333,20.7061767578125,62.9730224609375,-102.5390625
4.489999900000001,3.9169139862060547,-7.383718013763428,-8.705317497253418,23.1170654296875,73.8372802734375,-102.142333984375
4.5099999,3.955221176147461,-6.48828649520874,-8.20732307434082,13.2293701171875,88.3941650390625,-87.310791015625
4.529999900000001,3.976768970489502,-5.48272180557251,-7.6351094245910645,-2.899169921875,104.4464111328125,-71.9451904296875
4.5499999,3.9456443786621094,-4.793191909790039,-6.904877662658691,-5.1422119140625,118.4539794921875,-58.3953857421875
4.569999900000001,3.840299606323242,-4.4508209228515625,-5.896918773651123,11.9781494140625,125.518798828125,-51.5594482421875
4.5899999000000005,3.73016619682312,-4.256890773773193,-4.766855716705322,20.3857421875,116.943359375,-56.5338134765625
4.609999900000001,3.670311212539673,-4.055777549743652,-3.663128614425659,0.3814697265625,107.391357421875,-46.844482421875
4.6299999000000005,3.6535518169403076,-3.711012601852417,-2.7078421115875244,-25.7110595703125,112.6708984375,-27.9541015625
4.6499999,3.6535518169403076,-3.6343982219696045,-1.8842366933822632,-30.853271484375,115.5548095703125,-11.993408203125
4.6699999000000005,3.641580820083618,-3.5960910320281982,-1.1204863786697388,-22.6593017578125,103.4393310546875,-23.5137939453125
4.6899999,3.6296098232269287,-3.801992416381836,-0.3519476354122162,-4.1961669921875,89.66064453125,-19.34814453125
4.709999900000001,3.691859006881714,-3.754108190536499,0.29209262132644653,-5.5694580078125,83.953857421875,0.4425048828125
4.7299999,3.8355112075805664,-3.4739866256713867,0.689530074596405,-27.1759033203125,80.9783935546875,19.775390625
4.749999900000001,3.974374771118164,-3.3877954483032227,1.1563993692398071,-36.2548828125,85.2203369140625,37.3077392578125
4.7699999,4.0749311447143555,-3.509899616241455,1.7932571172714233,-33.99658203125,77.8045654296875,37.0330810546875
4.789999900000001,4.137180328369141,-3.995922565460205,2.4133553504943848,-15.350341796875,44.8760986328125,39.9017333984375
4.8099999,4.2090067863464355,-4.1611223220825195,2.978386878967285,2.13623046875,32.196044921875,48.9654541015625
4.829999900000001,4.28322696685791,-4.199429988861084,3.0573954582214355,-11.6424560546875,31.5399169921875,73.6236572265625
4.8499999,4.280832767486572,-4.376600742340088,2.8802247047424316,-37.109375,31.73828125,97.198486328125
4.869999900000001,4.1611223220825195,-4.862623691558838,2.719813108444214,-48.8433837890625,20.1263427734375,86.60888671875
4.8899999,3.9863457679748535,-5.746084213256836,2.3511061668395996,-29.8004150390625,-6.7596435546875,73.394775390625
4.909999900000001,3.8498764038085938,-6.694188117980957,2.030282974243164,7.8277587890625,-8.3465576171875,91.2322998046875
4.9299999,3.7852327823638916,-7.216124057769775,1.5322890281677246,12.3138427734375,8.331298828125,106.3690185546875
4.949999900000001,3.73016619682312,-7.905653953552246,1.094150185585022,-9.7808837890625,6.439208984375,120.7275390625
4.9699999,3.6296098232269287,-8.473079681396484,1.1300631761550903,-13.48876953125,-1.8463134765625,106.292724609375
4.989999900000001,3.509899616241455,-9.421183586120605,1.2330138683319092,8.72802734375,-23.4832763671875,95.550537109375
5.0099999,3.4093432426452637,-10.232817649841309,1.4772224426269531,40.771484375,-25.177001953125,106.7352294921875
5.029999900000001,3.2537200450897217,-10.8720703125,1.7693150043487549,36.4227294921875,-10.6048583984375,108.306884765625
5.0499999,3.021482467651367,-11.863269805908203,1.9177556037902832,-8.30078125,-28.4881591796875,101.4251708984375
5.069999900000001,2.7533318996429443,-12.528857231140137,1.6639702320098877,-44.464111328125,-66.6961669921875,64.4989013671875
5.0899999000000005,2.451662540435791,-13.39316463470459,1.292868971824646,-5.859375,-54.107666015625,50.7354736328125
5.109999900000001,2.209848165512085,-13.93664836883545,0.8762778043746948,43.51806640625,-22.9034423828125,60.4400634765625
5.1299999000000005,2.0231003761291504,-13.862427711486816,0.8307880163192749,9.307861328125,-43.2586669921875,39.55078125
5.1499999,1.8914192914962769,-13.804966926574707,0.9385270476341248,-52.0477294921875,-96.3592529296875,25.238037109375
5.1699999000000005,1.8195933103561401,-13.431471824645996,1.0199298858642578,-55.938720703125,-103.515625,8.97216796875
5.1899999,1.886630892753601,-13.206416130065918,0.569819986820221,-19.3023681640625,-74.9053955078125,2.13623046875
5.209999900000001,2.1571757793426514,-12.22000503540039,-1.3215993642807007,-21.728515625,-65.887451171875,-10.7879638671875
5.2299999,2.1954829692840576,-11.389217376708984,-2.1930887699127197,-26.2603759765625,-64.0869140625,-16.54052734375
5.249999900000001,2.1499931812286377,-10.445901870727539,-2.959233283996582,1.861572265625,-50.567626953125,-13.885498046875
5.2699999,2.011129379272461,-9.519346237182617,-3.488351821899414,22.39990234375,-32.806396484375,-0.244140625
5.289999900000001,1.8195933103561401,-8.956708908081055,-3.691859006881714,1.89208984375,-24.0936279296875,5.7525634765625
5.3099999,1.623268723487854,-8.760383605957031,-3.7277719974517822,-29.5562744140625,-36.56005859375,-3.7994384765625
5.329999900000001,1.4700398445129395,-8.932766914367676,-3.5194764137268066,-25.8941650390625,-31.5399169921875,-13.0462646484375
5.3499999,1.4173674583435059,-9.17697525024414,-3.3231520652770996,-8.697509765625,-20.660400390625,-12.1917724609375
5.369999900000001,1.501164436340332,-9.27034854888916,-3.1938650608062744,-9.613037109375,-18.341064453125,-9.613037109375
5.3899999,1.6711528301239014,-9.253589630126953,-3.0310592651367188,-25.9857177734375,-19.866943359375,-10.2081298828125
5.409999900000001,1.8986018896102905,-9.210494041442871,-3.0095114707946777,-34.7900390625,-19.3328857421875,-11.444091796875
5.4299999,2.1523873805999756,-9.224859237670898,-3.2130186557769775,-12.847900390625,-14.617919921875,-7.2021484375
5.449999900000001,2.367865562438965,-9.308655738830566,-3.4093432426452637,13.885498046875,5.3558349609375,-1.0986328125
5.4699999,2.5067291259765625,-9.466673851013184,-3.531447410583496,16.3726806640625,14.0533447265625,-0.4425048828125
5.489999900000001,2.5115175247192383,-9.603142738342285,-3.2561142444610596,7.720947265625,11.8408203125,-3.2196044921875
5.5099999,2.403778553009033,-9.682151794433594,-2.6791117191314697,3.3111572265625,5.4931640625,-8.270263671875
5.529999900000001,2.233790159225464,-9.612719535827637,-2.006340980529785,0.6103515625,-0.457763671875,-7.32421875
5.5499999,2.075772762298584,-9.454702377319336,-1.4915876388549805,-4.6539306640625,-1.190185546875,-4.180908203125
5.569999900000001,1.987187385559082,-9.344569206237793,-1.2282254695892334,-8.270263671875,-0.640869140625,-0.91552734375
5.5899999000000005,1.968033790588379,-9.332598686218262,-1.2449848651885986,-8.7432861328125,-2.288818359375,-4.4708251953125
5.609999900000001,2.0039467811584473,-9.442731857299805,-1.403002142906189,-4.2266845703125,-1.434326171875,-8.1939697265625
5.6299999000000005,2.073378562927246,-9.567230224609375,-1.5897499322891235,-2.3193359375,-0.1678466796875,-8.3770751953125
5.6499999,2.1595699787139893,-9.550470352172852,-1.802833914756775,-5.7373046875,-2.716064453125,-8.9263916015625
5.6699999000000005,2.2433669567108154,-9.423578262329102,-1.9752163887023926,-5.06591796875,-3.1280517578125,-5.096435546875
5.6899999,2.3127987384796143,-9.224859237670898,-2.1284453868865967,-3.4027099609375,-0.2593994140625,-1.708984375
5.709999900000001,2.3558945655822754,-9.07641887664795,-2.2625205516815186,-2.777099609375,2.349853515625,1.190185546875
5.7299999,2.360682964324951,-9.148244857788086,-2.31758713722229,-1.8157958984375,2.349853515625,1.6632080078125
5.749999900000001,2.343923568725586,-9.282320022583008,-2.322375535964966,-1.0223388671875,1.1444091796875,-4.2266845703125
5.7699999,2.3247697353363037,-9.464279174804688,-2.2816741466522217,0.6866455078125,0.091552734375,-5.6610107421875
5.789999900000001,2.3104045391082764,-9.488221168518066,-2.2218191623687744,2.4261474609375,3.021240234375,-3.5400390625
5.8099999,2.3080103397369385,-9.390059471130371,-2.1595699787139893,1.52587890625,3.5400390625,1.3580322265625
5.829999900000001,2.3032219409942627,-9.265560150146484,-2.075772762298584,0.8392333984375,2.7923583984375,2.960205078125
5.8499999,2.293645143508911,-9.284713745117188,-1.9536685943603516,1.861572265625,1.6632080078125,1.8157958984375
5.869999900000001,2.2912509441375732,-9.342175483703613,-1.9153614044189453,-0.1678466796875,-1.434326171875,-4.150390625
5.8899999,2.2912509441375732,-9.476250648498535,-1.867477297782898,2.0294189453125,0.8544921875,-3.7841796875
5.909999900000001,2.3056161403656006,-9.423578262329102,-1.9488801956176758,2.8839111328125,1.2969970703125,-2.44140625
5.9299999,2.31758713722229,-9.337387084960938,-1.9991583824157715,1.495361328125,2.197265625,2.227783203125
5.949999900000001,2.315192937850952,-9.23443603515625,-2.030282974243164,1.0833740234375,3.1890869140625,4.2266845703125
5.9699999,2.3080103397369385,-9.27034854888916,-1.9991583824157715,0.30517578125,1.5106201171875,2.0904541015625
5.989999900000001,2.296039342880249,-9.363722801208496,-1.9512743949890137,-1.2054443359375,-1.1138916015625,-3.1585693359375
6.0099999,2.293645143508911,-9.495404243469238,-1.9177556037902832,-0.5645751953125,-1.2664794921875,-3.3416748046875
6.029999900000001,2.3032219409942627,-9.481039047241211,-1.941697597503662,1.953125,0.3662109375,-1.7547607421875
6.0499999,2.315192937850952,-9.39245319366455,-2.0231003761291504,2.5634765625,1.4801025390625,1.434326171875
6.069999900000001,2.319981336593628,-9.29189682006836,-2.0422539710998535,2.471923828125,4.1961669921875,3.936767578125
6.0899999000000005,2.31758713722229,-9.289502143859863,-2.056619167327881,1.129150390625,1.9378662109375,1.9683837890625
6.109999900000001,2.3080103397369385,-9.368511199951172,-1.987187385559082,0.4119873046875,0.8697509765625,-1.8310546875
6.1299999000000005,2.3056161403656006,-9.473855972290039,-1.9488801956176758,-0.06103515625,0,-3.448486328125
6.149999900000001,2.3104045391082764,-9.469067573547363,-1.9345149993896484,0.9002685546875,0.9613037109375,-2.44140625
6.1699999000000005,2.3127987384796143,-9.390059471130371,-1.9369091987609863,1.0528564453125,2.685546875,1.617431640625
6.1899999,2.3127987384796143,-9.311050415039062,-1.946485996246338,-0.6561279296875,2.01416015625,3.5247802734375
6.209999900000001,2.3080103397369385,-9.30386734008789,-1.920149803161621,-1.739501953125,0.213623046875,0.9918212890625
6.2299999,2.3032219409942627,-9.363722801208496,-1.920149803161621,-0.91552734375,-0.1983642578125,-2.471923828125
6.249999900000001,2.3056161403656006,-9.437943458557129,-1.922544002532959,1.007080078125,1.2359619140625,-1.3427734375
6.2699999,2.3127987384796143,-9.430760383605957,-1.9488801956176758,0.8087158203125,2.0599365234375,-0.152587890625
6.289999900000001,2.319981336593628,-9.38048267364502,-1.9536685943603516,-0.3204345703125,1.373291015625,1.2969970703125
6.3099999,2.322375535964966,-9.330204010009766,-1.920149803161621,0.30517578125,0.9918212890625,1.46484375
6.329999900000001,2.3127987384796143,-9.327810287475586,-1.8722656965255737,0.2899169921875,-0.5950927734375,0.7171630859375
6.3499999,2.3104045391082764,-9.344569206237793,-1.867477297782898,-1.9378662109375,-2.4261474609375,-0.5950927734375
6.369999900000001,2.3056161403656006,-9.373299598693848,-1.9153614044189453,-1.068115234375,-0.8697509765625,0.3662109375
6.3899999,2.3104045391082764,-9.38048267364502,-2.0159177780151367,-0.030517578125,2.410888671875,1.434326171875
6.409999900000001,2.31758713722229,-9.394847869873047,-2.094926595687866,2.685546875,3.84521484375,1.5411376953125
6.4299999,2.31758713722229,-9.437943458557129,-2.056619167327881,4.1961669921875,3.7689208984375,0.4119873046875
6.449999900000001,2.31758713722229,-9.457097053527832,-1.9967641830444336,-0.2288818359375,-1.068115234375,-2.044677734375
6.4699999,2.315192937850952,-9.466673851013184,-1.9033904075622559,-3.35693359375,-2.4566650390625,-1.5716552734375
6.489999900000001,2.3127987384796143,-9.409213066101074,-1.886630892753601,-1.77001953125,0.3509521484375,0.1373291015625
6.5099999,2.315192937850952,-9.375694274902344,-1.944091796875,1.2359619140625,1.5106201171875,0.9765625
6.529999900000001,2.3104045391082764,-9.351752281188965,-1.968033790588379,3.2501220703125,3.3111572265625,0.1220703125
6.5499999,2.3080103397369385,-9.39245319366455,-1.9800047874450684,1.40380859375,2.13623046875,-0.5340576171875
6.569999900000001,2.3056161403656006,-9.437943458557129,-1.9488801956176758,-1.1444091796875,0.1373291015625,-1.251220703125
6.5899999000000005,2.3104045391082764,-9.442731857299805,-1.9488801956176758,-0.335693359375,0.640869140625,-2.25830078125
6.609999900000001,2.31758713722229,-9.385271072387695,-1.9560627937316895,-0.0152587890625,3.4027099609375,-0.6866455078125
6.6299999000000005,2.322375535964966,-9.370905876159668,-1.968033790588379,-0.6866455078125,4.8675537109375,2.685546875
6.649999900000001,2.3247697353363037,-9.373299598693848,-1.9584569931030273,-2.2735595703125,2.7923583984375,0.1983642578125
6.6699999000000005,2.3271639347076416,-9.437943458557129,-1.9153614044189453,-3.3721923828125,1.4495849609375,-4.4708251953125
6.6899999,2.3295583724975586,-9.519346237182617,-1.8794482946395874,-2.3651123046875,0.9307861328125,-5.157470703125
6.709999900000001,2.33913516998291,-9.493009567260742,-1.8818424940109253,-2.4566650390625,0.67138671875,-4.150390625
6.7299999,2.363077163696289,-9.308655738830566,-1.922544002532959,0.9918212890625,2.1514892578125,1.556396484375
6.749999900000001,2.3774423599243164,-9.248801231384277,-1.9345149993896484,1.220703125,1.03759765625,0.6256103515625
6.7699999,2.3798365592956543,-9.26795482635498,-1.9177556037902832,0.3509521484375,-0.42724609375,-0.9613037109375
6.789999900000001,2.382230758666992,-9.318233489990234,-1.9057846069335938,-0.2288818359375,-0.2899169921875,-0.4730224609375
6.8099999,2.3750481605529785,-9.354146003723145,-1.9129672050476074,-1.220703125,-0.3204345703125,-0.9613037109375
6.829999900000001,2.3750481605529785,-9.363722801208496,-1.9584569931030273,-0.946044921875,0.1220703125,-0.18310546875
6.8499999,2.3702597618103027,-9.370905876159668,-1.9919757843017578,-1.4190673828125,0.5340576171875,-0.1220703125
6.869999900000001,2.3726539611816406,-9.373299598693848,-2.027888774871826,1.0986328125,1.77001953125,0.518798828125
6.8899999,2.3726539611816406,-9.385271072387695,-2.0183119773864746,1.1138916015625,1.2664794921875,-0.5035400390625
6.909999900000001,2.3750481605529785,-9.390059471130371,-1.98958158493042,0.701904296875,0.8697509765625,-0.6103515625
6.9299999,2.3750481605529785,-9.385271072387695,-1.9584569931030273,-0.030517578125,-0.030517578125,-0.762939453125
6.949999900000001,2.3798365592956543,-9.363722801208496,-1.9393033981323242,0.640869140625,0.3509521484375,-0.0152587890625
6.9699999,2.382230758666992,-9.363722801208496,-1.9321208000183105,1.0986328125,0.9613037109375,0.4119873046875
6.989999900000001,2.382230758666992,-9.35654067993164,-1.9393033981323242,0.5035400390625,0.244140625,-0.1373291015625
7.0099999,2.38462495803833,-9.351752281188965,-1.946485996246338,-0.579833984375,0.152587890625,-0.91552734375
7.029999900000001,2.387019157409668,-9.363722801208496,-1.946485996246338,-0.6561279296875,0.7781982421875,0.732421875
7.0499999,2.389413356781006,-9.35654067993164,-1.944091796875,-0.5035400390625,1.2054443359375,0.1220703125
7.069999900000001,2.3918075561523438,-9.368511199951172,-1.944091796875,-0.152587890625,0.0457763671875,-0.701904296875
7.0899999000000005,2.389413356781006,-9.35893440246582,-1.946485996246338,-0.4119873046875,0,-0.8087158203125
7.109999900000001,2.389413356781006,-9.35893440246582,-1.965639591217041,-0.5950927734375,0.54931640625,0.6103515625
7.1299999000000005,2.389413356781006,-9.351752281188965,-1.9847931861877441,0.6561279296875,1.3275146484375,0.8697509765625
7.149999900000001,2.3942017555236816,-9.346963882446289,-2.0159177780151367,-0.0457763671875,0.9765625,-0.54931640625
7.1699999000000005,2.403778553009033,-9.373299598693848,-2.0039467811584473,-0.9613037109375,1.8768310546875,-0.79345703125
7.1899999,2.4157495498657227,-9.375694274902344,-1.9991583824157715,-1.15966796875,1.3427734375,-1.89208984375
7.209999900000001,2.4229321479797363,-9.394847869873047,-1.9393033981323242,2.044677734375,1.40380859375,-0.8697509765625
7.2299999,2.4181437492370605,-9.390059471130371,-1.8746598958969116,1.6937255859375,-0.1678466796875,-0.7781982421875
7.249999900000001,2.410961151123047,-9.375694274902344,-1.8339585065841675,-0.1983642578125,-2.0904541015625,-0.6561279296875
7.2699999,2.3989901542663574,-9.334992408752441,-1.8411411046981812,-1.7852783203125,-2.1209716796875,-0.274658203125
7.289999900000001,2.38462495803833,-9.330204010009766,-1.886630892753601,-0.732421875,0.3662109375,1.495361328125
7.3099999,2.3798365592956543,-9.346963882446289,-1.9560627937316895,0.3204345703125,0.946044921875,-0.030517578125
7.329999900000001,2.3774423599243164,-9.402029991149902,-1.9943699836730957,0.5340576171875,-0.0457763671875,-2.288818359375
7.3499999,2.382230758666992,-9.409213066101074,-2.0183119773864746,0.244140625,0.2288818359375,-2.1514892578125
7.369999900000001,2.3918075561523438,-9.411606788635254,-1.9919757843017578,0.518798828125,1.3427734375,0.18310546875
7.3899999,2.3989901542663574,-9.351752281188965,-1.9919757843017578,0.701904296875,-0.030517578125,1.068115234375
7.409999900000001,2.403778553009033,-9.337387084960938,-1.9560627937316895,0.274658203125,-0.1678466796875,0.335693359375
7.4299999,2.403778553009033,-9.349357604980469,-1.9345149993896484,-0.0152587890625,0.18310546875,-0.640869140625
7.449999900000001,2.408566951751709,-9.368511199951172,-1.9488801956176758,-0.732421875,-0.8697509765625,-1.617431640625
7.4699999,2.408566951751709,-9.368511199951172,-1.9488801956176758,0.2288818359375,0.8392333984375,-0.7171630859375
7.489999900000001,2.4133553504943848,-9.346963882446289,-1.9728221893310547,0.579833984375,1.0223388671875,0.9002685546875
7.5099999,2.410961151123047,-9.327810287475586,-1.9823989868164062,0.8087158203125,0.3204345703125,1.6632080078125
7.529999900000001,2.406172752380371,-9.330204010009766,-1.9823989868164062,1.15966796875,0.9307861328125,0.396728515625
7.5499999,2.4013843536376953,-9.354146003723145,-1.9800047874450684,1.8157958984375,0.48828125,-0.7171630859375
7.569999900000001,2.3942017555236816,-9.370905876159668,-1.9752163887023926,2.3345947265625,1.0833740234375,-0.42724609375
7.5899999000000005,2.3942017555236816,-9.375694274902344,-1.9536685943603516,1.556396484375,1.3427734375,0.9307861328125
7.609999900000001,2.3942017555236816,-9.35893440246582,-1.9321208000183105,0.06103515625,0.42724609375,0.42724609375
7.6299999000000005,2.3965959548950195,-9.35893440246582,-1.9153614044189453,-0.152587890625,-0.18310546875,0.457763671875
7.649999900000001,2.406172752380371,-9.35893440246582,-1.8986018896102905,0.79345703125,0.640869140625,-0.0457763671875
7.6699999000000005,2.4157495498657227,-9.3828763961792,-1.9033904075622559,1.9073486328125,1.007080078125,0.274658203125
7.6899999,2.425326347351074,-9.399636268615723,-1.8962076902389526,1.2054443359375,1.617431640625,0.0762939453125
7.709999900000001,2.425326347351074,-9.411606788635254,-1.886630892753601,-1.1749267578125,1.5869140625,-0.06103515625
7.7299999,2.4205379486083984,-9.428366661071777,-1.8602946996688843,-2.8076171875,1.0986328125,-0.3204345703125
7.749999900000001,2.410961151123047,-9.435548782348633,-1.8531121015548706,-2.3651123046875,0.244140625,-0.4119873046875
7.7699999,2.410961151123047,-9.406818389892578,-1.8818424940109253,-1.617431640625,-0.06103515625,-1.251220703125
7.789999900000001,2.4133553504943848,-9.351752281188965,-1.9177556037902832,-1.2054443359375,1.6021728515625,0.18310546875
7.8099999,2.4181437492370605,-9.299078941345215,-1.9488801956176758,-1.3427734375,2.4261474609375,2.288818359375
7.829999900000001,2.4157495498657227,-9.272743225097656,-1.9345149993896484,-1.52587890625,0.9918212890625,1.89208984375
7.8499999,2.406172752380371,-9.344569206237793,-1.8986018896102905,-0.701904296875,-0.9918212890625,0.30517578125
7.869999900000001,2.3942017555236816,-9.406818389892578,-1.889025092124939,-0.3509521484375,-2.50244140625,-2.9449462890625
7.8899999,2.3918075561523438,-9.452308654785156,-1.922544002532959,0.701904296875,-0.3204345703125,-2.3651123046875
7.909999900000001,2.3965959548950195,-9.387664794921875,-1.9776105880737305,-0.0457763671875,1.64794921875,-0.42724609375
7.9299999,2.3965959548950195,-9.330204010009766,-2.0207061767578125,-0.0457763671875,2.4566650390625,2.9449462890625
7.949999900000001,2.3989901542663574,-9.318233489990234,-1.9823989868164062,0.4119873046875,1.7547607421875,1.64794921875
7.9699999,2.3965959548950195,-9.3828763961792,-1.9369091987609863,0.1220703125,-1.373291015625,-2.410888671875
7.989999900000001,2.3989901542663574,-9.428366661071777,-1.889025092124939,0.54931640625,-1.5411376953125,-4.1961669921875
8.0099999,2.408566951751709,-9.399636268615723,-1.9129672050476074,-0.885009765625,-0.8392333984375,-1.6937255859375
8.0299999,2.4205379486083984,-9.318233489990234,-1.9560627937316895,-0.946044921875,2.0751953125,2.50244140625
8.049999900000001,2.43011474609375,-9.26795482635498,-1.9967641830444336,-0.0762939453125,2.74658203125,2.74658203125
8.069999900000001,2.432508945465088,-9.301473617553711,-1.9728221893310547,0.244140625,1.6937255859375,0.0152587890625
8.0899999,2.425326347351074,-9.404424667358398,-1.9273324012756348,-1.1444091796875,-0.8392333984375,-2.4871826171875
8.1099999,2.4205379486083984,-9.440337181091309,-1.900996208190918,-1.0223388671875,-1.4495849609375,-3.4637451171875
8.129999900000001,2.4157495498657227,-9.430760383605957,-1.922544002532959,0.396728515625,0.06103515625,-0.8697509765625
8.149999900000001,2.4181437492370605,-9.337387084960938,-1.9800047874450684,-0.2593994140625,1.739501953125,0.946044921875
8.1699999,2.4205379486083984,-9.29189682006836,-2.008735179901123,-0.5645751953125,2.777099609375,1.983642578125
8.1899999,2.4229321479797363,-9.299078941345215,-1.9919757843017578,-0.9307861328125,1.52587890625,0.7171630859375
8.2099999,2.4229321479797363,-9.363722801208496,-1.9488801956176758,-1.312255859375,-0.457763671875,-1.2359619140625
8.229999900000001,2.425326347351074,-9.394847869873047,-1.9081788063049316,-0.3204345703125,0.06103515625,-2.2735595703125
8.2499999,2.432508945465088,-9.387664794921875,-1.9321208000183105,-0.244140625,0.1068115234375,-0.7781982421875
8.2699999,2.4396915435791016,-9.313444137573242,-1.9608511924743652,0.335693359375,1.9378662109375,2.1209716796875
8.2899999,2.4372973442077637,-9.320627212524414,-1.944091796875,-1.007080078125,0.0152587890625,0
8.309999900000001,2.432508945465088,-9.375694274902344,-1.9273324012756348,-0.8697509765625,-0.54931640625,-1.1444091796875
8.3299999,2.427720546722412,-9.402029991149902,-1.9369091987609863,0.5035400390625,0.1983642578125,-1.3580322265625
8.3499999,2.4205379486083984,-9.406818389892578,-1.944091796875,0.5035400390625,1.5716552734375,-0.5340576171875
8.3699999,2.4205379486083984,-9.370905876159668,-1.9704279899597168,-0.42724609375,0.9307861328125,0.1220703125
8.389999900000001,2.4181437492370605,-9.344569206237793,-1.965639591217041,-1.3580322265625,0.4119873046875,0.274658203125
8.4099999,2.4157495498657227,-9.332598686218262,-1.946485996246338,0.030517578125,0.6866455078125,0.2593994140625
8.4299999,2.4181437492370605,-9.327810287475586,-1.9273324012756348,0.579833984375,-0.2899169921875,-0.396728515625
8.4499999,2.4181437492370605,-9.327810287475586,-1.9345149993896484,-1.6021728515625,-1.617431640625,-0.79345703125
8.469999900000001,2.4229321479797363,-9.32302188873291,-1.9321208000183105,-0.8697509765625,-0.54931640625,0.06103515625
8.4899999,2.425326347351074,-9.332598686218262,-1.9560627937316895,-0.5035400390625,-0.1983642578125,0
8.5099999,2.43011474609375,-9.320627212524414,-1.9632453918457031,-1.6632080078125,-0.54931640625,-0.7171630859375
8.5299999,2.434903144836426,-9.35893440246582,-1.9704279899597168,-1.2664794921875,-0.3204345703125,0.335693359375
8.549999900000001,2.4420857429504395,-9.373299598693848,-1.9560627937316895,-0.9002685546875,0.335693359375,0.7476806640625
8.569999900000001,2.449268341064453,-9.404424667358398,-1.9560627937316895,-1.4190673828125,0.06103515625,-0.7476806640625
8.5899999,2.451662540435791,-9.41639518737793,-1.9560627937316895,-1.5716552734375,-0.3509521484375,-1.312255859375
8.6099999,2.4468741416931152,-9.409213066101074,-1.9800047874450684,-1.5106201171875,-0.274658203125,-1.6326904296875
8.629999900000001,2.4420857429504395,-9.375694274902344,-2.0039467811584473,-0.823974609375,0.6256103515625,-0.7476806640625
8.649999900000001,2.434903144836426,-9.363722801208496,-2.027888774871826,-0.54931640625,0.762939453125,0.30517578125
8.6699999,2.432508945465088,-9.351752281188965,-2.006340980529785,-0.3662109375,0.9002685546875,-0.4730224609375
8.6899999,2.4372973442077637,-9.337387084960938,-2.0039467811584473,-1.129150390625,-0.7171630859375,-1.6021728515625
8.709999900000001,2.4420857429504395,-9.313444137573242,-1.9967641830444336,-1.9073486328125,-0.4119873046875,-0.7476806640625
8.729999900000001,2.449268341064453,-9.289502143859863,-2.0183119773864746,-0.6561279296875,1.03759765625,1.40380859375
8.7499999,2.451662540435791,-9.287108421325684,-2.03507137298584,0.274658203125,1.7242431640625,1.3580322265625
8.7699999,2.451662540435791,-9.320627212524414,-2.027888774871826,0.1068115234375,0.7171630859375,0
8.7899999,2.449268341064453,-9.354146003723145,-2.006340980529785,-0.67138671875,-0.3662109375,-1.922607421875
8.809999900000001,2.4468741416931152,-9.363722801208496,-1.9943699836730957,-1.251220703125,-0.457763671875,-1.3885498046875
8.8299999,2.4468741416931152,-9.337387084960938,-2.011129379272461,-0.8544921875,0.67138671875,0.518798828125
8.8499999,2.4444799423217773,-9.315838813781738,-2.027888774871826,0.1220703125,2.0751953125,1.7242431640625
8.8699999,2.4396915435791016,-9.308655738830566,-2.0422539710998535,-1.312255859375,0.7476806640625,0.30517578125
8.889999900000001,2.43011474609375,-9.375694274902344,-2.0231003761291504,-0.823974609375,0.457763671875,-0.54931640625
8.9099999,2.4229321479797363,-9.404424667358398,-2.0015525817871094,-0.3814697265625,-0.457763671875,-3.0364990234375
8.9299999,2.427720546722412,-9.397241592407227,-1.9967641830444336,-0.1678466796875,-0.54931640625,-2.471923828125
8.9499999,2.4372973442077637,-9.32541561126709,-2.011129379272461,-0.6866455078125,-0.5340576171875,0.79345703125
8.969999900000001,2.449268341064453,-9.27034854888916,-2.008735179901123,0.5035400390625,1.3275146484375,3.082275390625
8.9899999,2.456450939178467,-9.272743225097656,-2.013523578643799,0.6103515625,0.091552734375,0.8697509765625
9.0099999,2.454056739807129,-9.313444137573242,-2.011129379272461,-0.5340576171875,-1.0833740234375,-2.532958984375
9.0299999,2.4468741416931152,-9.35893440246582,-2.008735179901123,0.2593994140625,0.213623046875,-1.1749267578125
9.049999900000001,2.4444799423217773,-9.342175483703613,-2.027888774871826,-0.42724609375,0.79345703125,0.946044921875
9.069999900000001,2.4444799423217773,-9.315838813781738,-2.051830768585205,-2.0751953125,0.518798828125,1.8768310546875
9.0899999,2.4468741416931152,-9.327810287475586,-2.0470423698425293,-1.3580322265625,0.9765625,0.48828125
9.1099999,2.4468741416931152,-9.361329078674316,-2.0470423698425293,-0.54931640625,-0.0762939453125,-1.9683837890625
9.129999900000001,2.449268341064453,-9.38048267364502,-2.0470423698425293,0.42724609375,0.1373291015625,-1.983642578125
9.149999900000001,2.4468741416931152,-9.35893440246582,-2.0446481704711914,-0.0762939453125,1.1444091796875,0.244140625
9.1699999,2.449268341064453,-9.311050415039062,-2.0590133666992188,-0.335693359375,1.1138916015625,1.6937255859375
9.1899999,2.4468741416931152,-9.30386734008789,-2.0470423698425293,-0.1373291015625,0.54931640625,1.251220703125
9.209999900000001,2.4468741416931152,-9.330204010009766,-2.03507137298584,-1.0528564453125,0.1983642578125,-0.9307861328125
9.229999900000001,2.449268341064453,-9.351752281188965,-2.030282974243164,-0.8544921875,-0.1068115234375,-2.3956298828125
9.2499999,2.454056739807129,-9.366117477416992,-2.0159177780151367,0.91552734375,0.7476806640625,-0.0457763671875
9.2699999,2.4612393379211426,-9.308655738830566,-2.03507137298584,0.0762939453125,0.54931640625,0.67138671875
9.2899999,2.4612393379211426,-9.301473617553711,-2.03507137298584,-1.28173828125,0.701904296875,1.495361328125
9.309999900000001,2.456450939178467,-9.301473617553711,-2.054224967956543,-0.732421875,0.4730224609375,0.030517578125
9.3299999,2.4468741416931152,-9.327810287475586,-2.0805611610412598,0.274658203125,0.1678466796875,-1.0528564453125
9.3499999,2.4396915435791016,-9.32541561126709,-2.0901381969451904,1.251220703125,1.5106201171875,-0.0457763671875
9.3699999,2.4396915435791016,-9.318233489990234,-2.094926595687866,0.06103515625,1.4495849609375,1.7547607421875
9.389999900000001,2.4420857429504395,-9.311050415039062,-2.0374655723571777,-1.1138916015625,1.129150390625,1.8463134765625
9.4099999,2.4468741416931152,-9.337387084960938,-1.9919757843017578,-1.52587890625,-1.312255859375,-0.4730224609375
9.4299999,2.451662540435791,-9.375694274902344,-1.946485996246338,-1.434326171875,-1.9073486328125,-2.105712890625
9.4499999,2.4612393379211426,-9.373299598693848,-1.9704279899597168,-1.0223388671875,-1.0986328125,-1.922607421875
9.469999900000001,2.4684219360351562,-9.334992408752441,-2.027888774871826,-0.0762939453125,0.4119873046875,0.67138671875
9.4899999,2.470816135406494,-9.287108421325684,-2.0853497982025146,-0.2899169921875,1.373291015625,2.1209716796875
9.5099999,2.4636335372924805,-9.299078941345215,-2.0805611610412598,-0.030517578125,1.3885498046875,1.46484375
9.5299999,2.456450939178467,-9.332598686218262,-2.0590133666992188,-0.30517578125,-1.495361328125,-1.556396484375
9.549999900000001,2.449268341064453,-9.385271072387695,-2.0231003761291504,-1.190185546875,-2.4871826171875,-2.1820068359375
9.569999900000001,2.451662540435791,-9.368511199951172,-2.027888774871826,-1.64794921875,-0.518798828125,-1.373291015625
9.5899999,2.456450939178467,-9.332598686218262,-2.0805611610412598,-1.983642578125,0.274658203125,0.79345703125
9.6099999,2.4588451385498047,-9.296685218811035,-2.1140801906585693,-0.06103515625,1.8463134765625,1.2664794921875
9.629999900000001,2.456450939178467,-9.301473617553711,-2.1380221843719482,0.5035400390625,0.9613037109375,0.06103515625
9.649999900000001,2.451662540435791,-9.318233489990234,-2.1116859912872314,-0.5035400390625,-0.0457763671875,-1.3580322265625
9.6699999,2.4468741416931152,-9.327810287475586,-2.0925323963165283,-1.2359619140625,-0.5035400390625,-0.8544921875
9.6899999,2.4468741416931152,-9.320627212524414,-2.0853497982025146,-0.335693359375,0.396728515625,0.5340576171875
9.709999900000001,2.4444799423217773,-9.313444137573242,-2.094926595687866,-0.091552734375,0.9765625,0.7171630859375
9.729999900000001,2.4396915435791016,-9.320627212524414,-2.1045033931732178,-0.0762939453125,1.2969970703125,-0.0762939453125
9.7499999,2.4396915435791016,-9.327810287475586,-2.1140801906585693,-0.54931640625,0.4730224609375,-0.396728515625
9.7699999,2.4396915435791016,-9.337387084960938,-2.099714994430542,-0.396728515625,0.9002685546875,-0.030517578125
9.7899999,2.4468741416931152,-9.330204010009766,-2.0925323963165283,0.2899169921875,1.007080078125,0.1220703125
9.809999900000001,2.449268341064453,-9.339780807495117,-2.0853497982025146,0.3204345703125,1.0223388671875,-0.335693359375
9.8299999,2.4468741416931152,-9.346963882446289,-2.075772762298584,0.0152587890625,-0.0457763671875,-0.8544921875
9.8499999,2.449268341064453,-9.334992408752441,-2.070984363555908,0.396728515625,0.4119873046875,-0.5645751953125
9.8699999,2.454056739807129,-9.318233489990234,-2.0877439975738525,-0.6103515625,0.4425048828125,0.1678466796875
9.889999900000001,2.4588451385498047,-9.306262016296387,-2.0877439975738525,-0.4425048828125,1.617431640625,0.6103515625
9.9099999,2.4636335372924805,-9.306262016296387,-2.0877439975738525,-0.1983642578125,1.1749267578125,0
9.9299999,2.4660277366638184,-9.320627212524414,-2.078166961669922,-0.8697509765625,0,-0.5645751953125
9.9499999,2.4612393379211426,-9.330204010009766,-2.070984363555908,-0.7171630859375,0.2288818359375,-0.6561279296875
9.969999900000001,2.4612393379211426,-9.320627212524414,-2.075772762298584,-0.30517578125,0.8392333984375,-0.5340576171875
9.9899999,2.4612393379211426,-9.315838813781738,-2.0805611610412598,-0.1678466796875,0.8392333984375,0.5645751953125
10.0099999,2.4588451385498047,-9.311050415039062,-2.0877439975738525,-0.5340576171875,0.4425048828125,0.3204345703125
10.0299999,2.4612393379211426,-9.320627212524414,-2.0925323963165283,-0.1068115234375,0.5035400390625,-0.48828125
10.049999900000001,2.4612393379211426,-9.320627212524414,-2.0877439975738525,0.946044921875,1.03759765625,-0.4730224609375
10.069999900000001,2.4636335372924805,-9.301473617553711,-2.0925323963165283,-0.030517578125,0.48828125,0.1983642578125
10.0899999,2.4660277366638184,-9.29189682006836,-2.0877439975738525,-1.190185546875,0.6103515625,1.190185546875
10.1099999,2.4636335372924805,-9.294290542602539,-2.0853497982025146,-1.3580322265625,0.79345703125,0.9002685546875
10.129999900000001,2.4588451385498047,-9.330204010009766,-2.0901381969451904,-0.1983642578125,0.579833984375,-0.4425048828125
10.149999900000001,2.454056739807129,-9.342175483703613,-2.1068975925445557,0.152587890625,0.091552734375,-1.4190673828125
10.1699999,2.454056739807129,-9.337387084960938,-2.1092917919158936,0.030517578125,1.0986328125,0.06103515625
10.1899999,2.454056739807129,-9.308655738830566,-2.1140801906585693,-0.1068115234375,1.52587890625,1.5716552734375
10.209999900000001,2.454056739807129,-9.308655738830566,-2.10210919380188,-0.1983642578125,0.6866455078125,1.0528564453125
10.229999900000001,2.451662540435791,-9.320627212524414,-2.0925323963165283,-0.8087158203125,-0.06103515625,-0.91552734375
10.2499999,2.451662540435791,-9.337387084960938,-2.094926595687866,-0.4119873046875,0.4730224609375,-0.8544921875
10.2699999,2.451662540435791,-9.32302188873291,-2.097320795059204,0.0457763671875,1.40380859375,0.48828125
10.2899999,2.449268341064453,-9.32302188873291,-2.0877439975738525,-0.42724609375,1.556396484375,1.6021728515625
10.309999900000001,2.454056739807129,-9.320627212524414,-2.0853497982025146,-1.0223388671875,-0.5950927734375,-0.244140625
10.3299999,2.451662540435791,-9.351752281188965,-2.070984363555908,-0.213623046875,-0.274658203125,-1.3580322265625
10.3499999,2.454056739807129,-9.349357604980469,-2.0901381969451904,-0.5950927734375,0.213623046875,-1.068115234375
10.3699999,2.454056739807129,-9.32302188873291,-2.121262788772583,-1.495361328125,0.7781982421875,0.1678466796875
10.389999900000001,2.451662540435791,-9.289502143859863,-2.121262788772583,-1.220703125,1.52587890625,1.6021728515625
10.4099999,2.451662540435791,-9.306262016296387,-2.1308395862579346,-1.312255859375,-0.1678466796875,1.2359619140625
10.4299999,2.4468741416931152,-9.313444137573242,-2.097320795059204,0.152587890625,-0.06103515625,-1.8157958984375
10.4499999,2.449268341064453,-9.337387084960938,-2.0877439975738525,-0.8392333984375,-0.8392333984375,-0.8544921875
10.469999900000001,2.454056739807129,-9.342175483703613,-2.0925323963165283,-0.30517578125,0.18310546875,1.129150390625
10.4899999,2.4588451385498047,-9.296685218811035,-2.1140801906585693,-1.068115234375,0.3509521484375,-0.335693359375
10.5099999,2.4588451385498047,-9.308655738830566,-2.1332337856292725,-0.1983642578125,0.8697509765625,0.5340576171875
10.5299999,2.454056739807129,-9.311050415039062,-2.140416383743286,-0.1983642578125,0.54931640625,-0.06103515625
10.549999900000001,2.449268341064453,-9.32541561126709,-2.1475989818573,-0.244140625,-0.18310546875,-0.42724609375
10.569999900000001,2.449268341064453,-9.32541561126709,-2.1475989818573,-0.1983642578125,0.457763671875,-0.457763671875
10.5899999,2.451662540435791,-9.311050415039062,-2.1547815799713135,-0.8087158203125,1.190185546875,0.3509521484375
10.6099999,2.454056739807129,-9.306262016296387,-2.145204782485962,-0.0762939453125,1.739501953125,1.0833740234375
10.629999900000001,2.4588451385498047,-9.318233489990234,-2.1380221843719482,-0.6103515625,0.152587890625,0.06103515625
10.649999900000001,2.456450939178467,-9.32302188873291,-2.123656988143921,-0.6103515625,-0.48828125,-1.0528564453125
10.6699999,2.454056739807129,-9.334992408752441,-2.1092917919158936,1.0986328125,1.0986328125,-0.0152587890625
10.6899999,2.4588451385498047,-9.308655738830566,-2.1308395862579346,0.030517578125,0.4119873046875,0.1678466796875
10.709999900000001,2.4588451385498047,-9.299078941345215,-2.123656988143921,-0.396728515625,1.312255859375,1.129150390625
10.729999900000001,2.4588451385498047,-9.299078941345215,-2.123656988143921,-0.2288818359375,1.373291015625,0.701904296875
10.7499999,2.454056739807129,-9.318233489990234,-2.126051187515259,-0.6561279296875,-0.244140625,-0.54931640625
10.7699999,2.449268341064453,-9.315838813781738,-2.1284453868865967,0.7171630859375,0.30517578125,-0.3509521484375
10.7899999,2.449268341064453,-9.289502143859863,-2.1380221843719482,0.6561279296875,1.2664794921875,1.03759765625
10.809999900000001,2.451662540435791,-9.277531623840332,-2.142810583114624,-0.5645751953125,1.2359619140625,2.50244140625
10.8299999,2.456450939178467,-9.289502143859863,-2.1308395862579346,-0.0762939453125,0.640869140625,1.6326904296875
10.8499999,2.456450939178467,-9.315838813781738,-2.1140801906585693,0.2288818359375,0.030517578125,-0.6256103515625
10.8699999,2.456450939178467,-9.32302188873291,-2.1068975925445557,0.5950927734375,0.30517578125,-0.152587890625
10.889999900000001,2.4468741416931152,-9.330204010009766,-2.1045033931732178,-0.54931640625,0.8392333984375,1.9989013671875
10.9099999,2.4372973442077637,-9.344569206237793,-2.1068975925445557,-0.2899169921875,0.79345703125,1.8768310546875
10.9299999,2.4229321479797363,-9.363722801208496,-2.1116859912872314,-0.244140625,-0.1983642578125,-1.5716552734375
10.9499999,2.410961151123047,-9.394847869873047,-2.123656988143921,-0.18310546875,0,-1.800537109375
10.969999900000001,2.408566951751709,-9.363722801208496,-2.126051187515259,-0.6256103515625,0.7171630859375,-0.244140625
10.9899999,2.408566951751709,-9.342175483703613,-2.1308395862579346,-0.885009765625,0.3814697265625,1.8768310546875
11.0099999,2.4181437492370605,-9.306262016296387,-2.126051187515259,-1.1444091796875,0.030517578125,0.2288818359375
11.0299999,2.43011474609375,-9.32302188873291,-2.123656988143921,-0.9918212890625,-0.2593994140625,-1.190185546875
11.049999900000001,2.4396915435791016,-9.327810287475586,-2.1380221843719482,-0.1220703125,0.7476806640625,-1.129150390625
11.069999900000001,2.451662540435791,-9.318233489990234,-2.161964178085327,0.091552734375,1.190185546875,0.3204345703125
11.0899999,2.451662540435791,-9.299078941345215,-2.166752576828003,0.579833984375,1.6937255859375,1.0223388671875
11.1099999,2.4468741416931152,-9.282320022583008,-2.1715409755706787,-0.152587890625,0.518798828125,0.54931640625
11.129999900000001,2.4396915435791016,-9.299078941345215,-2.145204782485962,-0.244140625,0.6256103515625,0.152587890625
11.149999900000001,2.432508945465088,-9.311050415039062,-2.1356279850006104,-0.7476806640625,0.5340576171875,-0.4425048828125
11.1699999,2.43011474609375,-9.32541561126709,-2.1332337856292725,-0.8087158203125,0.4730224609375,-0.3204345703125
11.1899999,2.432508945465088,-9.311050415039062,-2.1356279850006104,-0.3509521484375,1.1138916015625,-0.152587890625
11.209999900000001,2.434903144836426,-9.308655738830566,-2.1380221843719482,-0.5645751953125,1.068115234375,1.28173828125
11.229999900000001,2.4372973442077637,-9.301473617553711,-2.1380221843719482,-0.396728515625,0.48828125,0.79345703125
11.2499999,2.4372973442077637,-9.315838813781738,-2.1356279850006104,-0.1678466796875,0.3509521484375,0.1068115234375
11.2699999,2.4444799423217773,-9.327810287475586,-2.1284453868865967,-0.396728515625,0.6561279296875,-0.2593994140625
11.2899999,2.4636335372924805,-9.366117477416992,-2.1739351749420166,0.18310546875,-0.213623046875,0.244140625
11.309999900000001,2.5115175247192383,-9.526528358459473,-2.2912509441375732,1.89208984375,1.0223388671875,1.495361328125
11.3299999,2.7557260990142822,-11.425130844116211,-3.141192674636841,7.32421875,13.2293701171875,-10.1776123046875
11.3499999,2.8586769104003906,-13.383587837219238,-3.847482204437256,22.430419921875,26.214599609375,-45.2880859375
11.3699999,2.868253707885742,-15.614983558654785,-4.268861770629883,53.9093017578125,43.9300537109375,-84.6405029296875
11.389999900000001,2.8203697204589844,-17.724275588989258,-4.151545524597168,50.4150390625,54.1839599609375,-109.588623046875
11.4099999,2.8131868839263916,-18.854337692260742,-3.998316764831543,-9.0484619140625,25.299072265625,-139.3585205078125
11.4299999,2.9257144927978516,-18.701108932495117,-3.4332852363586426,-13.916015625,30.2276611328125,-172.393798828125
11.4499999,3.1435868740081787,-17.357961654663086,-2.9927520751953125,19.1497802734375,57.891845703125,-172.119140625
11.469999900000001,3.3877954483032227,-14.52322769165039,-2.580949544906616,27.6641845703125,54.5501708984375,-176.727294921875
11.4899999,3.5242648124694824,-10.979808807373047,-1.8531121015548706,33.447265625,53.6041259765625,-163.5284423828125
11.5099999,3.507505416870117,-6.9910688400268555,-0.9840168952941895,30.303955078125,46.9512939453125,-139.2364501953125
11.5299999,3.3303346633911133,-2.8586769104003906,-0.035913024097681046,13.427734375,35.0799560546875,-121.09375
11.549999900000001,3.0885202884674072,1.170764684677124,0.790086567401886,5.2490234375,25.6805419921875,-85.1593017578125
11.569999900000001,2.8203697204589844,5.228936672210693,1.359906554222107,-9.307861328125,13.885498046875,-30.8074951171875
11.5899999,2.5043349266052246,9.186552047729492,1.9823989868164062,-15.07568359375,12.3748779296875,46.417236328125
11.6099999,2.011129379272461,12.689269065856934,2.691082715988159,-14.6331787109375,-3.448486328125,146.97265625
11.629999900000001,1.2952631711959839,14.080300331115723,3.576937437057495,-36.5142822265625,-46.173095703125,256.6986083984375
11.649999900000001,0.22266076505184174,14.259865760803223,4.2760443687438965,-72.5250244140625,-82.061767578125,287.628173828125
11.6699999,-1.4197616577148438,10.44350814819336,3.6607344150543213,-130.7373046875,-128.6773681640625,352.7679443359375
11.6899999,-3.179499864578247,2.3295583724975586,1.5059528350830078,-135.25390625,-131.8359375,435.028076171875
11.709999900000001,-4.747702121734619,-8.123526573181152,-2.1978771686553955,-69.8089599609375,-82.9315185546875,373.931884765625
11.729999900000001,-5.592854976654053,-19.38106346130371,-5.789179801940918,26.0009765625,-18.0511474609375,141.387939453125
11.7499999,-5.3582234382629395,-28.287492752075195,-8.497021675109863,46.32568359375,-8.36181640625,36.0565185546875
11.7699999,-4.180276393890381,-32.173282623291016,-9.622296333312988,-20.721435546875,-22.735595703125,-6.9580078125
11.7899999,-2.58813214302063,-32.113426208496094,-9.636661529541016,-31.7840576171875,0.1678466796875,-68.8934326171875
11.809999900000001,-1.0965443849563599,-29.599515914916992,-9.318233489990234,14.5416259765625,31.219482421875,-102.60009765625
11.8299999,-0.09576806426048279,-25.845407485961914,-8.944737434387207,38.14697265625,55.2520751953125,-153.2135009765625
11.8499999,0.2346317619085312,-22.66111946105957,-8.56884765625,51.9561767578125,68.023681640625,-186.920166015625
11.8699999,-0.031124621629714966,-19.950881958007812,-8.034940719604492,55.17578125,73.8067626953125,-227.0660400390625
11.889999900000001,-0.5626373887062073,-17.44175910949707,-7.374141216278076,71.7010498046875,91.2017822265625,-281.768798828125
11.9099999,-1.0606313943862915,-14.271836280822754,-6.011840343475342,97.83935546875,108.6273193359375,-290.83251953125
11.9299999,-1.1659762859344482,-10.04846477508545,-4.2329487800598145,96.3897705078125,92.3004150390625,-245.330810546875
11.9499999,-0.7996633648872375,-4.347870349884033,-1.922544002532959,45.6085205078125,51.8341064453125,-197.296142578125
11.969999900000001,0.043095629662275314,2.3247697353363037,0.6607996821403503,19.317626953125,52.79541015625,-168.3502197265625
11.9899999,1.1540051698684692,9.162610054016113,2.9735984802246094,4.669189453125,35.0799560546875,-71.624755859375
12.0099999,2.1811177730560303,15.830461502075195,4.819528102874756,-14.46533203125,4.3792724609375,56.0760498046875
12.0299999,2.5953147411346436,19.596540451049805,6.320692539215088,-33.9202880859375,-12.8326416015625,209.747314453125
12.049999900000001,2.4229321479797363,20.47760772705078,6.916848659515381,-58.04443359375,-46.051025390625,286.956787109375
12.069999900000001,1.4317326545715332,18.203115463256836,6.742072105407715,-78.2012939453125,-73.3642578125,299.9267578125
12.0899999,-0.7972691655158997,11.192893028259277,5.238513469696045,-99.5025634765625,-86.090087890625,412.8570556640625
12.1099999,-3.251325845718384,-0.42856210470199585,2.252943754196167,-111.7095947265625,-112.884521484375,499.9847412109375
12.129999900000001,-5.499481201171875,-13.21599292755127,-2.2457611560821533,-49.102783203125,-92.8955078125,213.3026123046875
12.149999900000001,-6.878541469573975,-26.532543182373047,-6.31829833984375,75.0732421875,1.89208984375,25.7720947265625
12.1699999,-6.689399719238281,-36.08061981201172,-10.196905136108398,69.793701171875,20.7061767578125,19.83642578125
12.1899999,-5.353435039520264,-39.23857116699219,-12.102689743041992,16.937255859375,22.705078125,-84.5184326171875
12.209999900000001,-3.780444383621216,-38.58016586303711,-12.172121047973633,58.6395263671875,74.005126953125,-152.5421142578125
12.229999900000001,-2.387019157409668,-34.18920135498047,-10.615890502929688,86.395263671875,90.02685546875,-205.87158203125
12.2499999,-1.5394717454910278,-28.531702041625977,-7.8745293617248535,77.6824951171875,65.00244140625,-241.3787841796875
12.2699999,-1.256955862045288,-22.10566520690918,-4.613626480102539,39.5660400390625,32.318115234375,-262.8173828125
12.289999900000002,-1.2449848651885986,-16.010026931762695,-1.6927006244659424,23.956298828125,33.1573486328125,-280.3497314453125
12.309999900000001,-1.213860273361206,-10.287884712219238,0.17477671802043915,23.1781005859375,27.9388427734375,-268.4173583984375
12.3299999,-0.9744400978088379,-4.685452938079834,1.2425906658172607,25.8331298828125,32.196044921875,-247.955322265625
12.3499999,-0.44532153010368347,0.8451532125473022,1.7166426181793213,31.5704345703125,30.670166015625,-199.5391845703125
12.3699999,0.35434186458587646,6.387730121612549,2.1116859912872314,21.148681640625,26.9012451171875,-139.4500732421875
12.389999900000001,1.3527239561080933,11.760318756103516,2.4181437492370605,-24.8260498046875,6.9732666015625,-61.553955078125
12.4099999,2.2457611560821533,16.184803009033203,2.6431987285614014,-66.741943359375,-7.2479248046875,48.126220703125
12.4299999,2.806004285812378,18.27494239807129,2.741360902786255,-75.2716064453125,-3.936767578125,180.4656982421875
12.4499999,2.8802247047424316,18.339584350585938,2.2433669567108154,-87.1124267578125,-19.866943359375,237.0452880859375
12.469999900000001,2.166752576828003,15.10262393951416,1.5610195398330688,-88.4857177734375,-21.2249755859375,291.168212890625
12.4899999,1.0007762908935547,8.674192428588867,0.5650315880775452,-67.108154296875,-15.594482421875,365.0970458984375
12.5099999,-0.3280056416988373,0.5626373887062073,-0.07422025501728058,-50.4150390625,-13.946533203125,315.91796875
12.5299999,-1.4676456451416016,-8.121131896972656,-0.3064578175544739,-43.1365966796875,-22.0184326171875,229.217529296875
12.549999900000001,-2.451662540435791,-16.519990921020508,-0.5650315880775452,-7.4005126953125,-62.469482421875,240.7684326171875
12.569999900000001,-3.220201253890991,-24.468740463256836,-0.7948749661445618,19.4854736328125,-55.938720703125,250
12.5899999,-3.6391866207122803,-30.459033966064453,-2.252943754196167,-51.0406494140625,-63.29345703125,73.883056640625
12.6099999,-3.7014358043670654,-34.6536750793457,-4.304774761199951,-43.64013671875,-40.0543212890625,-104.3701171875
12.629999900000001,-3.294421434402466,-35.9656982421875,-6.323086738586426,53.7872314453125,9.7808837890625,-117.0806884765625
12.649999900000001,-2.6024973392486572,-33.71275329589844,-7.623138427734375,82.1990966796875,27.130126953125,-158.3251953125
12.6699999,-2.121262788772583,-29.611486434936523,-7.687781810760498,49.3927001953125,9.674072265625,-222.22900390625
12.6899999,-1.9345149993896484,-24.657882690429688,-6.677428722381592,42.2821044921875,5.9967041015625,-269.317626953125
12.709999900000001,-1.9488801956176758,-19.572599411010742,-5.370194435119629,61.2335205078125,6.0577392578125,-287.2161865234375
12.729999900000001,-1.9177556037902832,-14.386757850646973,-4.125209331512451,69.15283203125,23.345947265625,-289.7491455078125
12.7499999,-1.7094600200653076,-8.99740982055664,-2.892195701599121,63.4307861328125,36.529541015625,-284.4696044921875
12.7699999,-1.1228805780410767,-3.5386300086975098,-1.8555063009262085,63.41552734375,25.7415771484375,-239.8223876953125
12.789999900000002,-0.19393034279346466,1.843535304069519,-1.192312479019165,55.145263671875,-1.7242431640625,-165.863037109375
12.809999900000001,0.9744400978088379,7.177816867828369,-0.7086837291717529,59.0057373046875,24.6429443359375,-117.5537109375
12.8299999,2.1571757793426514,12.212822914123535,-0.17956513166427612,53.7261962890625,54.4281005859375,-46.1883544921875
12.8499999,2.96162748336792,16.745046615600586,0.5722141861915588,14.495849609375,32.9132080078125,71.71630859375
12.8699999,2.52109432220459,19.718645095825195,3.4596214294433594,-88.775634765625,-28.472900390625,310.028076171875
12.889999900000001,1.161187767982483,17.037139892578125,4.5394062995910645,-99.365234375,-48.5992431640625,341.8731689453125
12.9099999,-0.8044517636299133,10.32858657836914,4.467580318450928,-94.0399169921875,-74.5086669921875,401.3824462890625
12.9299999,-2.8850131034851074,1.479616641998291,2.849100112915039,-118.1793212890625,-101.07421875,389.739990234375
12.9499999,-4.853046894073486,-9.646238327026367,0.1604115068912506,-32.8521728515625,-72.021484375,323.5626220703125
12.969999900000001,-6.342240333557129,-20.587739944458008,-2.75812029838562,69.1680908203125,-8.11767578125,231.353759765625
12.9899999,-7.1251444816589355,-30.81098175048828,-5.006275653839111,40.5731201171875,2.13623046875,122.528076171875
13.0099999,-7.0772600173950195,-37.3902473449707,-6.445190906524658,-15.68603515625,-28.8238525390625,-12.8936767578125
13.0299999,-6.270414352416992,-39.79402542114258,-6.572083473205566,18.4478759765625,4.1656494140625,-146.8963623046875
13.049999900000001,-4.922478675842285,-38.39581298828125,-6.53377628326416,52.8106689453125,29.11376953125,-169.7540283203125
13.069999900000001,-3.4356794357299805,-33.42066192626953,-5.722142219543457,31.2042236328125,39.9932861328125,-210.784912109375
13.0899999,-2.252943754196167,-27.40403175354004,-4.630385875701904,32.5927734375,34.423828125,-252.01416015625
13.1099999,-1.5418659448623657,-21.19586753845215,-3.359065055847168,42.8619384765625,23.9715576171875,-277.1148681640625
13.129999900000001,-1.2066776752471924,-15.524003982543945,-2.2170307636260986,48.1109619140625,35.430908203125,-286.9415283203125
13.149999900000001,-1.0965443849563599,-10.618284225463867,-1.2665326595306396,56.21337890625,45.0286865234375,-264.4195556640625
13.1699999,-0.9576807022094727,-5.726930618286133,-0.3495534360408783,57.4188232421875,38.8031005859375,-260.9100341796875
13.1899999,-0.629675030708313,-1.0965443849563599,0.27054479718208313,37.1246337890625,13.6871337890625,-228.0731201171875
13.209999900000001,-0.05267243832349777,3.974374771118164,0.9313444495201111,19.6380615234375,19.256591796875,-168.7469482421875
13.229999900000001,0.8212111592292786,9.071630477905273,1.4844050407409668,1.0528564453125,35.1409912109375,-90.2099609375
13.2499999,1.7884687185287476,13.9462251663208,1.9584569931030273,-37.53662109375,14.007568359375,7.7972412109375
13.2699999,2.4636335372924805,17.822437286376953,2.6455929279327393,-63.4002685546875,-0.48828125,112.5640869140625
13.289999900000002,2.6431987285614014,19.33078384399414,3.0550012588500977,-77.5909423828125,-12.725830078125,243.8507080078125
13.309999900000001,2.032677173614502,18.114530563354492,2.9065608978271484,-102.691650390625,-27.0538330078125,312.5762939453125
13.3299999,0.7110779285430908,13.848062515258789,2.691082715988159,-105.8807373046875,-12.451171875,331.390380859375
13.3499999,-1.1228805780410767,7.637503623962402,1.335964560508728,-93.658447265625,-43.548583984375,338.1500244140625
13.3699999,-3.6296098232269287,-1.2330138683319092,-0.395043283700943,-81.7718505859375,-57.830810546875,432.2509765625
13.389999900000001,-6.145915985107422,-12.945448875427246,-2.032677173614502,-77.69775390625,4.5166015625,477.996826171875
13.4099999,-7.996633529663086,-24.150312423706055,-3.97916316986084,-68.2525634765625,-10.101318359375,177.91748046875
13.4299999,-8.722076416015625,-34.26581573486328,-5.4659624099731445,11.3525390625,-60.05859375,-54.01611328125
13.4499999,-7.967903137207031,-39.9281005859375,-6.086060523986816,74.9969482421875,-6.8206787109375,-45.7763671875
13.469999900000001,-6.162675380706787,-39.80599594116211,-6.715735912322998,28.62548828125,7.38525390625,-121.2005615234375
13.4899999,-4.220977783203125,-36.31285858154297,-6.828263282775879,12.4053955078125,5.3253173828125,-198.05908203125
13.5099999,-2.7078421115875244,-30.940269470214844,-6.502651691436768,55.6488037109375,29.4036865234375,-228.8055419921875
13.5299999,-1.764526605606079,-24.815900802612305,-5.980715751647949,102.7374267578125,36.224365234375,-258.7432861328125
13.549999900000001,-1.3311761617660522,-18.748992919921875,-5.032611846923828,112.48779296875,34.3475341796875,-282.806396484375
13.569999900000001,-1.1228805780410767,-12.935872077941895,-3.77565598487854,90.75927734375,37.1246337890625,-279.6630859375
13.5899999,-0.849941611289978,-7.378929615020752,-2.387019157409668,59.4940185546875,38.4521484375,-255.828857421875
13.6099999,-0.3687070608139038,-2.027888774871826,-0.9289502501487732,48.27880859375,41.9769287109375,-219.207763671875
13.629999900000001,0.33758243918418884,2.8826189041137695,0.24181437492370605,42.7703857421875,31.1737060546875,-165.8172607421875
13.649999900000001,1.2473790645599365,7.398083209991455,1.316810965538025,26.18408203125,27.923583984375,-101.4556884765625
13.6699999,2.1930887699127197,11.422736167907715,2.0901381969451904,-3.3416748046875,28.4271240234375,-33.8592529296875
13.6899999,2.8227639198303223,14.420276641845703,2.7940332889556885,-27.2216796875,24.9786376953125,61.95068359375
13.709999900000001,2.942473888397217,15.385140419006348,3.7038300037384033,-29.8309326171875,20.477294921875,171.56982421875
13.729999900000001,2.456450939178467,14.968548774719238,4.680664539337158,-55.23681640625,-14.495849609375,198.8525390625
13.7499999,1.41257905960083,12.777854919433594,5.4228668212890625,-101.01318359375,-63.6138916015625,240.966796875
13.7699999,-0.2849099934101105,8.422801971435547,5.260061264038086,-164.1998291015625,-98.8616943359375,345.1385498046875
13.789999900000002,-1.9967641830444336,1.659181833267212,3.5003228187561035,-155.853271484375,-124.93896484375,398.5443115234375
13.809999900000001,-3.6774938106536865,-6.646304130554199,0.3734954595565796,-68.54248046875,-99.4415283203125,274.0325927734375
13.8299999,-4.742913722991943,-15.962142944335938,-3.0142998695373535,15.167236328125,-34.9884033203125,197.296142578125
13.8499999,-5.25527286529541,-24.878149032592773,-5.9088897705078125,33.6151123046875,-19.317626953125,187.3016357421875
13.8699999,-5.078101634979248,-31.541213989257812,-7.187393665313721,-25.4364013671875,-10.650634765625,97.22900390625
13.889999900000001,-4.537012100219727,-35.379119873046875,-7.922413349151611,-59.6160888671875,-28.0914306640625,-81.207275390625
13.9099999,-3.801992416381836,-36.564247131347656,-8.01339340209961,-2.960205078125,6.500244140625,-142.364501953125
13.9299999,-3.004723072052002,-34.55790710449219,-8.372523307800293,38.3148193359375,52.032470703125,-174.3011474609375
13.9499999,-2.365471363067627,-30.06877899169922,-8.403648376464844,54.62646484375,80.4901123046875,-236.7401123046875
13.969999900000001,-2.0685901641845703,-24.655488967895508,-7.65186882019043,89.4775390625,93.1396484375,-267.5628662109375
13.9899999,-1.9584569931030273,-18.499996185302734,-5.916072368621826,107.4676513671875,80.62744140625,-273.468017578125
14.0099999,-1.8531121015548706,-12.629413604736328,-3.6152446269989014,78.2470703125,49.7894287109375,-257.965087890625
14.0299999,-1.6041151285171509,-7.046135425567627,-1.158793568611145,34.5611572265625,38.818359375,-247.3602294921875
14.049999900000001,-1.158793568611145,-2.1499931812286377,0.9983820915222168,27.9693603515625,32.684326171875,-223.7548828125
14.069999900000001,-0.31364041566848755,2.6623523235321045,2.3535003662109375,46.295166015625,11.90185546875,-188.17138671875
14.0899999,0.7158663272857666,7.63989782333374,3.2968156337738037,43.365478515625,7.6141357421875,-123.504638671875
14.1099999,1.8602946996688843,12.540828704833984,4.060565948486328,28.7628173828125,21.66748046875,4.8370361328125
14.129999900000001,2.537853717803955,15.976508140563965,4.527435302734375,-24.322509765625,-9.796142578125,138.00048828125
14.149999900000001,2.564189910888672,16.99883270263672,5.442020416259766,-64.0411376953125,-31.1126708984375,213.9892578125
14.1699999,1.920149803161621,15.562311172485352,5.616796970367432,-88.2110595703125,-77.3773193359375,223.724365234375
14.1899999,0.5410895943641663,12.392388343811035,5.166687488555908,-95.672607421875,-94.9859619140625,280.975341796875
14.209999900000001,-1.237802267074585,5.382165431976318,3.861847400665283,-88.0584716796875,-88.3941650390625,411.80419921875
14.229999900000001,-2.8347349166870117,-1.139639973640442,1.2090718746185303,-68.0084228515625,-101.7303466796875,309.2498779296875
14.2499999,-4.189853191375732,-9.974244117736816,-1.2258312702178955,-14.16015625,-73.3184814453125,214.752197265625
14.2699999,-4.95120906829834,-17.98524284362793,-3.706224203109741,38.75732421875,-46.5240478515625,236.81640625
14.289999900000002,-5.188235282897949,-25.27558708190918,-5.243301868438721,-28.4576416015625,-34.0728759765625,191.009521484375
14.309999900000001,-5.023035049438477,-30.81098175048828,-6.787561893463135,-112.213134765625,-43.5943603515625,43.182373046875
14.3299999,-4.63517427444458,-34.67522430419922,-7.953537940979004,-66.375732421875,-10.955810546875,-84.136962890625
14.3499999,-3.9432501792907715,-35.391090393066406,-9.047688484191895,33.0810546875,49.0264892578125,-144.378662109375
14.3699999,-3.0885202884674072,-33.391929626464844,-9.560047149658203,40.6036376953125,61.065673828125,-170.3948974609375
14.389999900000001,-1.7980455160140991,-24.00187110900879,-7.790732383728027,40.6646728515625,76.7669677734375,-238.1439208984375
14.4099999,-1.5514427423477173,-18.543092727661133,-5.856217384338379,73.1353759765625,92.803955078125,-260.467529296875
14.4299999,-1.4317326545715332,-13.407529830932617,-3.797203779220581,75.3021240234375,81.817626953125,-255.9814453125
14.4499999,-1.280897855758667,-8.238448143005371,-1.6950948238372803,50.9185791015625,59.5245361328125,-233.306884765625
14.469999900000001,-0.8834604024887085,-3.1459810733795166,0.2106897532939911,28.8238525390625,54.4891357421875,-205.74951171875
14.4899999,-0.19393034279346466,1.8124107122421265,1.7573440074920654,24.4598388671875,50.7049560546875,-160.4156494140625
14.5099999,0.7469909191131592,6.648698329925537,3.095702886581421,34.8052978515625,44.2657470703125,-100.6317138671875
14.5299999,1.7860745191574097,11.370063781738281,4.129997730255127,30.6549072265625,22.8271484375,-29.23583984375
14.549999900000001,2.4612393379211426,14.999673843383789,5.085284233093262,10.5133056640625,9.3231201171875,83.038330078125
14.569999900000001,2.5234885215759277,16.077064514160156,5.8873419761657715,-28.564453125,-2.288818359375,198.394775390625
14.5899999,1.9847931861877441,15.155296325683594,6.2392897605896,-75.164794921875,-44.281005859375,200.0732421875
14.6099999,0.8762778043746948,11.72201156616211,6.026205539703369,-78.582763671875,-79.2694091796875,210.418701171875
14.629999900000001,-0.6991068720817566,6.119579315185547,4.793191909790039,-66.253662109375,-94.207763671875,292.78564453125
14.649999900000001,-2.1978771686553955,-1.1444283723831177,2.5546131134033203,-28.839111328125,-93.3380126953125,312.2711181640625
14.6699999,-3.426102638244629,-8.999804496765137,-0.12210428714752197,1.678466796875,-68.29833984375,191.864013671875
14.6899999,-4.177882194519043,-17.899051666259766,-2.4803929328918457,24.5513916015625,-43.2281494140625,144.378662109375
14.709999900000001,-4.094084739685059,-25.919628143310547,-4.60165548324585,-8.1634521484375,-70.7550048828125,122.222900390625
14.729999900000001,-3.1675288677215576,-31.790210723876953,-6.4164605140686035,-74.7528076171875,-60.5316162109375,-0.2899169921875
14.7499999,-1.723825216293335,-35.23067855834961,-8.20492935180664,-22.5830078125,-3.60107421875,-88.3636474609375
14.7699999,-0.12928688526153564,-35.443763732910156,-9.220070838928223,72.967529296875,67.9779052734375,-125.701904296875
14.789999900000002,1.158793568611145,-32.913089752197266,-9.062053680419922,79.254150390625,83.4197998046875,-155.21240234375
14.809999900000001,1.7477672100067139,-28.581979751586914,-7.546523571014404,40.4815673828125,56.9305419921875,-195.404052734375
14.8299999,1.5682021379470825,-23.721750259399414,-5.20978307723999,38.63525390625,59.814453125,-227.9052734375
14.8499999,0.9528923034667969,-18.622100830078125,-3.0765492916107178,53.497314453125,73.1201171875,-249.0234375
14.8699999,0.20111294090747833,-13.503297805786133,-1.3479355573654175,68.572998046875,76.904296875,-244.2169189453125
14.889999900000001,-0.45250412821769714,-8.403648376464844,-0.10055647045373917,64.4989013671875,65.277099609375,-216.6748046875
14.9099999,-0.8786720037460327,-3.112462282180786,1.0103530883789062,51.6357421875,53.1768798828125,-191.22314453125
14.9299999,-1.0223240852355957,2.22660756111145,2.0877439975738525,47.91259765625,48.4619140625,-159.515380859375
14.9499999,-0.8858546018600464,7.465120792388916,3.315969467163086,26.123046875,33.6456298828125,-87.2344970703125
14.969999900000001,-0.5793967843055725,12.459425926208496,4.479551315307617,-12.0391845703125,-0.5950927734375,-3.1280517578125
14.9899999,-0.31603461503982544,15.684414863586426,5.714959621429443,-27.6947021484375,-24.6124267578125,103.759765625
15.0099999,-0.16998831927776337,17.07305145263672,6.375759124755859,-49.7283935546875,-53.64990234375,163.4979248046875
15.0299999,-0.19871874153614044,16.350004196166992,6.354211330413818,-77.239990234375,-80.8258056640625,195.12939453125
15.049999900000001,-0.5985504388809204,13.376404762268066,5.279214859008789,-93.93310546875,-95.7489013671875,268.24951171875
15.069999900000001,-1.2521674633026123,7.378929615020752,3.3063924312591553,-103.2257080078125,-98.785400390625,343.9788818359375
15.0899999,-1.9345149993896484,-0.304063618183136,0.395043283700943,-98.8311767578125,-99.4873046875,280.2734375
15.1099999,-2.4660277366638184,-10.029311180114746,-2.8634653091430664,-50.4302978515625,-83.4808349609375,210.0982666015625
15.129999900000001,-2.7222073078155518,-20.398597717285156,-5.57370138168335,3.3721923828125,-35.4766845703125,199.9053955078125
15.149999900000001,-2.360682964324951,-29.597122192382812,-7.718906402587891,-22.4151611328125,-24.96337890625,117.1875
15.1699999,-1.5466543436050415,-35.72148895263672,-9.198522567749023,-57.0220947265625,-35.7208251953125,-54.962158203125
15.1899999,-0.4213795065879822,-38.6280517578125,-9.914389610290527,2.8533935546875,19.561767578125,-125.579833984375
15.209999900000001,0.7829039692878723,-37.36391067504883,-10.278307914733887,50.4302978515625,66.6351318359375,-144.683837890625
15.229999900000001,1.6711528301239014,-33.00407028198242,-9.655815124511719,60.5316162109375,94.9554443359375,-190.5975341796875
15.2499999,1.946485996246338,-27.269956588745117,-8.243236541748047,68.4051513671875,88.897705078125,-221.5118408203125
15.2699999,1.6424223184585571,-21.241357803344727,-5.959167957305908,67.0318603515625,87.46337890625,-231.231689453125
15.289999900000002,1.036689281463623,-15.449783325195312,-3.6176388263702393,60.05859375,87.9058837890625,-239.532470703125
15.309999900000001,0.40462008118629456,-10.077195167541504,-1.5179238319396973,53.375244140625,83.4503173828125,-234.86328125
15.3299999,-0.1173158809542656,-5.319916248321533,0.2801215946674347,59.295654296875,83.8470458984375,-207.5958251953125
15.3499999,-0.44532153010368347,-0.7350199222564697,1.647210717201233,65.5059814453125,70.80078125,-174.560546875
15.3699999,-0.5315127968788147,4.043806552886963,2.9951462745666504,56.3812255859375,60.2264404296875,-152.191162109375
15.389999900000001,-0.4213795065879822,8.978256225585938,4.381389141082764,27.191162109375,43.0450439453125,-81.268310546875
15.4099999,-0.24899697303771973,13.670891761779785,5.6455278396606445,-13.641357421875,4.6234130859375,34.271240234375
15.4299999,-0.20111294090747833,16.567874908447266,6.7492547035217285,-45.7305908203125,-27.435302734375,143.585205078125
15.4499999,-0.31124621629714966,17.214309692382812,7.352593421936035,-67.901611328125,-54.6112060546875,185.9130859375
15.469999900000001,-0.629675030708313,15.741876602172852,7.19936466217041,-66.40625,-88.8671875,207.5653076171875
15.4899999,-1.235408067703247,12.193669319152832,6.354211330413818,-89.080810546875,-103.424072265625,294.73876953125
15.5099999,-2.2433669567108154,5.966350555419922,4.570530891418457,-160.2020263671875,-124.237060546875,369.20166015625
15.5299999,-3.112462282180786,-2.3295583724975586,1.235408067703247,-149.1241455078125,-160.919189453125,332.7789306640625
15.549999900000001,-3.8139634132385254,-12.287043571472168,-2.7102363109588623,-27.6031494140625,-117.4163818359375,206.5887451171875
15.569999900000001,-3.9217023849487305,-22.455217361450195,-6.404489517211914,44.2047119140625,-18.1732177734375,145.9197998046875
15.5899999,-3.203441858291626,-30.6098690032959,-9.68694019317627,-33.9202880859375,-34.1033935546875,85.7086181640625
15.6099999,-1.9632453918457031,-35.06308364868164,-11.063606262207031,-46.966552734375,-16.143798828125,-41.0614013671875
15.629999900000001,-0.5410895943641663,-36.51396942138672,-11.362881660461426,23.712158203125,30.1055908203125,-101.9287109375
15.649999900000001,0.8523358106613159,-34.63691711425781,-10.618284225463867,52.5054931640625,55.0384521484375,-130.2032470703125
15.6699999,1.8698714971542358,-30.535648345947266,-9.097966194152832,37.4908447265625,63.4613037109375,-174.86572265625
15.6899999,2.3511061668395996,-25.503036499023438,-7.146692276000977,28.1219482421875,69.7479248046875,-204.3609619140625
15.709999900000001,2.319981336593628,-20.190303802490234,-5.193023681640625,46.32568359375,78.4149169921875,-217.3614501953125
15.729999900000001,1.9488801956176758,-15.119383811950684,-3.3039982318878174,74.3865966796875,91.461181640625,-217.315673828125
15.7499999,1.4628572463989258,-10.165780067443848,-1.6927006244659424,76.6143798828125,84.04541015625,-216.583251953125
15.7699999,0.9768342971801758,-5.676652431488037,-0.07182604819536209,55.17578125,72.7386474609375,-193.572998046875
15.789999900000002,0.608127236366272,-1.4077905416488647,1.3646949529647827,39.825439453125,60.3179931640625,-160.8428955078125
15.809999900000001,0.4381389021873474,2.612074136734009,2.628833532333374,40.4052734375,45.379638671875,-129.5013427734375
15.8299999,0.4381389021873474,6.375759124755859,3.8091750144958496,39.6575927734375,35.2630615234375,-79.3609619140625
15.8499999,0.6033388376235962,9.981427192687988,4.857835292816162,21.0418701171875,13.671875,-10.1776123046875
15.869999900000002,0.727837324142456,12.825738906860352,5.817910194396973,-15.7318115234375,-18.1427001953125,76.629638671875
15.889999900000001,0.6631938815116882,14.089877128601074,6.521805286407471,-58.0596923828125,-49.0570068359375,163.75732421875
15.9099999,-0.2992752194404602,11.195286750793457,5.932831764221191,-77.2705078125,-106.689453125,237.335205078125
15.9299999,-1.1755530834197998,6.715735912322998,4.185064792633057,-90.667724609375,-117.9962158203125,294.158935546875
15.9499999,-2.2433669567108154,-0.20111294090747833,1.2401964664459229,-154.6478271484375,-126.4190673828125,318.9849853515625
15.969999900000001,-3.1076738834381104,-9.368511199951172,-2.8419175148010254,-130.218505859375,-119.4000244140625,284.7900390625
15.9899999,-3.5625722408294678,-19.44570541381836,-7.053318023681641,0.4119873046875,-66.0552978515625,166.778564453125
16.0099999,-3.251325845718384,-28.881254196166992,-10.110713958740234,55.6640625,-1.953125,52.978515625
16.0299999,-1.98958158493042,-34.85478973388672,-11.923124313354492,-29.6173095703125,-12.4053955078125,-43.8690185546875
16.0499999,-0.2777273952960968,-36.97126388549805,-11.899182319641113,-35.9954833984375,1.5716552734375,-110.1531982421875
16.0699999,1.4437036514282227,-35.39827346801758,-10.910377502441406,9.735107421875,56.2591552734375,-148.956298828125
16.089999900000002,2.7054479122161865,-31.23236083984375,-9.605537414550781,29.815673828125,81.9549560546875,-190.0787353515625
16.109999900000002,3.2130186557769775,-25.926809310913086,-7.936778545379639,50.29296875,93.4906005859375,-210.723876953125
16.1299999,3.050212860107422,-20.05143928527832,-5.9974751472473145,61.248779296875,101.8829345703125,-221.923828125
16.1499999,2.473210334777832,-14.482525825500488,-4.1180267333984375,72.174072265625,98.2513427734375,-215.728759765625
16.1699999,1.7525556087493896,-9.32541561126709,-2.2194249629974365,81.146240234375,97.808837890625,-199.70703125
16.1899999,1.0965443849563599,-4.795586109161377,-0.44532153010368347,73.0133056640625,96.1151123046875,-187.5457763671875
16.2099999,0.6440402865409851,-0.8523358106613159,1.192312479019165,53.03955078125,77.5909423828125,-160.6292724609375
16.2299999,0.45250412821769714,2.7222073078155518,2.762908697128296,34.66796875,57.708740234375,-125.5645751953125
16.249999900000002,0.5171475410461426,5.935225963592529,4.230554580688477,20.8740234375,40.83251953125,-74.76806640625
16.269999900000002,0.751779317855835,8.65743350982666,5.360617637634277,0.1220703125,10.223388671875,-10.1318359375
16.2899999,0.9672574996948242,10.488997459411621,6.217741966247559,-19.9737548828125,-16.7694091796875,51.7578125
16.3099999,1.0749965906143188,11.398794174194336,6.624756336212158,-28.6407470703125,-39.24560546875,98.2666015625
16.3299999,0.9768342971801758,11.21204662322998,6.469132900238037,-37.53662109375,-66.0858154296875,146.6217041015625
16.3499999,0.6368576288223267,10.11550235748291,5.851428985595703,-45.7763671875,-81.2835693359375,205.413818359375
16.3699999,0.009576806798577309,7.661445617675781,5.039794445037842,-72.0977783203125,-88.56201171875,252.01416015625
16.3899999,-0.8188169598579407,4.611232280731201,3.7900211811065674,-131.6375732421875,-115.509033203125,244.9188232421875
16.4099999,-1.9153614044189453,-0.3519476354122162,1.45806884765625,-138.4124755859375,-166.717529296875,275.604248046875
16.429999900000002,-3.098097085952759,-7.752425193786621,-1.8698714971542358,-85.5865478515625,-147.674560546875,328.9947509765625
16.4499999,-3.8786067962646484,-16.6420955657959,-6.121973514556885,-70.770263671875,-82.6568603515625,217.1478271484375
16.4699999,-3.689464807510376,-25.723302841186523,-11.025299072265625,-82.8399658203125,-57.6019287109375,36.7889404296875
16.4899999,-2.406172752380371,-33.78458023071289,-14.657302856445312,-26.79443359375,3.6468505859375,-7.14111328125
16.5099999,-0.35913026332855225,-37.7110710144043,-16.725893020629883,46.7376708984375,82.2601318359375,-62.957763671875
16.5299999,1.6352397203445435,-37.519535064697266,-16.519990921020508,107.60498046875,109.2529296875,-168.9910888671875
16.5499999,2.801215887069702,-34.19877624511719,-13.929465293884277,113.800048828125,124.4964599609375,-189.8193359375
16.5699999,3.095702886581421,-27.985824584960938,-10.453084945678711,59.112548828125,93.1243896484375,-214.0960693359375
16.589999900000002,2.7126305103302,-20.985177993774414,-6.672640323638916,53.1005859375,96.038818359375,-222.5799560546875
16.609999900000002,2.051830768585205,-14.322114944458008,-3.627215623855591,95.52001953125,120.60546875,-210.9832763671875
16.6299999,1.3718775510787964,-8.348581314086914,-1.3670891523361206,115.509033203125,118.194580078125,-207.183837890625
16.6499999,0.7781155705451965,-3.4380736351013184,0.5506663918495178,94.6502685546875,102.203369140625,-191.1773681640625
16.6699999,0.43095630407333374,0.7326257228851318,2.276885747909546,57.708740234375,78.277587890625,-151.7333984375
16.6899999,0.4118026793003082,4.352658748626709,3.818751811981201,27.9388427734375,52.734375,-111.114501953125
16.7099999,0.646434485912323,7.304709434509277,5.116408824920654,6.5765380859375,30.029296875,-54.74853515625
16.7299999,0.9840168952941895,9.461885452270508,6.057330131530762,-10.345458984375,4.94384765625,9.8724365234375
16.749999900000002,1.2665326595306396,10.709263801574707,6.574477672576904,-24.0936279296875,-22.0794677734375,63.9495849609375
16.769999900000002,1.3407529592514038,10.733205795288086,6.701370716094971,-32.4859619140625,-45.7611083984375,114.715576171875
16.7899999,1.2114660739898682,9.299078941345215,6.50025749206543,-33.843994140625,-64.9566650390625,160.2325439453125
16.8099999,1.0031704902648926,6.9240312576293945,5.851428985595703,-61.5997314453125,-91.1865234375,167.90771484375
16.8299999,0.7829039692878723,3.397372245788574,4.352658748626709,-79.3914794921875,-122.6959228515625,183.59375
16.8499999,0.5386953949928284,-1.7764976024627686,2.3032219409942627,-55.938720703125,-108.8714599609375,228.668212890625
16.8699999,0.4118026793003082,-8.109161376953125,-0.42377370595932007,-51.7120361328125,-83.892822265625,203.4759521484375
16.8899999,0.5626373887062073,-14.786589622497559,-3.4404678344726562,-53.863525390625,-81.6192626953125,109.466552734375
16.9099999,1.0079588890075684,-20.463241577148438,-5.8203043937683105,-14.7552490234375,-49.37744140625,55.7861328125
16.929999900000002,1.86508309841156,-23.527820587158203,-7.438784599304199,42.938232421875,-19.2413330078125,43.3197021484375
16.9499999,2.8658595085144043,-23.357831954956055,-7.6997528076171875,57.18994140625,-1.190185546875,20.1568603515625
16.9699999,3.6942532062530518,-21.066579818725586,-6.710947513580322,15.4571533203125,8.758544921875,6.8511962890625
16.9899999,4.197035789489746,-17.652448654174805,-5.039794445037842,-17.5323486328125,-3.1585693359375,5.0201416015625
17.0099999,4.302380561828613,-14.228740692138672,-3.066972494125366,-6.3323974609375,2.197265625,2.86865234375
17.0299999,4.10366153717041,-11.580753326416016,-1.6136919260025024,15.228271484375,1.8310546875,4.82177734375
17.0499999,3.689464807510376,-9.832986831665039,-0.5291185975074768,20.3094482421875,9.2010498046875,2.105712890625
17.0699999,3.203441858291626,-8.999804496765137,-0.004788403399288654,3.448486328125,5.6610107421875,0.701904296875
17.089999900000002,2.7461493015289307,-8.767566680908203,0.21787235140800476,-12.8326416015625,1.5716552734375,-2.3651123046875
17.109999900000002,2.410961151123047,-8.916007041931152,0.16759411990642548,-10.31494140625,-0.5645751953125,-4.791259765625
17.1299999,2.252943754196167,-9.133879661560059,-0.043095629662275314,0.0152587890625,0.8087158203125,-6.744384765625
17.1499999,2.2649147510528564,-9.299078941345215,-0.2849099934101105,2.6397705078125,1.46484375,-4.2266845703125
17.1699999,2.4013843536376953,-9.32541561126709,-0.47644615173339844,0.3204345703125,0.79345703125,-0.91552734375
17.1899999,2.5689783096313477,-9.308655738830566,-0.5602431893348694,-4.1351318359375,-0.579833984375,1.0833740234375
17.2099999,2.7293899059295654,-9.313444137573242,-0.6943184733390808,-4.2572021484375,-3.204345703125,0.7476806640625
17.2299999,2.8227639198303223,-9.373299598693848,-0.7948749661445618,0.3509521484375,0.9613037109375,1.2359619140625
17.249999900000002,2.851494312286377,-9.497797966003418,-0.9433154463768005,-1.495361328125,4.4097900390625,0.5950927734375
17.269999900000002,2.8395233154296875,-9.591172218322754,-1.0223240852355957,-6.5155029296875,3.509521484375,-2.5787353515625
17.2899999,2.7940332889556885,-9.703699111938477,-0.9840168952941895,-5.7373046875,1.5411376953125,-2.8839111328125
17.3099999,2.7533318996429443,-9.725247383117676,-0.8690952062606812,2.8076171875,-0.518798828125,-2.50244140625
17.3299999,2.736572504043579,-9.66539192199707,-0.7230489253997803,2.8533935546875,-0.518798828125,-4.2877197265625
17.3499999,2.7317841053009033,-9.528923034667969,-0.6512228846549988,-7.32421875,-1.8310546875,-3.5247802734375
17.3699999,2.719813108444214,-9.425971984863281,-0.6440402865409851,-11.3372802734375,-0.335693359375,-0.9765625
17.3899999,2.7054479122161865,-9.337387084960938,-0.7015010714530945,-7.7667236328125,0.274658203125,-2.685546875
17.409999900000003,2.7054479122161865,-9.361329078674316,-0.8379706144332886,0.5645751953125,-1.678466796875,-3.35693359375
17.429999900000002,2.7222073078155518,-9.38048267364502,-0.8834604024887085,7.5531005859375,1.129150390625,-2.25830078125
17.4499999,2.8371291160583496,-9.332598686218262,-0.8954314589500427,-4.4708251953125,-0.6256103515625,-0.48828125
17.4699999,2.868253707885742,-9.299078941345215,-0.8690952062606812,-5.0201416015625,-1.3885498046875,0.274658203125
17.4899999,2.87064790725708,-9.251194953918457,-0.8810662031173706,1.1138916015625,-0.5340576171875,0.6256103515625
17.5099999,2.853888511657715,-9.224859237670898,-0.9313444495201111,4.8370361328125,1.1444091796875,1.220703125
17.5299999,2.8347349166870117,-9.193734169006348,-0.9624691009521484,2.1820068359375,2.3345947265625,3.35693359375
17.5499999,2.8179752826690674,-9.23682975769043,-0.9361328482627869,-3.2501220703125,2.8076171875,4.974365234375
17.5699999,2.8107926845550537,-9.296685218811035,-0.9026140570640564,-4.2572021484375,-0.6561279296875,1.9378662109375
17.589999900000002,2.7940332889556885,-9.394847869873047,-0.8236053586006165,1.52587890625,0.30517578125,0.762939453125
17.609999900000002,2.784456491470337,-9.44991397857666,-0.7757213711738586,1.2054443359375,0.48828125,1.4801025390625
17.6299999,2.7748796939849854,-9.421183586120605,-0.7469909191131592,-2.7923583984375,-1.6326904296875,2.471923828125
17.6499999,2.7557260990142822,-9.354146003723145,-0.7398083209991455,-3.173828125,-1.8463134765625,3.8604736328125
17.6699999,2.736572504043579,-9.29189682006836,-0.7661445140838623,-0.9765625,-0.946044921875,4.2572021484375
17.6899999,2.7078421115875244,-9.227252960205078,-0.7948749661445618,-0.5950927734375,0.0762939453125,3.1890869140625
17.7099999,2.6839001178741455,-9.23682975769043,-0.7996633648872375,-0.9307861328125,-0.244140625,5.401611328125
17.7299999,2.6671407222747803,-9.253589630126953,-0.790086567401886,-0.885009765625,-2.9144287109375,5.79833984375
17.749999900000002,2.6599581241607666,-9.320627212524414,-0.7637503147125244,1.373291015625,-2.9144287109375,5.67626953125
17.769999900000002,2.655169725418091,-9.394847869873047,-0.7781155705451965,0.885009765625,-2.7313232421875,4.6234130859375
17.7899999,2.6455929279327393,-9.521739959716797,-0.8307880163192749,-3.4942626953125,-2.227783203125,4.2572021484375
17.8099999,2.6360161304473877,-9.634267807006836,-0.9193734526634216,-4.2266845703125,-1.52587890625,2.716064453125
17.8299999,2.626439332962036,-9.730035781860352,-1.0462661981582642,-1.556396484375,-1.2054443359375,0.42724609375
17.8499999,2.6192567348480225,-9.765948295593262,-1.1300631761550903,1.708984375,1.4801025390625,1.312255859375
17.8699999,2.6192567348480225,-9.725247383117676,-1.137245774269104,2.9296875,2.288818359375,1.312255859375
17.8899999,2.612074136734009,-9.634267807006836,-1.0558429956436157,1.739501953125,-0.3509521484375,1.3580322265625
17.909999900000003,2.609679937362671,-9.495404243469238,-0.9289502501487732,-0.701904296875,-2.8228759765625,0.152587890625
17.929999900000002,2.6024973392486572,-9.399636268615723,-0.828393816947937,-2.716064453125,-2.471923828125,1.983642578125
17.9499999,2.604891538619995,-9.346963882446289,-0.8259995579719543,-1.9989013671875,-0.946044921875,3.6163330078125
17.9699999,2.609679937362671,-9.35893440246582,-0.8834604024887085,0.91552734375,-0.1220703125,3.5247802734375
17.9899999,2.609679937362671,-9.41400146484375,-0.9552865028381348,3.662109375,1.5106201171875,2.5177001953125
18.0099999,2.6024973392486572,-9.509769439697266,-0.950498104095459,2.9449462890625,1.800537109375,2.685546875
18.0299999,2.585737943649292,-9.567230224609375,-0.9265560507774353,-1.1749267578125,-1.64794921875,1.4190673828125
18.0499999,2.5689783096313477,-9.63187313079834,-0.8667010068893433,-2.105712890625,-2.6092529296875,0.6866455078125
18.0699999,2.5546131134033203,-9.634267807006836,-0.8451532125473022,0.8087158203125,-1.9683837890625,0.2288818359375
18.089999900000002,2.5546131134033203,-9.59596061706543,-0.8882488012313843,2.0751953125,-1.434326171875,0.701904296875
18.109999900000002,2.5450363159179688,-9.524134635925293,-0.9457096457481384,0.91552734375,0.457763671875,1.5411376953125
18.1299999,2.537853717803955,-9.481039047241211,-1.0127472877502441,-1.0986328125,1.1138916015625,2.62451171875
18.1499999,2.5258827209472656,-9.442731857299805,-1.0654197931289673,-0.9307861328125,0.7781982421875,-0.0152587890625
18.1699999,2.5091233253479004,-9.485827445983887,-1.0773907899856567,1.64794921875,1.922607421875,0.762939453125
18.1899999,2.5067291259765625,-9.497797966003418,-1.0534487962722778,-0.152587890625,1.2054443359375,-0.0152587890625
18.2099999,2.52109432220459,-9.497797966003418,-1.0127472877502441,0.0762939453125,0.9002685546875,-0.3509521484375
18.2299999,2.542642116546631,-9.442731857299805,-0.9528923034667969,0.3662109375,1.4801025390625,1.251220703125
18.249999900000002,2.564189910888672,-9.399636268615723,-0.8906430602073669,-1.0528564453125,2.4261474609375,3.021240234375
18.269999900000002,2.564189910888672,-9.397241592407227,-0.8379706144332886,-3.1890869140625,1.0986328125,2.838134765625
18.2899999,2.5498247146606445,-9.452308654785156,-0.8188169598579407,-0.518798828125,-0.1373291015625,1.1444091796875
18.3099999,2.5282769203186035,-9.531316757202148,-0.7996633648872375,2.9296875,0.5950927734375,0.1373291015625
18.3299999,2.516305923461914,-9.581595420837402,-0.849941611289978,0.8392333984375,0.6866455078125,0.7781982421875
18.3499999,2.516305923461914,-9.557653427124023,-0.8858546018600464,-0.3662109375,1.220703125,2.044677734375
18.3699999,2.513911724090576,-9.516951560974121,-0.9193734526634216,1.373291015625,1.861572265625,3.5858154296875
18.3899999,2.499546527862549,-9.466673851013184,-0.9050082564353943,0.823974609375,1.251220703125,1.983642578125
18.409999900000003,2.477998733520508,-9.476250648498535,-0.8882488012313843,-2.044677734375,-1.2969970703125,0.5645751953125
18.429999900000002,2.4612393379211426,-9.512163162231445,-0.8738836050033569,-2.3193359375,-1.312255859375,0.732421875
18.4499999,2.454056739807129,-9.581595420837402,-0.8810662031173706,-0.0457763671875,0.5035400390625,1.220703125
18.4699999,2.4660277366638184,-9.610325813293457,-0.9433154463768005,1.3275146484375,0.5950927734375,0.5950927734375
18.4899999,2.47560453414917,-9.646238327026367,-0.9600749015808105,1.64794921875,1.8768310546875,0.2593994140625
18.5099999,2.4827871322631836,-9.605537414550781,-0.9816226959228516,-0.3814697265625,1.40380859375,-0.3662109375
18.5299999,2.47560453414917,-9.583989143371582,-0.9648633003234863,-2.25830078125,0.732421875,-0.42724609375
18.5499999,2.4684219360351562,-9.519346237182617,-0.9481038451194763,-1.0528564453125,1.0986328125,-0.1068115234375
18.5699999,2.4636335372924805,-9.485827445983887,-0.9457096457481384,-0.4425048828125,1.7852783203125,0
18.589999900000002,2.4660277366638184,-9.457097053527832,-0.9313444495201111,-2.044677734375,2.1514892578125,0.1220703125
18.609999900000002,2.4660277366638184,-9.454702377319336,-0.9050082564353943,-2.8076171875,2.166748046875,0.0762939453125
18.6299999,2.4660277366638184,-9.469067573547363,-0.8762778043746948,-2.4871826171875,0.8392333984375,-0.4119873046875
18.6499999,2.4636335372924805,-9.488221168518066,-0.8523358106613159,-1.7852783203125,-0.6256103515625,-0.579833984375
18.6699999,2.4660277366638184,-9.509769439697266,-0.8307880163192749,0.2288818359375,0.6561279296875,-0.335693359375
18.6899999,2.4803929328918457,-9.519346237182617,-0.8619126081466675,1.5716552734375,-0.518798828125,0.5950927734375
18.7099999,2.4899697303771973,-9.550470352172852,-0.8810662031173706,0.18310546875,0.48828125,0.732421875
18.7299999,2.499546527862549,-9.560047149658203,-0.9313444495201111,-0.732421875,0.274658203125,-1.251220703125
18.749999900000002,2.497152328491211,-9.5624418258667,-0.9696516990661621,0.4730224609375,0.7171630859375,-1.2664794921875
18.769999900000002,2.494758129119873,-9.543288230895996,-0.9864110946655273,0.9002685546875,1.312255859375,0.3814697265625
18.7899999,2.4899697303771973,-9.48343276977539,-0.9888052940368652,0,0.9765625,0.5645751953125
18.8099999,2.477998733520508,-9.457097053527832,-0.9720458984375,-1.0986328125,1.03759765625,1.007080078125
18.8299999,2.4660277366638184,-9.437943458557129,-0.9409212470054626,-0.6103515625,1.3885498046875,0.54931640625
18.8499999,2.456450939178467,-9.466673851013184,-0.912190854549408,0.6561279296875,0.640869140625,0.457763671875
18.8699999,2.456450939178467,-9.497797966003418,-0.8978256583213806,-0.0152587890625,-0.2593994140625,-0.4425048828125
18.8899999,2.4660277366638184,-9.521739959716797,-0.8954314589500427,-0.54931640625,0.42724609375,0.0152587890625
18.909999900000003,2.47560453414917,-9.543288230895996,-0.9169792532920837,0.1983642578125,1.129150390625,0.5035400390625
18.929999900000002,2.4803929328918457,-9.53849983215332,-0.9361328482627869,-0.0152587890625,1.068115234375,-0.1983642578125
18.9499999,2.477998733520508,-9.533711433410645,-0.9313444495201111,-0.06103515625,1.373291015625,-0.42724609375
18.9699999,2.4660277366638184,-9.514557838439941,-0.9097966551780701,0.5645751953125,-0.152587890625,-0.3814697265625
18.9899999,2.4636335372924805,-9.519346237182617,-0.9026140570640564,0,0.79345703125,-0.335693359375
19.0099999,2.4684219360351562,-9.50737476348877,-0.912190854549408,-0.274658203125,0.7781982421875,0.0762939453125
19.0299999,2.47560453414917,-9.536105155944824,-0.9265560507774353,-0.0457763671875,0.9002685546875,-0.18310546875
19.0499999,2.477998733520508,-9.550470352172852,-0.9361328482627869,0.0762939453125,1.1444091796875,-1.190185546875
19.0699999,2.4803929328918457,-9.564835548400879,-0.9289502501487732,0.4730224609375,1.64794921875,-1.251220703125
19.089999900000002,2.4803929328918457,-9.564835548400879,-0.9074024558067322,-0.42724609375,0.8697509765625,-0.7476806640625
19.109999900000002,2.4851813316345215,-9.519346237182617,-0.8954314589500427,-0.54931640625,-0.640869140625,-0.91552734375
19.1299999,2.492363929748535,-9.469067573547363,-0.8762778043746948,0.06103515625,-0.3509521484375,-1.129150390625
19.1499999,2.5019407272338867,-9.418789863586426,-0.8978256583213806,0.2288818359375,0.1373291015625,0.2593994140625
19.1699999,2.5115175247192383,-9.363722801208496,-0.9385270476341248,-1.0833740234375,0.5035400390625,0.518798828125
19.1899999,2.5091233253479004,-9.3828763961792,-0.9864110946655273,-0.7781982421875,1.495361328125,1.5411376953125
19.2099999,2.5043349266052246,-9.404424667358398,-1.0055646896362305,1.373291015625,2.197265625,0.732421875
19.2299999,2.5019407272338867,-9.464279174804688,-1.01753568649292,1.4190673828125,1.2054443359375,-0.3814697265625
19.249999900000002,2.497152328491211,-9.50498104095459,-0.9672574996948242,0.091552734375,1.40380859375,0.3509521484375
19.269999900000002,2.494758129119873,-9.5408935546875,-0.9169792532920837,-1.15966796875,0.9307861328125,0.48828125
19.2899999,2.4851813316345215,-9.552865028381348,-0.8619126081466675,-0.6561279296875,0.0457763671875,-0.5035400390625
19.3099999,2.477998733520508,-9.555258750915527,-0.8379706144332886,0.42724609375,-0.6256103515625,-0.9307861328125
19.3299999,2.47560453414917,-9.557653427124023,-0.849941611289978,0.030517578125,0.1068115234375,-0.3204345703125
19.3499999,2.4875755310058594,-9.521739959716797,-0.8930372595787048,-0.213623046875,1.1749267578125,-0.4425048828125
19.3699999,2.5043349266052246,-9.485827445983887,-0.9409212470054626,0.0457763671875,1.9989013671875,0.42724609375
19.3899999,2.5067291259765625,-9.461885452270508,-0.9481038451194763,0.396728515625,2.1514892578125,1.46484375
19.409999900000003,2.5043349266052246,-9.445125579833984,-0.9289502501487732,-0.152587890625,0.7781982421875,0.1068115234375
19.429999900000002,2.492363929748535,-9.476250648498535,-0.9050082564353943,-1.0833740234375,-0.9613037109375,-0.1220703125
19.4499999,2.492363929748535,-9.476250648498535,-0.9097966551780701,-0.7171630859375,-0.4425048828125,-0.7781982421875
19.4699999,2.497152328491211,-9.50737476348877,-0.9313444495201111,0.79345703125,2.1820068359375,0.8392333984375
19.4899999,2.5067291259765625,-9.512163162231445,-0.9481038451194763,0.8697509765625,2.9144287109375,0.7476806640625
19.5099999,2.5043349266052246,-9.519346237182617,-0.9457096457481384,-0.457763671875,1.190185546875,-0.42724609375
19.5299999,2.492363929748535,-9.5408935546875,-0.9002198576927185,-0.30517578125,0.9918212890625,-0.335693359375
19.5499999,2.4803929328918457,-9.528923034667969,-0.871489405632019,-0.274658203125,0.2899169921875,-0.2899169921875
19.5699999,2.470816135406494,-9.531316757202148,-0.8595184087753296,-0.3662109375,0.518798828125,0.6103515625
19.589999900000002,2.4660277366638184,-9.502586364746094,-0.8643068075180054,-0.9613037109375,0.6561279296875,0.06103515625
19.609999900000002,2.4660277366638184,-9.490615844726562,-0.8882488012313843,-0.4425048828125,0.5950927734375,0.1373291015625
19.6299999,2.473210334777832,-9.464279174804688,-0.9169792532920837,0.79345703125,0.457763671875,-0.244140625
19.6499999,2.4803929328918457,-9.466673851013184,-0.9409212470054626,1.03759765625,1.0986328125,0.48828125
19.6699999,2.497152328491211,-9.466673851013184,-0.9528923034667969,0.335693359375,1.129150390625,0.640869140625
19.6899999,2.5067291259765625,-9.493009567260742,-0.9528923034667969,-1.2664794921875,1.03759765625,-0.213623046875
19.7099999,2.5115175247192383,-9.531316757202148,-0.9409212470054626,-1.922607421875,0.6256103515625,-0.213623046875
19.7299999,2.5091233253479004,-9.552865028381348,-0.9361328482627869,-0.2288818359375,0.9765625,-1.28173828125
19.749999900000002,2.499546527862549,-9.5624418258667,-0.9193734526634216,0.3509521484375,1.2054443359375,-1.0833740234375
19.769999900000002,2.492363929748535,-9.526528358459473,-0.9169792532920837,-0.7171630859375,1.007080078125,-0.640869140625
19.7899999,2.4851813316345215,-9.495404243469238,-0.8954314589500427,-0.274658203125,1.03759765625,0.701904296875
19.8099999,2.4851813316345215,-9.442731857299805,-0.8906430602073669,-0.2899169921875,0.1373291015625,0.152587890625
19.8299999,2.4803929328918457,-9.454702377319336,-0.8858546018600464,-0.3814697265625,0.6256103515625,0.30517578125
19.8499999,2.4803929328918457,-9.466673851013184,-0.8930372595787048,-0.4425048828125,0.3662109375,-0.274658203125
19.8699999,2.4851813316345215,-9.526528358459473,-0.9050082564353943,-0.4730224609375,0.579833984375,-1.068115234375
19.8899999,2.499546527862549,-9.548076629638672,-0.9145850539207458,-0.30517578125,0.518798828125,-1.3275146484375
19.909999900000003,2.5091233253479004,-9.564835548400879,-0.9145850539207458,0.48828125,0.9613037109375,-0.5645751953125
19.929999900000002,2.513911724090576,-9.5408935546875,-0.9050082564353943,0.518798828125,0.9307861328125,-0.213623046875
19.9499999,2.5115175247192383,-9.490615844726562,-0.8978256583213806,-0.6103515625,0.1983642578125,-0.79345703125
19.9699999,2.499546527862549,-9.435548782348633,-0.8882488012313843,-0.9307861328125,0.0762939453125,0
19.9899999,2.497152328491211,-9.397241592407227,-0.8954314589500427,-0.6866455078125,0.030517578125,0.9307861328125
20.0099999,2.499546527862549,-9.39245319366455,-0.912190854549408,-0.5340576171875,0.1220703125,0.640869140625
20.0299999,2.5091233253479004,-9.41639518737793,-0.9265560507774353,0,0.48828125,-0.30517578125
20.0499999,2.518700122833252,-9.464279174804688,-0.9457096457481384,0.42724609375,0.0457763671875,0.152587890625
20.0699999,2.5234885215759277,-9.502586364746094,-0.9624691009521484,-0.4425048828125,0.06103515625,0.5035400390625
20.089999900000002,2.5234885215759277,-9.528923034667969,-0.9816226959228516,-0.274658203125,0.335693359375,0.274658203125
20.109999900000002,2.518700122833252,-9.533711433410645,-1.0007762908935547,-0.5035400390625,1.0833740234375,-0.1373291015625
20.1299999,2.5091233253479004,-9.533711433410645,-0.9983820915222168,-0.79345703125,1.251220703125,-0.335693359375
20.1499999,2.5043349266052246,-9.512163162231445,-0.9911994934082031,-0.457763671875,0.701904296875,-0.67138671875
20.1699999,2.5019407272338867,-9.502586364746094,-0.9648633003234863,-0.6256103515625,0.7171630859375,-0.1983642578125
