# Time (seconds),Accel_X,Accel_Y,Accel_Z,Gyro_X,Gyro_Y,Gyro_Z
0.0099999,13.910311698913574,-5.748478412628174,0.9265560507774353,100.9368896484375,24.7650146484375,-42.96875
0.029999900000000003,12.995726585388184,-6.512228488922119,1.3096283674240112,127.0599365234375,32.1044921875,-59.539794921875
0.0499999,11.959037780761719,-7.041347026824951,1.577778935432434,138.12255859375,23.9105224609375,-91.156005859375
0.0699999,11.018115997314453,-7.481880187988281,1.599326729774475,129.1656494140625,7.5531005859375,-120.7733154296875
0.08999990000000001,10.192116737365723,-7.690176010131836,1.2401964664459229,138.336181640625,-3.2806396484375,-159.3170166015625
0.10999990000000001,9.339780807495117,-7.536946773529053,0.4644751250743866,137.8173828125,-33.0352783203125,-220.428466796875
0.1299999,8.200140953063965,-6.584054470062256,-0.7589619159698486,111.7095947265625,-72.845458984375,-281.036376953125
0.14999990000000002,6.557718276977539,-4.424484729766846,-2.3702597618103027,78.1097412109375,-93.9178466796875,-316.253662109375
0.1699999,4.199429988861084,-0.8427590131759644,-4.3191399574279785,45.0897216796875,-90.545654296875,-311.0198974609375
0.1899999,1.216254472732544,4.299986362457275,-6.469132900238037,10.711669921875,-94.3145751953125,-277.191162109375
0.20999990000000002,-2.315192937850952,10.620678901672363,-8.31985092163086,-45.623779296875,-92.010498046875,-258.6517333984375
0.2299999,-6.244078159332275,17.20233917236328,-9.296685218811035,-76.8585205078125,-26.4739990234375,-156.7535400390625
0.2499999,-9.959878921508789,22.534225463867188,-8.7484130859375,-71.533203125,79.5440673828125,41.412353515625
0.2699999,-12.744335174560547,24.995466232299805,-6.517016887664795,-76.66015625,126.312255859375,228.5308837890625
0.28999990000000003,-13.687650680541992,23.63077163696289,-3.2776620388031006,-84.2132568359375,76.3702392578125,345.458984375
0.3099999,-12.038045883178711,18.394651412963867,-0.12928688526153564,-94.940185546875,-10.9710693359375,411.956787109375
0.3299999,-7.872135162353516,10.33098030090332,2.0805611610412598,-101.8524169921875,-37.567138671875,397.9644775390625
0.34999990000000003,-1.7836803197860718,1.094150185585022,3.203441858291626,-82.4737548828125,-20.6298828125,354.736328125
0.3699999,5.262455463409424,-7.939172744750977,3.643975019454956,-63.995361328125,-16.6168212890625,300.567626953125
0.3899999,12.27507209777832,-15.49527359008789,3.825934410095215,-31.1737060546875,-39.9322509765625,232.0404052734375
0.40999990000000003,18.183961868286133,-20.52788543701172,3.8067808151245117,33.3099365234375,-59.051513671875,109.2376708984375
0.4299999,22.16551971435547,-22.64914894104004,3.4548330307006836,61.8438720703125,-71.3348388671875,-60.150146484375
0.4499999,23.75287437438965,-21.86863899230957,2.607285737991333,40.679931640625,-105.316162109375,-184.7991943359375
0.4699999,22.749704360961914,-18.693927764892578,1.3455413579940796,33.782958984375,-103.1494140625,-246.490478515625
0.4899999,19.637243270874023,-14.070723533630371,-0.031124621629714966,40.9698486328125,-73.18115234375,-281.768798828125
0.5099999,15.198391914367676,-8.877699851989746,-1.3670891523361206,40.8782958984375,-58.7005615234375,-312.591552734375
0.5299999,10.113107681274414,-3.485957622528076,-2.7485435009002686,44.9676513671875,-52.4749755859375,-328.125
0.5499999,5.078101634979248,2.0925323963165283,-4.264073371887207,39.4439697265625,-41.56494140625,-290.4815673828125
0.5699999,0.3471592366695404,7.757213592529297,-5.901707172393799,31.5093994140625,-21.5911865234375,-263.397216796875
0.5899998999999999,-4.0533833503723145,13.28063678741455,-7.575253963470459,54.4891357421875,19.10400390625,-272.8271484375
0.6099998999999999,-7.970297336578369,18.375497817993164,-8.87291145324707,66.89453125,49.25537109375,-211.761474609375
0.6299999,-11.137825965881348,22.124818801879883,-9.198522567749023,-4.7607421875,89.4317626953125,-18.98193359375
0.6499999,-13.18008041381836,23.45838737487793,-8.154650688171387,-122.5128173828125,148.9410400390625,203.5980224609375
0.6699999,-13.457807540893555,22.045808792114258,-5.65031623840332,-160.7818603515625,166.3818359375,362.7471923828125
0.6899999,-11.784260749816895,17.458518981933594,-2.1930887699127197,-126.3275146484375,130.8135986328125,480.04150390625
0.7099999,-8.185775756835938,10.012551307678223,1.400607943534851,-130.2490234375,85.3424072265625,499.9847412109375
0.7299998999999999,-2.719813108444214,0.8379706144332886,4.575319290161133,-144.59228515625,22.2625732421875,499.9847412109375
0.7499998999999999,3.9240965843200684,-8.939949035644531,6.811503887176514,-83.9996337890625,-59.6466064453125,405.0140380859375
0.7699999,11.209651947021484,-18.081010818481445,7.8745293617248535,-2.7313232421875,-104.705810546875,251.983642578125
0.7899999,17.851167678833008,-24.741680145263672,7.766790390014648,44.891357421875,-114.7918701171875,97.076416015625
0.8099999,22.577322006225586,-27.983428955078125,6.358999729156494,39.1082763671875,-121.2615966796875,-90.8203125
0.8299999,24.643518447875977,-27.547685623168945,4.036623954772949,8.2855224609375,-157.6385498046875,-294.7540283203125
0.8499998999999999,23.51345443725586,-23.896526336669922,1.316810965538025,-8.3465576171875,-166.717529296875,-415.5426025390625
0.8699998999999999,19.730615615844727,-18.181568145751953,-1.482010841369629,-9.5367431640625,-174.1485595703125,-483.8104248046875
0.8899999,14.250288963317871,-11.51850414276123,-4.043806552886963,-20.660400390625,-129.5166015625,-468.44482421875
0.9099999,8.29830265045166,-4.989516258239746,-5.983109951019287,-79.3609619140625,-71.83837890625,-402.28271484375
0.9299999,2.4229321479797363,1.0773907899856567,-7.374141216278076,-69.7784423828125,0.762939453125,-341.766357421875
0.9499999,-2.9544448852539062,6.88332986831665,-8.039729118347168,16.3421630859375,53.802490234375,-306.0150146484375
0.9699998999999999,-8.078036308288574,12.533645629882812,-7.975085735321045,4.2266845703125,66.46728515625,-276.5045166015625
0.9899998999999999,-12.840104103088379,18.267759323120117,-7.232883453369141,-71.7926025390625,89.35546875,-185.4095458984375
1.0099999,-16.685192108154297,22.6539363861084,-5.3127336502075195,-145.2178955078125,163.8031005859375,43.212890625
1.0299999,-18.921375274658203,24.708162307739258,-2.250549554824829,-110.7940673828125,212.1429443359375,262.26806640625
1.0499999,-18.974048614501953,23.290794372558594,1.5203180313110352,-32.8369140625,150.5126953125,415.435791015625
1.0699999,-16.689979553222656,18.114530563354492,5.0014872550964355,-17.8680419921875,85.296630859375,499.9847412109375
1.0899999,-12.385205268859863,10.237606048583984,7.515398979187012,-41.748046875,19.4549560546875,499.9847412109375
1.1099999,-6.751648902893066,0.7493851184844971,8.856152534484863,-34.912109375,-95.4437255859375,499.9847412109375
1.1299999,-0.2825157940387726,-9.75637149810791,8.24084186553955,11.0931396484375,-278.564453125,475.921630859375
1.1499999,7.445967197418213,-19.448101043701172,5.985504150390625,2.0294189453125,-348.81591796875,331.1614990234375
1.1699998999999999,14.556746482849121,-26.834213256835938,2.4803929328918457,-14.373779296875,-218.719482421875,102.1270751953125
1.1899998999999999,20.70745086669922,-30.729578018188477,-2.0925323963165283,-31.1126708984375,-163.7420654296875,-97.9461669921875
1.2099999,24.135948181152344,-30.236373901367188,-6.315904140472412,-46.7987060546875,-202.1942138671875,-223.6175537109375
1.2299999,24.00666046142578,-26.020183563232422,-9.732429504394531,-54.0618896484375,-150.2227783203125,-290.1458740234375
1.2499999,20.891803741455078,-19.694704055786133,-12.124237060546875,-61.3861083984375,-45.3033447265625,-305.48095703125
1.2699999,15.919047355651855,-12.87362289428711,-13.35964584350586,-88.6688232421875,43.5943603515625,-323.3489990234375
1.2899999,10.429142951965332,-6.801927089691162,-13.37161636352539,-111.2060546875,95.245361328125,-324.432373046875
1.3099999,5.018246650695801,-1.7717092037200928,-12.483367919921875,-81.4666748046875,147.430419921875,-329.2083740234375
1.3299999,0.4141969084739685,2.717418909072876,-10.946290016174316,-45.867919921875,192.9779052734375,-281.982421875
1.3499999,-3.4332852363586426,7.094019412994385,-9.141061782836914,-91.6748046875,196.746826171875,-230.8502197265625
1.3699999,-6.421248912811279,11.662156105041504,-7.058106422424316,-166.5496826171875,160.6903076171875,-215.4693603515625
1.3899999,-8.78432559967041,16.065093994140625,-4.388571739196777,-175.96435546875,173.2330322265625,-168.15185546875
1.4099999,-10.623072624206543,19.529502868652344,-0.811634361743927,-134.033203125,266.143798828125,-59.722900390625
1.4299998999999999,-12.045228958129883,21.377826690673828,3.7229835987091064,-116.76025390625,317.291259765625,79.58984375
1.4499999,-12.914323806762695,21.27248191833496,8.796297073364258,-94.90966796875,192.7947998046875,214.691162109375
1.4699999,-12.765883445739746,18.91179847717285,13.062764167785645,-12.237548828125,-4.69970703125,352.203369140625
1.4899999,-11.221623420715332,13.891158103942871,15.071499824523926,41.32080078125,-151.641845703125,465.850830078125
1.5099999,-7.891288757324219,6.828263282775879,14.116212844848633,38.6505126953125,-172.271728515625,453.5980224609375
1.5299999,-2.6001031398773193,-1.9177556037902832,10.426748275756836,2.9296875,-137.6953125,385.5133056640625
1.5499999,4.707000732421875,-11.370063781738281,5.023035049438477,-52.8411865234375,-163.4979248046875,284.7747802734375
1.5699999,13.61103630065918,-19.974824905395508,-0.2944868206977844,-46.844482421875,-197.8912353515625,150.7568359375
1.5899999,22.34508514404297,-26.295516967773438,-4.838681697845459,48.03466796875,-116.241455078125,9.552001953125
1.6099999,28.73042106628418,-29.21644401550293,-8.015787124633789,94.757080078125,12.7105712890625,-151.0467529296875
1.6299999,30.85647201538086,-28.167783737182617,-9.677363395690918,59.63134765625,39.0625,-276.5350341796875
1.6499999,27.82062339782715,-23.788787841796875,-10.002974510192871,34.3170166015625,33.905029296875,-375.06103515625
1.6699999,20.76251792907715,-17.30289649963379,-9.313444137573242,54.656982421875,64.5751953125,-379.7760009765625
1.6899998999999999,11.796232223510742,-10.093954086303711,-8.008605003356934,69.732666015625,103.424072265625,-334.53369140625
1.7099999,2.918531894683838,-3.155557870864868,-6.246472358703613,2.838134765625,96.710205078125,-321.319580078125
1.7299999,-4.594472885131836,3.141192674636841,-4.201824188232422,-61.5997314453125,80.780029296875,-325.225830078125
1.7499999,-10.335768699645996,8.681375503540039,-1.7860745191574097,-71.35009765625,84.808349609375,-324.2645263671875
1.7699999,-14.683638572692871,13.615824699401855,1.0462661981582642,-66.314697265625,104.2938232421875,-293.8690185546875
1.7899999,-18.126501083374023,18.102558135986328,3.914519786834717,-66.680908203125,94.7265625,-216.12548828125
1.8099999,-20.446481704711914,21.473594665527344,6.651092529296875,-82.58056640625,-6.683349609375,-47.91259765625
1.8299999,-21.538238525390625,22.8335018157959,8.638279914855957,-34.942626953125,-95.8404541015625,175.4150390625
1.8499999,-20.803218841552734,21.610065460205078,9.459490776062012,77.178955078125,-107.666015625,373.6114501953125
1.8699999,-18.260576248168945,17.31247329711914,8.683769226074219,139.0228271484375,-72.6318359375,497.61962890625
1.8899999,-13.848062515258789,10.74996566772461,6.3973069190979,94.1925048828125,-74.249267578125,499.9847412109375
1.9099999,-8.133103370666504,2.760514497756958,3.093308687210083,15.350341796875,-98.0377197265625,499.9847412109375
1.9299998999999999,-1.845929503440857,-5.434837818145752,-0.05746084079146385,-18.1427001953125,-141.90673828125,499.9847412109375
1.9499999,4.596867084503174,-12.988544464111328,-2.827552318572998,10.8184814453125,-152.618408203125,489.4256591796875
1.9699999,10.69489860534668,-19.220651626586914,-4.797980308532715,6.0272216796875,-147.186279296875,376.0223388671875
1.9899999,16.079458236694336,-23.424869537353516,-6.27280855178833,2.6702880859375,-144.378662109375,277.7862548828125
2.0099999,20.590133666992188,-25.51740264892578,-7.582436561584473,20.9503173828125,-109.0087890625,186.248779296875
2.0299999,23.903709411621094,-25.608381271362305,-8.791508674621582,39.1693115234375,-92.7886962890625,111.87744140625
2.0499999,25.51261329650879,-24.023420333862305,-9.725247383117676,48.095703125,-58.807373046875,-2.166748046875
2.0699999,25.294740676879883,-21.368249893188477,-10.307038307189941,42.572021484375,-17.8680419921875,-97.0306396484375
2.0899999,23.484724044799805,-18.155231475830078,-10.371682167053223,13.4429931640625,9.674072265625,-179.8095703125
2.1099999,20.338743209838867,-14.741100311279297,-9.897629737854004,-24.2767333984375,43.4112548828125,-231.1859130859375
2.1299999,16.620548248291016,-11.587936401367188,-8.971074104309082,-39.1845703125,84.564208984375,-252.7923583984375
2.1499999,12.78264331817627,-8.858546257019043,-7.745242595672607,-12.8021240234375,159.6527099609375,-276.458740234375
2.1699999,9.105149269104004,-6.607996463775635,-6.574477672576904,-2.38037109375,177.2308349609375,-343.2769775390625
2.1899999,5.765237808227539,-4.644751071929932,-5.453991413116455,-40.9698486328125,145.294189453125,-367.2637939453125
2.2099999,2.6168625354766846,-2.8419175148010254,-4.402936935424805,-74.8138427734375,152.52685546875,-326.202392578125
2.2299999,-0.19393034279346466,-1.0342950820922852,-3.3446998596191406,-55.6488037109375,190.643310546875,-270.294189453125
2.2499999,-2.5330653190612793,0.7829039692878723,-2.188300371170044,-70.80078125,173.1414794921875,-265.5181884765625
2.2699999,-4.347870349884033,2.38462495803833,-0.9983820915222168,-153.9459228515625,128.5247802734375,-275.3143310546875
2.2899999,-5.3797712326049805,4.151545524597168,0.26815059781074524,-190.8416748046875,34.210205078125,-203.7811279296875
2.3099999,-6.117185115814209,5.7772088050842285,1.4652514457702637,-124.0234375,99.6856689453125,-196.9146728515625
2.3299999,-6.356605529785156,7.457938194274902,2.7126305103302,-60.638427734375,176.94091796875,-108.58154296875
2.3499999,-6.610390663146973,8.973467826843262,3.928884983062744,-44.86083984375,184.326171875,-61.920166015625
2.3699999,-6.892906665802002,10.232817649841309,4.850652694702148,-79.3914794921875,118.3013916015625,-50.5828857421875
2.3899999,-7.01979923248291,10.824186325073242,5.303156852722168,-157.89794921875,27.40478515625,-10.3607177734375
2.4099999,-7.223306655883789,10.709263801574707,5.202600479125977,-176.605224609375,32.2113037109375,28.2745361328125
2.4299999,-7.070077419281006,9.828198432922363,4.596867084503174,-133.30078125,111.8011474609375,103.3477783203125
2.4499999,-6.876147270202637,8.283937454223633,3.8762125968933105,-129.7607421875,164.031982421875,184.0057373046875
2.4699999,-6.145915985107422,6.3973069190979,3.155557870864868,-140.594482421875,197.5555419921875,240.6005859375
2.4899999,-4.754884719848633,4.242525577545166,2.7964274883270264,-149.23095703125,242.1417236328125,285.0799560546875
2.5099999,-2.7557260990142822,2.0685901641845703,2.5785553455352783,-132.14111328125,265.411376953125,295.8831787109375
2.5299999,-0.6033388376235962,0.2992752194404602,2.7988216876983643,-108.58154296875,304.6112060546875,261.5203857421875
2.5499999,1.7046716213226318,-1.1300631761550903,3.6822822093963623,-134.2010498046875,352.142333984375,231.6741943359375
2.5699999,3.507505416870117,-2.205059766769409,5.544970989227295,-188.8275146484375,327.911376953125,241.8060302734375
2.5899999,4.716577529907227,-3.2130186557769775,8.865729331970215,-183.7158203125,322.967529296875,215.27099609375
2.6099999,4.78122091293335,-5.252878665924072,13.601459503173828,-156.25,297.332763671875,180.48095703125
2.6299999,3.383007049560547,-8.537723541259766,20.013132095336914,-179.7027587890625,196.35009765625,112.9913330078125
2.6499999,0.44532153010368347,-13.007698059082031,27.21967887878418,-142.1051025390625,48.248291015625,16.6015625
2.6699999,-3.002328872680664,-17.240646362304688,33.65290069580078,31.7535400390625,-49.041748046875,20.69091796875
2.6899999,-5.884947776794434,-20.068199157714844,37.29926681518555,157.89794921875,-130.584716796875,2.6092529296875
2.7099999,-7.740454196929932,-20.623653411865234,37.30166244506836,146.697998046875,-203.2318115234375,-38.75732421875
2.7299999,-8.305485725402832,-19.220651626586914,33.77739715576172,129.7454833984375,-218.9788818359375,-27.2064208984375
2.7499999,-8.133103370666504,-17.14008903503418,28.155811309814453,138.1378173828125,-263.9617919921875,-69.3511962890625
2.7699999,-7.620744228363037,-15.239093780517578,22.06256866455078,123.9776611328125,-372.4822998046875,-176.7730712890625
2.7899999,-7.328651428222656,-13.73314094543457,16.0291805267334,113.2049560546875,-491.2872314453125,-327.301025390625
2.8099999,-7.553706169128418,-12.188880920410156,10.187328338623047,152.099609375,-500,-428.6346435546875
2.8299999,-8.008605003356934,-10.086771965026855,4.513070106506348,202.57568359375,-500,-440.4296875
2.8499999,-8.734047889709473,-7.38132381439209,-0.6991068720817566,170.3643798828125,-471.4813232421875,-370.758056640625
2.8699999,-8.633491516113281,-4.2951979637146,-5.0685248374938965,91.827392578125,-375.4119873046875,-327.45361328125
2.8899999,-8.200140953063965,-0.9289502501487732,-8.17380428314209,79.7576904296875,-309.5855712890625,-377.9754638671875
2.9099999,-7.465120792388916,2.8371291160583496,-10.347740173339844,174.713134765625,-218.3685302734375,-343.902587890625
2.9299999,-6.89530086517334,7.527369976043701,-11.980585098266602,216.827392578125,-134.3841552734375,-198.9288330078125
2.9499999,-6.703764915466309,13.00051498413086,-13.634978294372559,84.625244140625,-113.8763427734375,-105.3314208984375
2.9699999,-6.703764915466309,18.739416122436523,-15.325284957885742,-4.1351318359375,-66.0552978515625,-41.6412353515625
2.9899999,-6.2632317543029785,23.096864700317383,-16.28775405883789,-33.599853515625,29.6783447265625,107.086181640625
3.0099999,-5.207388877868652,25.017013549804688,-15.80173110961914,-79.04052734375,107.6202392578125,226.50146484375
3.0299999,-3.4787750244140625,24.13115882873535,-13.524845123291016,-98.419189453125,143.829345703125,270.965576171875
3.0499999,-1.316810965538025,20.800825119018555,-9.684545516967773,-93.6737060546875,206.8328857421875,296.8902587890625
3.0699999,0.8020575642585754,16.237476348876953,-4.752490520477295,-89.90478515625,275.1922607421875,353.729248046875
3.0899999,2.1571757793426514,11.200075149536133,0.6488286852836609,-78.4454345703125,344.1314697265625,408.4320068359375
3.1099999,2.3247697353363037,5.767632007598877,6.694188117980957,-22.9949951171875,447.8302001953125,469.8638916015625
3.1299999,1.1827356815338135,-0.6153098344802856,13.974955558776855,20.08056640625,465.6829833984375,488.2049560546875
3.1499999,-0.8619126081466675,-8.652645111083984,22.323535919189453,-96.74072265625,192.44384765625,274.0936279296875
3.1699999,-2.875436305999756,-16.338031768798828,29.568391799926758,-105.3466796875,-240.6158447265625,-75.6378173828125
3.1899999,-3.957615375518799,-22.213403701782227,33.25785446166992,74.066162109375,-474.853515625,-251.068115234375
3.2099999,-3.754108190536499,-24.322694778442383,31.30179214477539,99.5635986328125,-500,-301.4373779296875
3.2299999,-2.760514497756958,-22.06496238708496,23.724143981933594,72.8302001953125,-500,-376.3427734375
3.2499999,-1.8531121015548706,-16.745046615600586,13.10107135772705,71.441650390625,-422.54638671875,-442.3828125
3.2699999,-1.723825216293335,-10.187328338623047,2.7054479122161865,35.7666015625,-401.1383056640625,-477.294921875
3.2899999,-2.9161376953125,-3.56017804145813,-5.6455278396606445,80.2154541015625,-359.283447265625,-446.075439453125
3.3099999,-5.183446884155273,2.628833532333374,-11.204863548278809,202.545166015625,-253.387451171875,-367.9656982421875
3.3299999000000002,-8.279149055480957,8.355764389038086,-14.499285697937012,221.61865234375,-171.4324951171875,-303.1158447265625
3.3499999,-11.798625946044922,13.809755325317383,-16.29014778137207,123.4588623046875,-113.3270263671875,-189.3310546875
3.3699999,-15.155296325683594,18.66040802001953,-17.274166107177734,1.312255859375,-64.14794921875,-15.2740478515625
3.3899999,-17.3603572845459,22.005107879638672,-17.695545196533203,-61.9964599609375,-15.3350830078125,172.30224609375
3.4099999,-17.590200424194336,22.699426651000977,-17.702728271484375,-87.9974365234375,36.468505859375,318.90869140625
3.4299999,-15.322891235351562,20.523096084594727,-17.17839813232422,-114.3646240234375,97.9461669921875,393.49365234375
3.4499999,-10.718840599060059,16.16086196899414,-15.969325065612793,-134.185791015625,172.7752685546875,415.5426025390625
3.4699999,-4.687847137451172,10.922348022460938,-13.867216110229492,-128.0059814453125,254.45556640625,434.08203125
3.4899999,1.3527239561080933,6.038176536560059,-10.606313705444336,-128.021240234375,347.4578857421875,472.4884033203125
3.5099999,5.841852188110352,1.4173674583435059,-6.04775333404541,-154.998779296875,447.174072265625,499.9847412109375
3.5299999,8.2312650680542,-4.060565948486328,0.730231523513794,-176.8646240234375,499.9847412109375,499.9847412109375
3.5499999,8.56884765625,-11.719616889953613,10.915165901184082,-188.1256103515625,499.9847412109375,438.8580322265625
3.5699999,6.720524311065674,-19.658790588378906,21.674707412719727,11.53564453125,133.148193359375,-1.15966796875
3.5899999,4.46518611907959,-25.984270095825195,30.973787307739258,123.6572265625,-268.61572265625,-251.03759765625
3.6099999,1.900996208190918,-28.07440948486328,34.78056716918945,80.7342529296875,-483.856201171875,-349.42626953125
3.6299999,-0.22026655077934265,-25.02180290222168,31.387985229492188,105.0567626953125,-486.083984375,-361.7401123046875
3.6499999,-1.5658079385757446,-18.76335906982422,22.275651931762695,136.749267578125,-392.8985595703125,-345.5810546875
3.6699999,-2.3080103397369385,-11.504138946533203,10.558429718017578,129.1046142578125,-321.7926025390625,-317.596435546875
3.6899999,-2.626439332962036,-4.967968463897705,-0.7996633648872375,123.35205078125,-271.4996337890625,-270.5230712890625
3.7099999,-2.7940332889556885,0.18914192914962769,-9.81143856048584,143.0511474609375,-211.334228515625,-258.2550048828125
3.7299999,-3.3470940589904785,4.388571739196777,-15.69878101348877,137.0391845703125,-189.361572265625,-301.1932373046875
3.7499999,-4.831499099731445,8.87051773071289,-19.788076400756836,189.1021728515625,-212.1124267578125,-308.135986328125
3.7699999,-6.7923502922058105,14.0635404586792,-22.632389068603516,199.5391845703125,-111.3433837890625,-89.4775390625
3.7899999,-8.688557624816895,18.861520767211914,-24.815900802612305,-11.4288330078125,51.4984130859375,164.1082763671875
3.8099999,-9.114726066589355,22.2948055267334,-25.77118682861328,-146.331787109375,114.74609375,220.1690673828125
3.8299999000000002,-7.362170219421387,22.337902069091797,-24.600421905517578,-156.1126708984375,165.3900146484375,266.204833984375
3.8499999,-3.734954595565796,19.366697311401367,-20.95405387878418,-140.6402587890625,264.495849609375,299.49951171875
3.8699999,0.7493851184844971,14.36521053314209,-15.349226951599121,-130.4779052734375,349.761962890625,321.7620849609375
3.8899999,4.594472885131836,7.9176249504089355,-8.528146743774414,-139.4195556640625,405.029296875,424.9725341796875
3.9099999,7.036558628082275,0.06703764945268631,-0.23942017555236816,-168.0755615234375,452.5909423828125,462.40234375
3.9299999,8.197746276855469,-9.361329078674316,9.940725326538086,-230.89599609375,348.8922119140625,282.8826904296875
3.9499999,7.819462776184082,-18.622100830078125,20.434511184692383,-107.5286865234375,59.7991943359375,-42.327880859375
3.9699999,6.31829833984375,-24.92363929748535,28.38565444946289,143.6004638671875,-227.7984619140625,-249.2523193359375
3.9899999,3.7900211811065674,-26.5612735748291,31.52206039428711,130.9661865234375,-420.6085205078125,-304.9774169921875
4.0099999,0.545877993106842,-22.692243576049805,27.602750778198242,87.066650390625,-428.5125732421875,-289.9017333984375
4.029999900000001,-2.229001760482788,-15.799337387084961,18.461688995361328,130.5389404296875,-345.52001953125,-225.5401611328125
4.0499999,-3.8139634132385254,-8.559270858764648,6.952761650085449,180.7403564453125,-244.5831298828125,-148.3154296875
4.069999900000001,-3.7421371936798096,-2.494758129119873,-4.3406877517700195,190.399169921875,-188.3087158203125,-133.11767578125
4.0899999000000005,-2.4827871322631836,2.123656988143921,-13.783419609069824,108.58154296875,-180.0079345703125,-128.0364990234375
4.1099999,-0.6272808313369751,5.918466567993164,-20.71702766418457,20.44677734375,-162.65869140625,-101.25732421875
4.1299999000000005,1.139639973640442,9.502586364746094,-25.129541397094727,13.641357421875,-98.7701416015625,-78.6895751953125
4.1499999,2.2888567447662354,12.962207794189453,-27.09278678894043,80.0933837890625,25.0091552734375,-41.68701171875
4.1699999000000005,3.0166940689086914,16.124948501586914,-26.946739196777344,120.2545166015625,135.3759765625,12.9852294921875
4.1899999,3.4620156288146973,18.322826385498047,-24.868572235107422,3.1890869140625,162.8875732421875,43.9300537109375
4.209999900000001,4.206612586975098,18.76096534729004,-21.09291648864746,-156.8450927734375,192.657470703125,104.248046875
4.2299999,5.453991413116455,17.37472152709961,-16.2278995513916,-167.6483154296875,228.179931640625,143.1732177734375
4.249999900000001,7.060500621795654,14.226346969604492,-10.802638053894043,-99.9908447265625,258.9569091796875,162.261962890625
4.2699999,8.65982723236084,9.821015357971191,-5.458779811859131,-88.7603759765625,293.3807373046875,200.927734375
4.289999900000001,9.684545516967773,4.786009311676025,-0.38067805767059326,-116.729736328125,348.4344482421875,250.0152587890625
4.3099999,9.782708168029785,-1.2330138683319092,5.317522048950195,-142.5628662109375,387.786865234375,240.6463623046875
4.329999900000001,9.32302188873291,-8.233659744262695,12.342109680175781,-179.7027587890625,262.420654296875,142.9901123046875
4.3499999,8.003816604614258,-15.081076622009277,19.32839012145996,-80.3985595703125,-52.3834228515625,-104.949951171875
4.369999900000001,6.0597243309021,-19.972431182861328,24.35860824584961,98.968505859375,-282.40966796875,-286.8499755859375
4.3899999,3.4524388313293457,-21.435287475585938,25.040956497192383,156.585693359375,-357.7728271484375,-356.2774658203125
4.409999900000001,0.22744916379451752,-18.600553512573242,20.240581512451172,166.7938232421875,-296.4019775390625,-332.000732421875
4.4299999,-2.7078421115875244,-13.105859756469727,11.731588363647461,154.754638671875,-267.02880859375,-254.5928955078125
4.449999900000001,-4.807557106018066,-6.813898086547852,1.900996208190918,145.93505859375,-245.9716796875,-191.864013671875
4.4699999,-5.5760955810546875,-0.8451532125473022,-7.663839817047119,211.1663818359375,-212.4481201171875,-161.0870361328125
4.489999900000001,-5.324704647064209,5.197812080383301,-16.244659423828125,211.12060546875,-213.9434814453125,-139.09912109375
4.5099999,-4.19224739074707,11.08754825592041,-23.604434967041016,66.9708251953125,-174.407958984375,-26.153564453125
4.529999900000001,-2.6192567348480225,16.871938705444336,-29.252355575561523,-32.6995849609375,29.5867919921875,124.32861328125
4.5499999,-0.2825157940387726,20.879833221435547,-31.859642028808594,-71.6400146484375,222.4273681640625,204.52880859375
4.569999900000001,2.3989901542663574,21.780052185058594,-30.454246520996094,-132.2784423828125,298.919677734375,218.5516357421875
4.5899999000000005,4.896142482757568,19.61090660095215,-25.050533294677734,-109.375,373.0010986328125,222.930908203125
4.609999900000001,6.473921298980713,15.301342964172363,-16.87433433532715,-43.121337890625,461.3037109375,228.3172607421875
4.6299999000000005,6.390124320983887,10.043676376342773,-7.726089000701904,-50.23193359375,461.7462158203125,197.9522705078125
4.6499999,4.431667327880859,4.173093795776367,1.699883222579956,-96.1456298828125,417.66357421875,202.850341796875
4.6699999000000005,1.3910311460494995,-2.6240451335906982,11.623848915100098,-161.8499755859375,282.1807861328125,162.29248046875
4.6899999,-1.4053963422775269,-10.000580787658691,21.224597930908203,-135.3912353515625,42.0379638671875,7.568359375
4.709999900000001,-3.2968156337738037,-16.09382438659668,28.048072814941406,76.7669677734375,-213.2110595703125,-130.37109375
4.7299999,-3.3877954483032227,-19.79047203063965,30.12384605407715,180.694580078125,-368.804931640625,-186.03515625
4.749999900000001,-1.8770540952682495,-19.694704055786133,25.69457244873047,87.3260498046875,-395.477294921875,-205.902099609375
4.7699999,0.20111294090747833,-16.33563804626465,16.385915756225586,42.1905517578125,-310.8673095703125,-242.3553466796875
4.789999900000001,2.470816135406494,-11.245565414428711,5.5114521980285645,64.4378662109375,-234.7412109375,-252.2735595703125
4.8099999,4.02465295791626,-5.418078422546387,-4.223371982574463,110.076904296875,-193.05419921875,-213.5162353515625
4.829999900000001,4.311957359313965,0.7206547260284424,-11.817779541015625,142.913818359375,-150.3143310546875,-171.905517578125
4.8499999,3.4596214294433594,7.108384609222412,-17.017986297607422,131.89697265625,-92.95654296875,-117.37060546875
4.869999900000001,1.8507179021835327,13.237541198730469,-19.9365177154541,30.914306640625,-50.6744384765625,-58.65478515625
4.8899999,0.2561795711517334,18.641254425048828,-21.02827262878418,7.8887939453125,-2.471923828125,-19.5159912109375
4.909999900000001,-0.3423708379268646,22.555774688720703,-20.448877334594727,24.261474609375,51.8646240234375,56.1981201171875
4.9299999,0.9528923034667969,23.542184829711914,-18.418594360351562,-70.25146484375,80.7952880859375,169.097900390625
4.949999900000001,3.892971992492676,22.278047561645508,-15.62216567993164,-112.091064453125,96.3897705078125,193.6187744140625
4.9699999,7.939172744750977,18.983625411987305,-11.97100830078125,-71.2890625,122.4517822265625,190.673828125
4.989999900000001,11.42752456665039,14.599842071533203,-7.661445617675781,-46.3714599609375,181.9000244140625,214.78271484375
5.0099999,13.043610572814941,10.010157585144043,-2.5067291259765625,-57.2509765625,254.8370361328125,213.3941650390625
5.029999900000001,12.169727325439453,5.434837818145752,3.4308910369873047,-116.1041259765625,278.778076171875,185.8062744140625
5.0499999,8.860940933227539,0.4836287498474121,10.017339706420898,-146.2249755859375,221.8017578125,81.0089111328125
5.069999900000001,4.491522312164307,-4.675876140594482,16.577451705932617,-111.4654541015625,21.209716796875,0.5950927734375
5.0899999000000005,0.090979665517807,-9.701305389404297,20.8894100189209,55.1605224609375,-225.76904296875,-31.097412109375
5.109999900000001,-3.2106244564056396,-13.960590362548828,21.475988388061523,150.0701904296875,-393.9971923828125,-63.65966796875
5.1299999000000005,-5.188235282897949,-16.40028190612793,17.286136627197266,121.2310791015625,-424.835205078125,-98.602294921875
5.1499999,-6.038176536560059,-16.836027145385742,8.96149730682373,113.70849609375,-397.76611328125,-129.638671875
5.1699999000000005,-6.050147533416748,-15.22472858428955,-1.137245774269104,97.5799560546875,-401.2451171875,-104.3701171875
5.1899999,-5.52821159362793,-12.234370231628418,-10.891223907470703,69.9310302734375,-373.5504150390625,-85.1898193359375
5.209999900000001,-4.331110954284668,-8.257601737976074,-18.861520767211914,70.1141357421875,-295.9136962890625,-65.460205078125
5.2299999,-2.38462495803833,-3.818751811981201,-24.73210334777832,52.6123046875,-196.3653564453125,-31.7840576171875
5.249999900000001,-0.10773907601833344,0.7637503147125244,-28.37607765197754,3.4942626953125,-65.6585693359375,-4.852294921875
5.2699999,2.3056161403656006,4.908113479614258,-29.96582794189453,-23.895263671875,61.492919921875,35.064697265625
5.289999900000001,4.548983097076416,8.341399192810059,-29.570785522460938,-8.209228515625,142.3492431640625,78.4912109375
5.3099999,6.268020153045654,10.960655212402344,-27.619510650634766,5.9356689453125,176.69677734375,82.51953125
5.329999900000001,7.781155586242676,12.775460243225098,-24.825477600097656,-7.9193115234375,224.7467041015625,121.612548828125
5.3499999,9.033323287963867,13.709198951721191,-21.62203598022461,-50.628662109375,303.7261962890625,135.0555419921875
5.369999900000001,10.33098030090332,13.405135154724121,-17.968482971191406,-133.3160400390625,341.796875,108.001708984375
5.3899999,11.384428977966309,11.872846603393555,-13.584700584411621,-158.26416015625,361.99951171875,80.13916015625
5.409999900000001,11.674127578735352,9.411606788635254,-8.243236541748047,-126.40380859375,414.6881103515625,47.149658203125
5.4299999,10.745177268981934,6.19379997253418,-1.8124107122421265,-179.534912109375,454.04052734375,37.2467041015625
5.449999900000001,8.370129585266113,1.4748282432556152,5.959167957305908,-399.505615234375,376.4495849609375,-24.261474609375
5.4699999,5.307945251464844,-4.76924991607666,15.109807014465332,-471.5576171875,144.622802734375,-169.7235107421875
5.489999900000001,2.1547815799713135,-11.70046329498291,23.228544235229492,-105.621337890625,-78.6285400390625,-247.039794921875
5.5099999,-0.15322890877723694,-17.796100616455078,28.756755828857422,81.4361572265625,-267.7764892578125,-198.6541748046875
5.529999900000001,-2.099714994430542,-20.683507919311523,28.785486221313477,14.6331787109375,-456.9244384765625,-222.2747802734375
5.5499999,-3.8163576126098633,-19.644424438476562,22.859838485717773,-27.1759033203125,-500,-267.578125
5.569999900000001,-5.439626216888428,-15.753847122192383,12.81855583190918,-43.121337890625,-468.1549072265625,-271.1639404296875
5.5899999000000005,-6.967126846313477,-10.393229484558105,1.599326729774475,-13.4735107421875,-383.97216796875,-296.08154296875
5.609999900000001,-8.149862289428711,-4.747702121734619,-8.257601737976074,31.8756103515625,-273.86474609375,-320.159912109375
5.6299999000000005,-8.683769226074219,0.15801730751991272,-15.014039039611816,57.464599609375,-141.78466796875,-247.955322265625
5.6499999,-9.10993766784668,4.853046894073486,-18.918981552124023,109.1461181640625,-55.511474609375,-192.2149658203125
5.6699999000000005,-9.246406555175781,9.23443603515625,-20.803218841552734,145.2789306640625,-35.003662109375,-145.9808349609375
5.6899999,-9.078812599182129,13.306973457336426,-21.765687942504883,127.99072265625,-10.0250244140625,-65.0482177734375
5.709999900000001,-8.853757858276367,17.197551727294922,-22.6539363861084,103.3172607421875,4.0740966796875,-74.737548828125
5.7299999,-8.233659744262695,20.491971969604492,-23.116018295288086,45.379638671875,58.8226318359375,-12.6495361328125
5.749999900000001,-7.208941459655762,22.78322410583496,-22.749704360961914,-10.284423828125,176.727294921875,132.01904296875
5.7699999,-5.5329999923706055,23.896526336669922,-21.08094596862793,-22.2930908203125,254.913330078125,231.170654296875
5.789999900000001,-2.7509377002716064,23.436840057373047,-17.999608993530273,-45.379638671875,223.968505859375,288.2080078125
5.8099999,1.0821791887283325,21.380220413208008,-13.955801963806152,-77.08740234375,177.2918701171875,292.05322265625
5.829999900000001,5.631162166595459,17.954118728637695,-9.75397777557373,-60.9893798828125,192.1844482421875,279.3731689453125
5.8499999,10.02452278137207,13.812150001525879,-5.736507415771484,-7.9803466796875,292.938232421875,282.6080322265625
5.869999900000001,12.978967666625977,9.29189682006836,-1.8986018896102905,13.916015625,425.7049560546875,291.8243408203125
5.8899999,14.058752059936523,4.062960147857666,2.3774423599243164,-157.9742431640625,488.1439208984375,332.4737548828125
5.909999900000001,12.916718482971191,-2.5761611461639404,7.706935405731201,-497.6348876953125,282.3486328125,243.6981201171875
5.9299999,10.90558910369873,-11.08754825592041,14.173673629760742,-500,5.1727294921875,-47.7142333984375
5.949999900000001,8.166622161865234,-19.38824462890625,19.551050186157227,20.01953125,-125.5340576171875,-302.1697998046875
5.9699999,5.808333396911621,-25.586833953857422,22.285228729248047,332.2296142578125,-135.55908203125,-278.7017822265625
5.989999900000001,3.0765492916107178,-26.590003967285156,20.1160831451416,167.0074462890625,-205.3375244140625,-239.2730712890625
6.0099999,0.7086837291717529,-22.402545928955078,13.656526565551758,53.5736083984375,-170.34912109375,-246.0784912109375
6.029999900000001,-1.50355863571167,-14.85362720489502,4.51067590713501,52.9022216796875,-133.6669921875,-183.7921142578125
6.0499999,-2.806004285812378,-6.282385349273682,-5.006275653839111,145.6146240234375,-126.5716552734375,-208.038330078125
6.069999900000001,-3.2154128551483154,0.8140285611152649,-13.03164005279541,173.6602783203125,-80.50537109375,-211.273193359375
6.0899999000000005,-2.80361008644104,5.65031623840332,-18.7849063873291,192.230224609375,-11.6424560546875,-207.51953125
6.109999900000001,-2.2912509441375732,8.458714485168457,-22.249317169189453,254.2572021484375,81.6650390625,-235.8245849609375
6.1299999000000005,-1.9249382019042969,9.440337181091309,-23.350648880004883,277.7557373046875,172.7142333984375,-230.377197265625
6.149999900000001,-2.1045033931732178,9.737217903137207,-22.795194625854492,269.317626953125,208.6029052734375,-187.43896484375
6.1699999000000005,-2.5689783096313477,9.904812812805176,-21.03545570373535,207.122802734375,186.553955078125,-139.862060546875
6.1899999,-2.983175277709961,10.251971244812012,-18.58379364013672,126.2969970703125,219.085693359375,-30.059814453125
6.209999900000001,-2.8107926845550537,10.623072624206543,-15.933412551879883,65.85693359375,310.577392578125,71.563720703125
6.2299999,-1.9752163887023926,10.69489860534668,-13.079524040222168,-24.96337890625,378.7994384765625,105.28564453125
6.249999900000001,-0.9457096457481384,10.192116737365723,-9.943120002746582,-90.9881591796875,423.15673828125,91.5985107421875
6.2699999,-0.6775590777397156,9.260771751403809,-5.884947776794434,-124.7711181640625,482.421875,74.2645263671875
6.289999900000001,-2.0829553604125977,7.73087739944458,-0.5003881454467773,-320.6634521484375,499.9847412109375,53.680419921875
6.3099999,-4.687847137451172,4.230554580688477,7.4770917892456055,-499.81689453125,490.3411865234375,20.0042724609375
6.329999900000001,-6.430825710296631,-1.216254472732544,18.545486450195312,-500,52.2308349609375,-53.5125732421875
6.3499999,-6.9455790519714355,-6.94079065322876,28.002582550048828,-39.85595703125,-275.8026123046875,-61.676025390625
6.369999900000001,-4.575319290161133,-11.525687217712402,34.672828674316406,398.7274169921875,-415.22216796875,1.9073486328125
6.3899999,-1.0007762908935547,-12.322956085205078,34.2945442199707,192.230224609375,-500,-50.0030517578125
6.409999900000001,2.3989901542663574,-9.557653427124023,26.831817626953125,132.5225830078125,-500,-123.35205078125
6.4299999,4.759673118591309,-4.0078935623168945,14.528016090393066,164.0625,-500,-157.2113037109375
6.449999900000001,5.942408561706543,2.5665841102600098,1.400607943534851,26.2908935546875,-500,-177.1392822265625
6.4699999,5.640739440917969,9.208099365234375,-10.220847129821777,-64.5751953125,-489.2730712890625,-118.9117431640625
6.489999900000001,4.129997730255127,15.195998191833496,-18.35395050048828,21.3470458984375,-255.7220458984375,-43.609619140625
6.5099999,1.8195933103561401,19.768922805786133,-23.38895606994629,66.5130615234375,-191.8182373046875,-15.4571533203125
6.529999900000001,-0.5339069962501526,22.088905334472656,-26.700138092041016,-7.6446533203125,-232.7423095703125,19.683837890625
6.5499999,-2.1571757793426514,22.005107879638672,-29.305028915405273,-63.232421875,-156.2652587890625,19.59228515625
6.569999900000001,-2.540247917175293,19.354726791381836,-31.270668029785156,20.44677734375,71.96044921875,33.3709716796875
6.5899999000000005,-1.900996208190918,14.362815856933594,-31.493330001831055,76.629638671875,335.87646484375,105.6976318359375
6.609999900000001,-0.9624691009521484,7.864952564239502,-29.123069763183594,11.016845703125,499.9847412109375,139.16015625
6.6299999000000005,-0.13168109953403473,0.6033388376235962,-24.102428436279297,-73.9593505859375,499.9847412109375,114.654541015625
6.649999900000001,-0.3471592366695404,-6.806715488433838,-16.77617073059082,-137.6953125,499.9847412109375,92.0257568359375
6.6699999000000005,-2.207453966140747,-13.778631210327148,-7.2568254470825195,-122.772216796875,499.9847412109375,67.138671875
6.6899999,-6.253654956817627,-18.7657527923584,3.778050184249878,-55.1910400390625,499.9847412109375,-131.77490234375
6.709999900000001,-11.84650993347168,-20.53746223449707,15.938200950622559,-117.2637939453125,393.0206298828125,-400.45166015625
6.7299999,-17.889474868774414,-17.99721336364746,27.114334106445312,-9.8419189453125,70.73974609375,-353.0426025390625
6.749999900000001,-21.839908599853516,-12.114660263061523,34.0958251953125,282.958984375,-200.836181640625,-55.145263671875
6.7699999,-22.586898803710938,-4.738125324249268,35.56107711791992,375.762939453125,-339.6148681640625,173.736572265625
6.789999900000001,-19.850326538085938,1.0414776802062988,30.028078079223633,394.0277099609375,-429.38232421875,317.840576171875
6.8099999,-14.43464183807373,3.758896589279175,18.758569717407227,294.8760986328125,-500,370.5596923828125
6.829999900000001,-7.204153060913086,3.4811692237854004,3.821146011352539,115.692138671875,-500,273.2391357421875
6.8499999,0.7350199222564697,2.0374655723571777,-11.949460983276367,10.1776123046875,-500,-12.969970703125
6.869999900000001,7.249642848968506,0.49799394607543945,-26.762386322021484,-41.5802001953125,-500,-233.6578369140625
6.8899999,11.980585098266602,0.9816226959228516,-38.13963317871094,136.871337890625,-117.4468994140625,-74.4781494140625
6.909999900000001,13.084312438964844,2.9927520751953125,-43.969512939453125,81.0089111328125,292.8619384765625,9.5672607421875
6.9299999,12.02607536315918,6.337451934814453,-43.837833404541016,-102.8594970703125,336.97509765625,43.1671142578125
6.949999900000001,10.6925048828125,10.72602367401123,-37.77811050415039,-68.6187744140625,323.54736328125,40.0390625
6.9699999,9.619902610778809,15.923835754394531,-27.444734573364258,6.34765625,499.9847412109375,1.0223388671875
6.989999900000001,8.35097599029541,18.59097671508789,-14.506467819213867,-383.4075927734375,499.9847412109375,21.270751953125
7.0099999,6.260837554931641,15.919047355651855,0.9672574996948242,-500,388.0462646484375,-46.0357666015625
7.029999900000001,4.220977783203125,6.665457725524902,17.058687210083008,-500,-161.9720458984375,-238.128662109375
7.0499999,0.49320554733276367,-5.114014625549316,27.94272804260254,340.850830078125,-436.1419677734375,-305.4351806640625
7.069999900000001,-2.4468741416931152,-16.385915756225586,32.965763092041016,342.3614501953125,-500,-202.972412109375
7.0899999000000005,-6.09324312210083,-20.64999008178711,27.33938980102539,117.2332763671875,-500,-149.7802734375
7.109999900000001,-9.964667320251465,-18.246212005615234,13.230358123779297,284.9578857421875,-470.8099365234375,-154.9224853515625
7.1299999000000005,-11.827356338500977,-11.3269681930542,-4.400542736053467,355.0872802734375,-268.6767578125,-125.9918212890625
7.149999900000001,-12.198457717895508,-2.5258827209472656,-21.38740348815918,290.5731201171875,-42.05322265625,-71.59423828125
7.1699999000000005,-10.685321807861328,5.39174222946167,-34.1149787902832,232.11669921875,143.73779296875,-64.208984375
7.1899999,-8.595184326171875,10.781089782714844,-40.14836883544922,139.0380859375,184.0667724609375,-69.7021484375
7.209999900000001,-6.72531270980835,12.385205268859863,-39.741355895996094,116.424560546875,203.5675048828125,-62.7899169921875
7.2299999,-4.9368438720703125,10.879252433776855,-34.76620101928711,170.41015625,305.4046630859375,-65.7806396484375
7.249999900000001,-3.2417490482330322,7.400477409362793,-27.796682357788086,169.2047119140625,448.18115234375,-82.275390625
7.2699999,-1.7812861204147339,3.2178070545196533,-20.84391975402832,92.4530029296875,499.9847412109375,-117.7215576171875
7.289999900000001,-1.867477297782898,0.08858546614646912,-14.52322769165039,-38.7420654296875,499.9847412109375,-184.814453125
7.3099999,-4.546588897705078,-1.9752163887023926,-8.118738174438477,-314.1021728515625,499.9847412109375,-225.2655029296875
7.329999900000001,-9.272743225097656,-3.5458126068115234,0.6224924325942993,-500,499.9847412109375,-178.070068359375
7.3499999,-14.748282432556152,-5.092466831207275,13.828908920288086,-500,295.0592041015625,-152.618408203125
7.369999900000001,-18.751388549804688,-6.215347766876221,27.904420852661133,-192.2454833984375,-109.9700927734375,-124.9237060546875
7.3899999,-19.213468551635742,-6.619967937469482,40.04063034057617,211.73095703125,-385.5133056640625,3.387451171875
7.409999900000001,-16.213533401489258,-5.626373767852783,45.19534683227539,198.394775390625,-500,85.4034423828125
7.4299999,-11.118672370910645,-3.5458126068115234,41.35265350341797,252.899169921875,-500,177.093505859375
7.449999900000001,-5.985504150390625,-2.3989901542663574,30.626628875732422,283.9813232421875,-500,212.3260498046875
7.4699999,-1.5682021379470825,-2.765302896499634,14.161703109741211,189.5294189453125,-500,112.701416015625
7.489999900000001,1.941697597503662,-2.873042106628418,-3.620033025741577,215.39306640625,-476.9439697265625,-67.962646484375
7.5099999,3.780444383621216,-2.7533318996429443,-19.843143463134766,-12.75634765625,-437.80517578125,-207.366943359375
7.529999900000001,4.321534156799316,-1.2689268589019775,-30.880413055419922,-250.79345703125,-323.8067626953125,-193.84765625
7.5499999,2.911349296569824,1.2258312702178955,-34.25863265991211,-47.3480224609375,-147.0947265625,-223.4954833984375
7.569999900000001,-0.1604115068912506,3.2848446369171143,-31.196447372436523,225.0518798828125,10.528564453125,-139.9078369140625
7.5899999000000005,-3.421314239501953,4.795586109161377,-24.78717041015625,340.4388427734375,57.8155517578125,-5.92041015625
7.609999900000001,-5.236119270324707,5.827486991882324,-18.871097564697266,348.9532470703125,-35.9039306640625,65.216064453125
7.6299999000000005,-4.730942726135254,7.0557122230529785,-16.41225242614746,344.085693359375,-122.7264404296875,48.4161376953125
7.649999900000001,-0.5219359993934631,8.312667846679688,-18.6484375,330.474853515625,23.284912109375,158.38623046875
7.6699999000000005,5.889736175537109,9.026140213012695,-23.312341690063477,30.853271484375,309.2498779296875,229.6142578125
7.6899999,12.658143997192383,8.279149055480957,-27.483041763305664,-306.7626953125,485.2294921875,64.453125
7.709999900000001,17.889474868774414,5.746084213256836,-27.88287353515625,-331.9091796875,499.9847412109375,-33.9813232421875
7.7299999,19.002779006958008,1.522712230682373,-23.0322208404541,-326.5228271484375,499.9847412109375,-55.694580078125
7.749999900000001,16.079458236694336,-3.7876269817352295,-14.178462028503418,-488.9068603515625,499.9847412109375,-109.5123291015625
7.7699999,10.144232749938965,-9.514557838439941,-2.2218191623687744,-500,408.2489013671875,-172.393798828125
7.789999900000001,3.093308687210083,-14.231135368347168,10.345345497131348,-309.295654296875,223.1903076171875,-246.9635009765625
7.8099999,-3.6798880100250244,-16.752229690551758,21.19586753845215,113.9678955078125,224.91455078125,-262.3748779296875
7.829999900000001,-8.520963668823242,-15.945383071899414,28.110322952270508,222.412109375,-19.3328857421875,-213.92822265625
7.8499999,-11.264719009399414,-11.848904609680176,28.955474853515625,206.939697265625,-286.92626953125,-128.90625
7.869999900000001,-12.337321281433105,-6.646304130554199,23.312341690063477,278.228759765625,-399.23095703125,-67.3980712890625
7.8899999,-11.578359603881836,-2.7222073078155518,12.131420135498047,351.62353515625,-366.4398193359375,-61.82861328125
7.909999900000001,-9.552865028381348,-0.42377370595932007,-2.188300371170044,435.0433349609375,-290.6646728515625,-141.7388916015625
7.9299999,-6.57926607131958,0.28730419278144836,-16.417041778564453,391.78466796875,-330.963134765625,-130.2947998046875
7.949999900000001,-3.1244332790374756,0.7733271718025208,-28.720844268798828,284.8358154296875,-289.520263671875,-59.4482421875
7.9699999,0.35673606395721436,1.460463047027588,-36.44693374633789,138.214111328125,-94.4366455078125,72.662353515625
7.989999900000001,2.9520506858825684,2.3965959548950195,-39.29124450683594,3.997802734375,130.37109375,116.0125732421875
8.0099999,4.776432514190674,3.138798475265503,-37.536293029785156,-77.7740478515625,271.1029052734375,89.111328125
8.0299999,6.098031520843506,3.7828385829925537,-31.969776153564453,-68.2525634765625,358.154296875,87.615966796875
8.049999900000001,7.046135425567627,4.46518611907959,-24.068910598754883,5.7373046875,491.76025390625,93.3074951171875
8.069999900000001,8.04691219329834,5.506663799285889,-15.804125785827637,162.7197265625,499.9847412109375,30.3802490234375
8.0899999,6.718130111694336,7.709329605102539,-8.216899871826172,373.3978271484375,499.9847412109375,-135.4217529296875
8.1099999,2.5953147411346436,12.205639839172363,-1.4748282432556152,418.5638427734375,499.9847412109375,-316.7724609375
8.129999900000001,-5.183446884155273,17.38669204711914,5.719748020172119,-143.06640625,499.9847412109375,-304.9163818359375
8.149999900000001,-13.512874603271484,21.09052276611328,13.532028198242188,-500,132.26318359375,-119.659423828125
8.1699999,-19.85750961303711,22.014684677124023,20.29085922241211,-219.2535400390625,-177.2308349609375,21.1639404296875
8.1899999,-21.3227596282959,18.365921020507812,24.574087142944336,125.823974609375,-286.0565185546875,175.201416015625
8.2099999,-18.58379364013672,11.686098098754883,24.06651496887207,94.940185546875,-432.7545166015625,304.19921875
8.229999900000001,-13.182474136352539,3.509899616241455,18.370710372924805,29.35791015625,-500,292.572021484375
8.2499999,-5.743690013885498,-4.323928356170654,7.9176249504089355,1.6632080078125,-500,118.7744140625
8.2699999,1.2665326595306396,-10.218452453613281,-3.869029998779297,-12.1612548828125,-500,-106.3690185546875
8.2899999,7.6997528076171875,-13.37161636352539,-16.745046615600586,50.3997802734375,-500,-140.4571533203125
8.309999900000001,12.574347496032715,-13.342885971069336,-27.236438751220703,244.873046875,-181.2591552734375,-44.9676513671875
8.3299999,14.966155052185059,-11.35809326171875,-34.43341064453125,348.175048828125,213.8824462890625,-6.4849853515625
8.3499999,15.978901863098145,-8.81784439086914,-38.015132904052734,274.96337890625,441.5130615234375,-27.984619140625
8.3699999,14.973337173461914,-6.433219909667969,-37.761348724365234,110.65673828125,499.9847412109375,-160.9954833984375
8.389999900000001,11.827356338500977,-4.659116744995117,-34.13174057006836,3.3721923828125,499.9847412109375,-322.052001953125
8.4099999,5.128379821777344,-2.7533318996429443,-27.82541275024414,-36.6668701171875,499.9847412109375,-367.584228515625
8.4299999,-5.987898349761963,-0.42616790533065796,-17.98524284362793,-172.088623046875,499.9847412109375,-381.40869140625
8.4499999,-18.59576416015625,1.4772224426269531,-5.430049419403076,-500,425.323486328125,-370.635986328125
8.469999900000001,-30.945056915283203,3.6080620288848877,7.757213592529297,-500,98.4039306640625,-210.6170654296875
8.4899999,-37.5506591796875,4.477157115936279,18.820819854736328,-144.195556640625,-223.8922119140625,34.881591796875
8.5099999,-37.65361022949219,4.259284973144531,24.78956413269043,-80.0933837890625,-447.0367431640625,160.2935791015625
8.5299999,-31.134199142456055,2.715024709701538,24.090457916259766,-161.5142822265625,-500,173.5992431640625
8.549999900000001,-20.16875457763672,0.05506663769483566,16.89109230041504,-142.76123046875,-500,105.52978515625
8.569999900000001,-7.417236804962158,-1.9249382019042969,4.750096321105957,-85.9832763671875,-500,-31.036376953125
8.5899999,4.335899353027344,-2.873042106628418,-9.938331604003906,-179.779052734375,-500,-45.83740234375
8.6099999,13.620613098144531,-1.173158884048462,-24.530990600585938,-350.341796875,-500,-21.0723876953125
8.629999900000001,18.58139991760254,1.9752163887023926,-35.1540641784668,-334.075927734375,-223.3123779296875,21.4385986328125
8.649999900000001,19.395427703857422,5.8203043937683105,-40.25371170043945,-0.0152587890625,206.9549560546875,138.3209228515625
8.6699999,17.02277374267578,8.975862503051758,-39.13801574707031,161.7431640625,480.0872802734375,213.19580078125
8.6899999,13.110648155212402,10.953473091125488,-32.802955627441406,132.7362060546875,499.9847412109375,197.4945068359375
8.709999900000001,9.670180320739746,11.942277908325195,-23.345861434936523,203.643798828125,499.9847412109375,149.6429443359375
8.729999900000001,7.096413612365723,12.495338439941406,-12.339715957641602,393.768310546875,499.9847412109375,28.3050537109375
8.7499999,4.989516258239746,13.752294540405273,-1.9560627937316895,499.2218017578125,499.9847412109375,-78.3538818359375
8.7699999,1.4389152526855469,15.787365913391113,7.51779317855835,189.2242431640625,499.9847412109375,-235.992431640625
8.7899999,-3.2297780513763428,17.19276237487793,17.24543571472168,-450.2410888671875,498.2452392578125,-354.9652099609375
8.809999900000001,-8.87291145324707,16.757017135620117,26.570850372314453,-466.4306640625,-10.5438232421875,-309.7991943359375
8.8299999,-13.342885971069336,13.177685737609863,32.92745590209961,64.2547607421875,-451.1260986328125,-52.886962890625
8.8499999,-15.617377281188965,6.959944248199463,34.16765213012695,132.0343017578125,-500,126.8310546875
8.8699999,-16.41464614868164,0.3256114423274994,26.91561508178711,-43.914794921875,-500,54.5501708984375
8.889999900000001,-13.407529830932617,-6.246472358703613,12.138602256774902,-31.3873291015625,-500,-4.82177734375
8.9099999,-8.96149730682373,-10.189722061157227,-5.16429328918457,59.4024658203125,-500,-86.761474609375
8.9299999,-2.1499931812286377,-11.817779541015625,-21.959617614746094,213.9129638671875,-307.9071044921875,-104.79736328125
8.9499999,3.995922565460205,-10.663774490356445,-33.51164245605469,166.3818359375,81.72607421875,0.640869140625
8.969999900000001,8.51138687133789,-7.704541206359863,-38.75015640258789,162.29248046875,213.958740234375,-25.115966796875
8.9899999,10.098742485046387,-4.266467571258545,-38.33356475830078,257.2784423828125,289.0472412109375,-109.0240478515625
9.0099999,9.940725326538086,-1.4437036514282227,-33.751060485839844,273.0255126953125,398.193359375,-174.49951171875
9.0299999,8.822632789611816,0.5985504388809204,-27.018566131591797,257.3394775390625,499.9847412109375,-208.9080810546875
9.049999900000001,6.538564682006836,2.38462495803833,-19.838356018066406,248.10791015625,499.9847412109375,-237.97607421875
9.069999900000001,3.3901896476745605,4.651933670043945,-13.235146522521973,242.2943115234375,499.9847412109375,-264.862060546875
9.0899999,-1.9847931861877441,8.305485725402832,-7.0126166343688965,80.596923828125,499.9847412109375,-308.2122802734375
9.1099999,-8.53293514251709,12.327744483947754,-0.05267243832349777,-294.4793701171875,427.490234375,-362.6251220703125
9.129999900000001,-15.291766166687012,15.591041564941406,8.394071578979492,-500,157.8216552734375,-290.8172607421875
9.149999900000001,-20.853496551513672,16.251840591430664,17.911022186279297,-500,-163.9556884765625,-115.9210205078125
9.1699999,-22.524648666381836,13.476961135864258,26.101587295532227,-124.4659423828125,-362.1368408203125,163.26904296875
9.1899999,-20.04186248779297,8.008605003356934,30.174123764038086,-13.5345458984375,-493.65234375,179.3212890625
9.209999900000001,-14.791378021240234,1.5179238319396973,28.30185890197754,-39.8712158203125,-500,-57.037353515625
9.229999900000001,-7.783549785614014,-4.402936935424805,20.22861099243164,2.4566650390625,-500,-231.3232421875
9.2499999,-1.5658079385757446,-8.063671112060547,8.068459510803223,117.4468994140625,-500,-313.5223388671875
9.2699999,3.2345664501190186,-9.799467086791992,-5.544970989227295,245.9259033203125,-500,-164.581298828125
9.2899999,5.530605792999268,-9.579200744628906,-18.033126831054688,356.6741943359375,-434.7381591796875,-189.239501953125
9.309999900000001,5.420472621917725,-7.8098859786987305,-27.928361892700195,468.3990478515625,71.0601806640625,-382.7362060546875
9.3299999,3.050212860107422,-5.183446884155273,-34.354400634765625,330.169677734375,192.2607421875,-278.7933349609375
9.3499999,-0.07422025501728058,-2.52109432220459,-36.964080810546875,16.4337158203125,359.100341796875,56.6558837890625
9.3699999,-2.513911724090576,-0.4644751250743866,-36.315250396728516,-53.070068359375,499.9847412109375,143.9666748046875
9.389999900000001,-3.6607344150543213,0.2944868206977844,-32.21158981323242,-19.012451171875,499.9847412109375,-0.3814697265625
9.4099999,-3.488351821899414,-0.05027823522686958,-25.63232421875,-38.177490234375,454.0252685546875,-98.32763671875
9.4299999,-2.782062292098999,-0.667982280254364,-17.956512451171875,-45.806884765625,474.517822265625,-79.6661376953125
9.4499999,-2.2649147510528564,-0.3998316824436188,-10.627861022949219,-15.13671875,499.9847412109375,-83.67919921875
9.469999900000001,-2.4205379486083984,1.0031704902648926,-4.2090067863464355,-135.528564453125,499.9847412109375,-110.9161376953125
9.4899999,-3.294421434402466,2.7078421115875244,1.721431016921997,-500,424.957275390625,-148.1475830078125
9.5099999,-5.0876784324646,3.339911460876465,7.8960771560668945,-500,237.4114990234375,-263.6566162109375
9.5299999,-6.449979305267334,1.6112977266311646,16.429012298583984,-500,-2.9296875,-318.3135986328125
9.549999900000001,-6.337451934814453,-3.021482467651367,26.709714889526367,-500,-300.811767578125,-337.4481201171875
9.569999900000001,-4.73573112487793,-8.547300338745117,35.63050842285156,-163.116455078125,-449.951171875,-291.7633056640625
9.5899999,-1.6160861253738403,-12.600683212280273,40.93606185913086,-37.3077392578125,-500,-306.5643310546875
9.6099999,1.4173674583435059,-13.433865547180176,39.66234588623047,-27.1148681640625,-500,-324.3560791015625
9.629999900000001,3.536235809326172,-10.84094524383545,32.601844787597656,74.8138427734375,-448.18115234375,-234.100341796875
9.649999900000001,4.153939723968506,-6.426037311553955,22.213403701782227,135.1318359375,-450.958251953125,-146.1334228515625
9.6699999,3.56017804145813,-1.778891921043396,11.233593940734863,137.6800537109375,-495.0408935546875,-124.481201171875
9.6899999,1.8507179021835327,1.8483237028121948,1.3120225667953491,134.33837890625,-450.3021240234375,-97.0306396484375
9.709999900000001,-0.3519476354122162,4.577713489532471,-7.350199222564697,171.4324951171875,-391.2811279296875,-95.0469970703125
9.729999900000001,-2.5019407272338867,6.430825710296631,-14.784195899963379,266.6168212890625,-291.748046875,-122.344970703125
9.7499999,-4.304774761199951,7.905653953552246,-21.954830169677734,406.8450927734375,-92.4224853515625,-95.64208984375
9.7699999,-5.279214859008789,8.865729331970215,-28.407203674316406,424.31640625,135.0555419921875,20.5230712890625
9.7899999,-5.592854976654053,8.96389102935791,-33.3033447265625,320.4193115234375,332.5042724609375,37.5823974609375
9.809999900000001,-5.4875102043151855,8.042123794555664,-35.17560958862305,244.537353515625,499.9847412109375,17.547607421875
9.8299999,-5.386953830718994,5.937620162963867,-33.5020637512207,221.1456298828125,499.9847412109375,-20.6451416015625
9.8499999,-6.016628742218018,3.378218650817871,-28.292282104492188,139.801025390625,499.9847412109375,-62.9730224609375
9.8699999,-7.1251444816589355,1.3096283674240112,-20.626047134399414,79.8797607421875,499.9847412109375,-85.2813720703125
9.889999900000001,-9.083600997924805,0.15801730751991272,-11.860875129699707,51.69677734375,499.9847412109375,-113.22021484375
9.9099999,-11.887211799621582,0.19153612852096558,-2.6862943172454834,-53.1158447265625,499.9847412109375,-229.4464111328125
9.9299999,-14.642937660217285,0.6847416758537292,7.2568254470825195,-344.6502685546875,499.9847412109375,-289.5050048828125
9.9499999,-16.254236221313477,0.4836287498474121,18.140865325927734,-500,209.381103515625,-265.7318115234375
9.969999900000001,-15.603012084960938,-0.48602294921875,27.909208297729492,-500,-363.739013671875,-258.8958740234375
9.9899999,-12.040440559387207,-2.1308395862579346,34.9744987487793,-315.765380859375,-500,-214.29443359375
10.0099999,-6.493074893951416,-3.627215623855591,36.61213302612305,-196.3958740234375,-500,-92.7581787109375
10.0299999,-0.8259995579719543,-4.101267337799072,31.9601993560791,-86.2579345703125,-500,38.2232666015625
10.049999900000001,3.8714241981506348,-3.780444383621216,22.934057235717773,-52.398681640625,-500,134.9029541015625
10.069999900000001,6.916848659515381,-2.9305028915405273,11.96861457824707,-87.371826171875,-500,141.0369873046875
10.0899999,8.712499618530273,-2.1332337856292725,1.9536685943603516,-98.785400390625,-475.341796875,85.26611328125
10.1099999,9.883264541625977,-1.6759412288665771,-5.4013190269470215,-98.419189453125,-360.198974609375,43.4112548828125
10.129999900000001,10.199298858642578,-1.8555063009262085,-8.966285705566406,-134.552001953125,-284.8358154296875,-55.145263671875
10.149999900000001,9.612719535827637,-2.3056161403656006,-9.919178009033203,-111.328125,-283.416748046875,-191.009521484375
10.1699999,8.099584579467773,-2.889801502227783,-9.840168952941895,-21.331787109375,-262.481689453125,-255.5999755859375
10.1899999,5.932831764221191,-2.829946517944336,-10.953473091125488,100.7080078125,-196.1822509765625,-252.74658203125
10.209999900000001,3.799597978591919,-1.522712230682373,-14.518439292907715,237.396240234375,-114.5782470703125,-189.5294189453125
10.229999900000001,2.3271639347076416,0.5770025849342346,-20.367473602294922,329.7576904296875,-51.08642578125,-104.55322265625
10.2499999,1.8483237028121948,2.9161376953125,-27.210102081298828,402.5421142578125,33.5235595703125,-78.30810546875
10.2699999,2.0829553604125977,4.240131378173828,-32.69521713256836,429.62646484375,189.239501953125,-131.591796875
10.2899999,2.9017724990844727,4.242525577545166,-35.09660339355469,407.8369140625,346.282958984375,-193.05419921875
10.309999900000001,3.6535518169403076,3.471592426300049,-33.288978576660156,356.719970703125,448.486328125,-280.517578125
10.3299999,3.6822822093963623,2.913743495941162,-27.722461700439453,292.633056640625,499.9847412109375,-392.2271728515625
10.3499999,2.6360161304473877,4.0749311447143555,-19.86708641052246,269.7296142578125,499.9847412109375,-431.15234375
10.3699999,0.629675030708313,7.1251444816589355,-11.02051067352295,113.006591796875,499.9847412109375,-344.635009765625
10.389999900000001,-2.5234885215759277,9.227252960205078,-1.357512354850769,-480.865478515625,499.9847412109375,-241.7449951171875
10.4099999,-5.568912982940674,8.01339340209961,9.856928825378418,-500,407.3028564453125,-247.833251953125
10.4299999,-7.474697589874268,2.250549554824829,21.914127349853516,-500,-11.749267578125,-291.0614013671875
10.4499999,-8.951920509338379,-5.9519853591918945,31.064767837524414,140.289306640625,-395.6756591796875,-352.23388671875
10.469999900000001,-8.796297073364258,-13.414711952209473,35.28813934326172,244.0338134765625,-500,-263.0615234375
10.4899999,-8.676587104797363,-16.919822692871094,31.021671295166016,198.333740234375,-500,-186.1114501953125
10.5099999,-8.724471092224121,-15.959748268127441,19.45528221130371,216.5374755859375,-500,-205.352783203125
10.5299999,-8.686163902282715,-12.715604782104492,4.809951305389404,171.356201171875,-500,-176.7120361328125
10.549999900000001,-8.925583839416504,-8.456320762634277,-9.641449928283691,244.7052001953125,-390.5487060546875,-226.5777587890625
10.569999900000001,-9.397241592407227,-4.288015365600586,-20.83434295654297,352.9205322265625,-255.0811767578125,-269.95849609375
10.5899999,-9.801861763000488,-0.790086567401886,-28.095956802368164,338.2720947265625,-141.571044921875,-232.9559326171875
10.6099999,-9.81143856048584,2.1164743900299072,-31.90034294128418,268.8446044921875,51.08642578125,-87.9364013671875
10.629999900000001,-8.83699893951416,4.041412353515625,-33.16687774658203,172.8973388671875,304.4586181640625,50.4608154296875
10.649999900000001,-6.75883150100708,4.912901878356934,-32.30975341796875,79.681396484375,497.9095458984375,54.595947265625
10.6699999,-4.089296340942383,4.434061527252197,-29.41276741027832,30.0445556640625,499.9847412109375,6.6680908203125
10.6899999,-1.9033904075622559,2.851494312286377,-24.655488967895508,21.9879150390625,499.9847412109375,-47.8515625
10.709999900000001,-1.1516109704971313,0.8092401623725891,-18.88785743713379,42.8619384765625,499.9847412109375,-118.0419921875
10.729999900000001,-2.6815059185028076,-0.6655880808830261,-12.492944717407227,27.2674560546875,499.9847412109375,-169.86083984375
10.7499999,-6.485892295837402,-0.7110779285430908,-5.8442463874816895,-90.51513671875,499.9847412109375,-176.2237548828125
10.7699999,-11.511322021484375,0.6272808313369751,1.0654197931289673,-327.6519775390625,499.9847412109375,-202.117919921875
10.7899999,-16.139312744140625,2.80361008644104,8.451532363891602,-500,243.7744140625,-170.1812744140625
10.809999900000001,-18.59576416015625,4.599261283874512,15.708357810974121,-500,-220.0775146484375,-89.7369384765625
10.8299999,-17.839197158813477,4.93923807144165,21.408950805664062,-405.5328369140625,-500,19.8211669921875
10.8499999,-14.31014347076416,3.579331636428833,24.54775047302246,-310.5926513671875,-500,149.4293212890625
10.8699999,-9.121908187866211,0.7398083209991455,24.219743728637695,-232.36083984375,-500,174.31640625
10.889999900000001,-2.9975404739379883,-4.141968727111816,19.821596145629883,-180.96923828125,-500,171.3104248046875
10.9099999,4.01268196105957,-9.153033256530762,11.465831756591797,-103.7445068359375,-500,111.175537109375
10.9299999,10.752359390258789,-13.409923553466797,1.0055646896362305,37.41455078125,-500,-87.493896484375
10.9499999,16.974889755249023,-15.296554565429688,-9.59835433959961,-44.1741943359375,-424.49951171875,-166.595458984375
10.969999900000001,21.126436233520508,-14.041993141174316,-17.961301803588867,-88.7908935546875,-368.3624267578125,-210.9832763671875
10.9899999,22.65154266357422,-10.271124839782715,-22.182279586791992,-26.214599609375,-289.4134521484375,-230.2398681640625
11.0099999,22.10805892944336,-5.477933406829834,-23.20699691772461,71.1822509765625,-264.2059326171875,-216.094970703125
11.0299999,20.254945755004883,-1.048660397529602,-22.385786056518555,105.3619384765625,-226.5472412109375,-199.9664306640625
11.049999900000001,17.448942184448242,1.922544002532959,-21.19586753845215,44.49462890625,-133.6517333984375,-224.7467041015625
11.069999900000001,13.862427711486816,2.403778553009033,-20.40338706970215,-27.5421142578125,-36.5753173828125,-262.8936767578125
11.0899999,9.14585018157959,0.9313444495201111,-20.0969295501709,2.4871826171875,-1.0833740234375,-305.84716796875
11.1099999,3.648763418197632,-1.9129672050476074,-20.077775955200195,81.6497802734375,124.8779296875,-337.6312255859375
11.129999900000001,-1.7477672100067139,-4.884171485900879,-20.04186248779297,55.755615234375,364.5782470703125,-337.2955322265625
11.149999900000001,-6.430825710296631,-7.354987621307373,-19.488801956176758,-65.1092529296875,492.9046630859375,-298.7213134765625
11.1699999,-10.014945983886719,-9.090784072875977,-18.148048400878906,-140.68603515625,489.68505859375,-302.215576171875
11.1899999,-12.394782066345215,-10.168174743652344,-15.509638786315918,-160.6292724609375,489.07470703125,-261.7645263671875
11.209999900000001,-13.79060173034668,-10.467450141906738,-11.834539413452148,-145.0653076171875,475.006103515625,-182.7545166015625
11.229999900000001,-14.010868072509766,-9.794678688049316,-7.615955829620361,-147.8118896484375,403.38134765625,-123.4893798828125
11.2499999,-13.151350021362305,-8.001421928405762,-3.2848446369171143,-192.535400390625,335.7086181640625,-105.2398681640625
11.2699999,-11.128249168395996,-5.193023681640625,0.768538773059845,-179.0008544921875,316.314697265625,-58.074951171875
11.2899999,-8.633491516113281,-1.7118542194366455,4.477157115936279,-124.786376953125,322.4334716796875,-7.6904296875
11.309999900000001,-6.370970726013184,1.534683346748352,8.461109161376953,-296.9512939453125,218.32275390625,21.6827392578125
11.3299999,-4.364629745483398,3.5386300086975098,13.407529830932617,-500,-6.4697265625,-31.463623046875
11.3499999,-2.80361008644104,3.624821424484253,19.87187385559082,-500,-202.3468017578125,-189.8956298828125
11.3699999,-1.400607943534851,2.3487119674682617,26.53972625732422,-314.178466796875,-341.2322998046875,-274.3377685546875
11.389999900000001,0.17238251864910126,0.2992752194404602,31.464599609375,-12.2528076171875,-500,-223.3428955078125
11.4099999,1.5705963373184204,-1.2497732639312744,32.31454086303711,38.2080078125,-500,-134.185791015625
11.4299999,2.183511972427368,-1.9704279899597168,27.784709930419922,97.71728515625,-500,-112.4420166015625
11.4499999,1.1851298809051514,-1.3096283674240112,18.47365951538086,104.2022705078125,-500,-119.3695068359375
11.469999900000001,-1.4101848602294922,0.48602294921875,5.863399982452393,32.5775146484375,-500,-70.61767578125
11.4899999,-3.9647979736328125,3.6320040225982666,-8.372523307800293,67.1539306640625,-500,13.519287109375
11.5099999,-6.119579315185547,8.374917984008789,-21.830331802368164,264.8162841796875,-212.890625,-8.7432861328125
11.5299999,-6.399701118469238,13.503297805786133,-32.415096282958984,246.7498779296875,113.2049560546875,12.298583984375
11.549999900000001,-5.329493045806885,18.136077880859375,-37.809234619140625,-1.6632080078125,230.7586669921875,108.673095703125
11.569999900000001,-3.404554843902588,20.446481704711914,-36.95450210571289,-214.7369384765625,286.80419921875,173.553466796875
11.5899999,-0.8140285611152649,19.519926071166992,-30.523677825927734,-265.2587890625,349.12109375,183.7005615234375
11.6099999,2.252943754196167,14.896722793579102,-20.264522552490234,-268.096923828125,413.2232666015625,179.26025390625
11.629999900000001,5.659893035888672,7.060500621795654,-7.908048152923584,-378.0364990234375,426.1016845703125,180.2215576171875
11.649999900000001,9.078812599182129,-2.9496564865112305,4.817133903503418,-461.7462158203125,285.94970703125,93.6279296875
11.6699999,12.351686477661133,-13.369222640991211,16.40506935119629,-232.147216796875,62.9119873046875,-120.2850341796875
11.6899999,14.52562141418457,-21.50711441040039,24.79195785522461,108.4442138671875,-68.78662109375,-349.7467041015625
11.709999900000001,14.94221305847168,-25.596410751342773,28.524518966674805,264.3280029296875,-152.5115966796875,-451.629638671875
11.729999900000001,12.789825439453125,-25.014619827270508,26.66183090209961,341.49169921875,-226.6845703125,-466.888427734375
11.7499999,7.608773231506348,-21.179107666015625,19.347543716430664,409.4390869140625,-297.271728515625,-500
11.7699999,0.689530074596405,-16.184803009033203,8.87291145324707,480.9112548828125,-303.8482666015625,-500
11.7899999,-6.641515731811523,-11.626243591308594,-2.63362193107605,495.1019287109375,-282.6080322265625,-500
11.809999900000001,-13.194445610046387,-8.015787124633789,-12.969390869140625,496.39892578125,-188.78173828125,-367.9351806640625
11.8299999,-18.169597625732422,-5.331887245178223,-20.616470336914062,409.5001220703125,-120.2850341796875,-229.79736328125
11.8499999,-21.004331588745117,-3.6511576175689697,-24.77519989013672,324.3560791015625,-92.2698974609375,-94.635009765625
11.8699999,-22.021867752075195,-3.134010076522827,-26.00342559814453,274.4293212890625,-66.436767578125,41.3818359375
11.889999900000001,-20.769699096679688,-3.6822822093963623,-25.572467803955078,282.5164794921875,2.6397705078125,114.8529052734375
11.9099999,-17.159242630004883,-4.78122091293335,-24.54056739807129,267.852783203125,154.35791015625,109.9395751953125
11.9299999,-12.368446350097656,-6.165069580078125,-23.51584815979004,183.868408203125,356.3995361328125,5.43212890625
11.9499999,-7.390900611877441,-7.089231014251709,-22.697032928466797,100.4486083984375,499.9847412109375,-94.8486328125
11.969999900000001,-3.0382418632507324,-7.340622425079346,-21.610065460205078,47.607421875,499.9847412109375,-199.3865966796875
11.9899999,0.4572925269603729,-7.007828235626221,-20.494365692138672,-1.922607421875,499.9847412109375,-274.139404296875
12.0099999,1.9704279899597168,-6.282385349273682,-19.349937438964844,-144.9432373046875,499.9847412109375,-372.955322265625
12.0299999,0.6033388376235962,-5.0685248374938965,-17.693151473999023,-277.984619140625,499.9847412109375,-482.330322265625
12.049999900000001,-3.663128614425659,-3.9647979736328125,-14.087482452392578,-429.62646484375,499.9847412109375,-481.3995361328125
12.069999900000001,-10.108319282531738,-2.82515811920166,-7.690176010131836,-500,499.9847412109375,-408.1878662109375
12.0899999,-15.861586570739746,-1.0773907899856567,1.3311761617660522,-500,366.4398193359375,-357.97119140625
12.1099999,-18.504785537719727,1.0295066833496094,11.350910186767578,-500,22.6287841796875,-283.905029296875
12.129999900000001,-17.38429832458496,3.0789434909820557,21.097705841064453,-500,-228.057861328125,-238.5406494140625
12.149999900000001,-13.046005249023438,4.314351558685303,29.64739990234375,-500,-326.7364501953125,-196.8994140625
12.1699999,-7.304709434509277,3.976768970489502,35.47249221801758,-148.49853515625,-320.9228515625,-96.4202880859375
12.1899999,-1.2713210582733154,1.867477297782898,37.81162643432617,134.82666015625,-449.7528076171875,-18.646240234375
12.209999900000001,3.308786630630493,-1.137245774269104,35.400665283203125,63.873291015625,-500,-49.4842529296875
12.229999900000001,5.6670756340026855,-4.113238334655762,28.488605499267578,38.7115478515625,-500,-150.4669189453125
12.2499999,5.365406036376953,-6.581660270690918,18.873491287231445,96.8780517578125,-500,-225.2349853515625
12.2699999,2.609679937362671,-8.276755332946777,8.868123054504395,118.71337890625,-500,-280.853271484375
12.289999900000002,-1.9129672050476074,-9.301473617553711,-0.038307227194309235,111.9537353515625,-500,-354.9346923828125
12.309999900000001,-7.321468830108643,-9.773131370544434,-7.1706342697143555,176.1474609375,-414.276123046875,-483.0780029296875
12.3299999,-13.03403377532959,-9.567230224609375,-12.868834495544434,333.9080810546875,-271.6217041015625,-500
12.3499999,-17.946935653686523,-7.462726593017578,-18.499996185302734,409.515380859375,-79.925537109375,-500
12.3699999,-21.892580032348633,-3.35667085647583,-24.00666046142578,308.8531494140625,112.85400390625,-313.446044921875
12.389999900000001,-23.82948875427246,1.699883222579956,-28.955474853515625,13.8702392578125,260.406494140625,28.8238525390625
12.4099999,-23.52063751220703,7.070077419281006,-31.991323471069336,-162.078857421875,387.664794921875,184.08203125
12.4299999,-20.585346221923828,10.747570991516113,-31.83809471130371,-80.8258056640625,482.635498046875,243.4539794921875
12.4499999,-15.140931129455566,12.181697845458984,-28.5053653717041,-28.62548828125,499.9847412109375,335.9832763671875
12.469999900000001,-8.17141056060791,12.088324546813965,-23.02982521057129,-16.937255859375,499.9847412109375,316.070556640625
12.4899999,-0.8379706144332886,10.711658477783203,-16.488866806030273,8.36181640625,499.9847412109375,227.0050048828125
12.5099999,5.30076265335083,8.89445972442627,-9.710882186889648,78.765869140625,499.9847412109375,130.218505859375
12.5299999,8.83939266204834,7.295132637023926,-2.6024973392486572,92.0867919921875,499.9847412109375,11.962890625
12.549999900000001,9.198522567749023,5.856217384338379,5.035006046295166,-67.44384765625,499.9847412109375,-54.8095703125
12.569999900000001,7.084442615509033,3.643975019454956,13.761871337890625,-426.0101318359375,402.008056640625,-131.317138671875
12.5899999,3.428496837615967,0.37828385829925537,22.83110809326172,-500,-19.8516845703125,-249.81689453125
12.6099999,-0.4620809257030487,-3.8977603912353516,30.593109130859375,-258.9263916015625,-226.98974609375,-344.4366455078125
12.629999900000001,-3.995922565460205,-8.26239013671875,35.082237243652344,-49.86572265625,-371.9940185546875,-435.394287109375
12.649999900000001,-6.97430944442749,-11.077971458435059,34.91943359375,-90.8050537109375,-500,-468.7042236328125
12.6699999,-9.66539192199707,-11.827356338500977,30.207643508911133,-40.7867431640625,-500,-430.023193359375
12.6899999,-11.980585098266602,-10.757147789001465,22.352266311645508,151.3214111328125,-500,-355.1025390625
12.709999900000001,-14.372392654418945,-8.913613319396973,12.327744483947754,250.48828125,-500,-315.2313232421875
12.729999900000001,-15.641319274902344,-6.540958881378174,0.9624691009521484,224.2889404296875,-500,-340.2252197265625
12.7499999,-16.618154525756836,-4.094084739685059,-9.516951560974121,152.9693603515625,-490.509033203125,-440.1092529296875
12.7699999,-17.017986297607422,-0.49320554733276367,-19.045873641967773,237.945556640625,-296.356201171875,-474.7772216796875
12.789999900000002,-16.83363151550293,3.555389642715454,-25.708938598632812,301.2847900390625,12.115478515625,-203.9794921875
12.809999900000001,-16.318878173828125,8.121131896972656,-29.34572982788086,198.4405517578125,245.880126953125,83.9385986328125
12.8299999,-14.815320014953613,12.167332649230957,-30.281862258911133,18.798828125,316.070556640625,177.3529052734375
12.8499999,-11.961431503295898,15.006855964660645,-28.534095764160156,-41.9921875,360.504150390625,187.56103515625
12.8699999,-7.948749542236328,16.46971321105957,-24.583663940429688,-0.54931640625,471.5728759765625,233.642578125
12.889999900000001,-3.2609026432037354,16.752229690551758,-19.20149803161621,46.7376708984375,499.9847412109375,278.3355712890625
12.9099999,1.414973258972168,16.10818862915039,-13.333309173583984,63.65966796875,499.9847412109375,281.5399169921875
12.9299999,5.614402770996094,14.669273376464844,-7.659051418304443,61.859130859375,499.9847412109375,261.1236572265625
12.9499999,8.667010307312012,12.763489723205566,-2.2912509441375732,41.5496826171875,499.9847412109375,228.302001953125
12.969999900000001,10.307038307189941,9.962273597717285,3.268085241317749,-165.557861328125,499.9847412109375,179.1534423828125
12.9899999,10.414777755737305,5.595249176025391,9.77791976928711,-499.45068359375,304.7027587890625,56.610107421875
13.0099999,9.99100399017334,-0.1628057211637497,16.859968185424805,-500,-25.177001953125,-86.6546630859375
13.0299999,8.865729331970215,-6.574477672576904,23.247697830200195,-179.412841796875,-70.5108642578125,-168.1671142578125
13.049999900000001,7.436390399932861,-11.84650993347168,27.181371688842773,66.46728515625,-93.475341796875,-268.00537109375
13.069999900000001,5.355829238891602,-14.635754585266113,27.933151245117188,-58.4869384765625,-279.4189453125,-361.572265625
13.0899999,2.2385785579681396,-14.470555305480957,25.34023094177246,-114.3341064453125,-382.5531005859375,-433.65478515625
13.1099999,-1.2545616626739502,-12.24155330657959,20.618865966796875,53.3447265625,-392.4407958984375,-456.207275390625
13.129999900000001,-4.809951305389404,-9.346963882446289,14.834473609924316,199.127197265625,-372.650146484375,-461.212158203125
13.149999900000001,-7.996633529663086,-6.871358871459961,8.032546997070312,289.0167236328125,-352.4322509765625,-492.98095703125
13.1699999,-10.96304988861084,-4.982333660125732,0.2537853717803955,391.7388916015625,-322.540283203125,-500
13.1899999,-13.297396659851074,-2.7964274883270264,-8.518569946289062,434.87548828125,-275.970458984375,-468.32275390625
13.209999900000001,-14.664484977722168,-0.17717093229293823,-17.348384857177734,248.199462890625,-143.6767578125,-233.1085205078125
13.229999900000001,-14.597447395324707,2.6360161304473877,-24.72013282775879,-20.5230712890625,3.021240234375,-27.64892578125
13.2499999,-13.354857444763184,5.609614372253418,-29.03687858581543,-130.889892578125,106.6741943359375,-8.5906982421875
13.2699999,-11.118672370910645,7.223306655883789,-29.53247833251953,-164.1387939453125,251.5411376953125,71.47216796875
13.289999900000002,-8.645462036132812,7.778761386871338,-26.86773109436035,-140.4266357421875,415.9698486328125,187.530517578125
13.309999900000001,-6.294356346130371,7.580042362213135,-22.306777954101562,-132.354736328125,489.532470703125,241.302490234375
13.3299999,-4.357447147369385,6.710947513580322,-16.996437072753906,-146.8353271484375,499.9847412109375,246.368408203125
13.3499999,-3.60566782951355,5.65031623840332,-11.413159370422363,-99.853515625,499.9847412109375,239.1815185546875
13.3699999,-4.400542736053467,4.738125324249268,-5.145139217376709,-45.5169677734375,499.9847412109375,212.860107421875
13.389999900000001,-6.512228488922119,4.3622355461120605,1.5298948287963867,14.862060546875,499.9847412109375,181.243896484375
13.4099999,-9.117119789123535,4.599261283874512,8.832210540771484,-8.331298828125,499.9847412109375,102.447509765625
13.4299999,-10.800244331359863,5.784391403198242,15.004462242126465,-84.4573974609375,223.44970703125,54.8248291015625
13.4499999,-10.520122528076172,7.3454108238220215,19.68273162841797,-176.3916015625,-36.2091064453125,104.7210693359375
13.469999900000001,-7.979874134063721,8.939949035644531,22.10805892944336,-194.091796875,-129.638671875,205.62744140625
13.4899999,-3.3303346633911133,9.84256362915039,22.71858024597168,-177.2613525390625,-171.5545654296875,308.0902099609375
13.5099999,2.5115175247192383,9.397241592407227,22.088905334472656,-202.4383544921875,-336.090087890625,344.7265625
13.5299999,8.130708694458008,7.783549785614014,20.23579216003418,-275.0091552734375,-500,302.520751953125
13.549999900000001,12.540828704833984,5.52821159362793,16.862361907958984,-337.1429443359375,-500,241.3330078125
13.569999900000001,15.40429401397705,2.4157495498657227,12.54801082611084,-347.83935546875,-500,188.2781982421875
13.5899999,17.099388122558594,-0.44532153010368347,7.340622425079346,-213.4552001953125,-500,87.3870849609375
13.6099999,18.04749298095703,-3.4165258407592773,2.518700122833252,-78.4759521484375,-408.8134765625,-32.5775146484375
13.629999900000001,18.327613830566406,-6.04775333404541,-1.0414776802062988,-96.13037109375,-267.7459716796875,-139.8162841796875
13.649999900000001,17.887081146240234,-7.795520782470703,-3.0550012588500977,-154.6173095703125,-279.9835205078125,-221.832275390625
13.6699999,16.136919021606445,-8.53293514251709,-3.6822822093963623,-168.212890625,-324.64599609375,-275.93994140625
13.6899999,13.333309173583984,-8.283937454223633,-3.620033025741577,-133.0413818359375,-317.9473876953125,-295.440673828125
13.709999900000001,9.725247383117676,-7.196970462799072,-3.9384617805480957,-113.1134033203125,-304.534912109375,-316.1468505859375
13.729999900000001,5.394136428833008,-5.7125654220581055,-5.185841083526611,-56.976318359375,-248.2147216796875,-382.38525390625
13.7499999,0.05267243832349777,-3.8331170082092285,-8.283937454223633,69.4122314453125,-147.979736328125,-473.44970703125
13.7699999,-5.623979568481445,-1.2330138683319092,-13.876792907714844,135.345458984375,-5.55419921875,-449.371337890625
13.789999900000002,-11.063606262207031,1.1061211824417114,-20.254945755004883,33.2183837890625,234.1461181640625,-242.034912109375
13.809999900000001,-15.634137153625488,3.0837318897247314,-26.515783309936523,-3.5552978515625,444.3511962890625,-146.7742919921875
13.8299999,-18.559850692749023,3.600879430770874,-29.673736572265625,-28.50341796875,499.9847412109375,-133.72802734375
13.8499999,-19.67555046081543,2.252943754196167,-28.299463272094727,-59.38720703125,499.9847412109375,-115.5242919921875
13.8699999,-19.37627410888672,-0.22026655077934265,-22.888568878173828,6.4544677734375,499.9847412109375,-134.0789794921875
13.889999900000001,-18.397045135498047,-2.5115175247192383,-15.061923027038574,146.270751953125,499.9847412109375,-145.6146240234375
13.9099999,-17.403451919555664,-3.3446998596191406,-6.512228488922119,191.619873046875,499.9847412109375,-156.9366455078125
13.9299999,-17.219099044799805,-2.0254945755004883,1.9393033981323242,-28.3050537109375,499.9847412109375,-201.0345458984375
13.9499999,-17.403451919555664,0.9720458984375,10.41956615447998,-409.4085693359375,210.9375,-233.88671875
13.969999900000001,-17.458518981933594,4.496310710906982,18.65322494506836,-463.3026123046875,-154.052734375,-164.2303466796875
13.9899999,-16.019603729248047,6.988674640655518,25.27798080444336,-179.7332763671875,-420.4254150390625,-23.49853515625
14.0099999,-13.15613842010498,7.7428483963012695,28.91716766357422,-64.02587890625,-500,-0.244140625
14.0299999,-9.5624418258667,6.734889507293701,27.744009017944336,-76.934814453125,-500,7.8887939453125
14.049999900000001,-6.279991149902344,4.63517427444458,21.715410232543945,-8.4686279296875,-500,-42.449951171875
14.069999900000001,-4.189853191375732,2.492363929748535,11.903970718383789,74.6917724609375,-500,-168.64013671875
14.0899999,-3.928884983062744,2.1954829692840576,-0.29209262132644653,141.41845703125,-500,-305.1910400390625
14.1099999,-5.12119722366333,4.417302131652832,-13.328520774841309,112.213134765625,-500,-334.53369140625
14.129999900000001,-7.893682956695557,9.114726066589355,-25.134328842163086,12.0086669921875,-226.959228515625,-181.243896484375
14.149999900000001,-11.963826179504395,15.485696792602539,-33.7366943359375,68.878173828125,269.9127197265625,12.7716064453125
14.1699999,-15.198391914367676,20.489578247070312,-37.60811996459961,3.997802734375,405.4718017578125,244.8883056640625
14.1899999,-16.685192108154297,22.754493713378906,-36.20751190185547,-79.925537109375,376.251220703125,376.52587890625
14.209999900000001,-14.987702369689941,21.710620880126953,-30.55240821838379,-55.450439453125,460.1898193359375,383.392333984375
14.229999900000001,-10.668562889099121,18.243816375732422,-22.555774688720703,-12.5885009765625,499.9847412109375,337.371826171875
14.2499999,-5.427655220031738,14.104242324829102,-13.9462251663208,39.24560546875,499.9847412109375,309.2041015625
14.2699999,-0.8236053586006165,10.469843864440918,-6.009446144104004,99.090576171875,499.9847412109375,291.6107177734375
14.289999900000002,1.941697597503662,7.893682956695557,0.9911994934082031,184.600830078125,499.9847412109375,257.6446533203125
14.309999900000001,2.4468741416931152,6.368576526641846,7.29034423828125,234.3292236328125,499.9847412109375,177.9022216796875
14.3299999,1.0199298858642578,4.824316501617432,14.724340438842773,-33.7677001953125,499.9847412109375,63.9190673828125
14.3499999,-1.3311761617660522,2.5282769203186035,23.010671615600586,-447.0672607421875,85.1287841796875,-138.85498046875
14.3699999,-3.6391866207122803,-0.6153098344802856,31.184476852416992,-329.2999267578125,-350.3265380859375,-213.9434814453125
14.389999900000001,-5.293580055236816,-4.402936935424805,36.30088806152344,88.043212890625,-458.5418701171875,-191.6046142578125
14.4099999,-5.889736175537109,-7.46033239364624,36.308067321777344,94.17724609375,-500,-201.5533447265625
14.4299999,-6.495469093322754,-8.834604263305664,30.650569915771484,-63.5223388671875,-500,-245.513916015625
14.4499999,-7.223306655883789,-8.489839553833008,21.55499839782715,-22.64404296875,-500,-309.3109130859375
14.469999900000001,-8.303091049194336,-7.2137298583984375,11.628637313842773,78.5675048828125,-500,-327.667236328125
14.4899999,-9.828198432922363,-5.918466567993164,2.609679937362671,135.2081298828125,-500,-352.020263671875
14.5099999,-11.525687217712402,-5.166687488555908,-5.037400245666504,190.7958984375,-500,-408.02001953125
14.5299999,-13.24472427368164,-4.49870491027832,-11.57357120513916,259.6282958984375,-446.9757080078125,-471.3287353515625
14.549999900000001,-14.721946716308594,-3.224989652633667,-17.640478134155273,231.0028076171875,-322.5860595703125,-452.545166015625
14.569999900000001,-16.031574249267578,-0.7972691655158997,-22.709003448486328,54.2144775390625,-129.913330078125,-271.0418701171875
14.5899999,-16.747440338134766,2.2649147510528564,-26.142288208007812,-142.486572265625,8.9874267578125,-76.934814453125
14.6099999,-17.171215057373047,5.671864032745361,-27.193342208862305,-189.117431640625,73.2879638671875,12.9241943359375
14.629999900000001,-16.82884407043457,8.281543731689453,-25.725696563720703,-126.251220703125,196.35009765625,138.24462890625
14.649999900000001,-15.543157577514648,10.077195167541504,-22.59647560119629,-52.55126953125,357.5286865234375,271.8353271484375
14.6699999,-13.053187370300293,11.128249168395996,-18.739416122436523,-36.865234375,456.2225341796875,340.4083251953125
14.6899999,-9.30386734008789,11.379640579223633,-14.810531616210938,-63.934326171875,499.9847412109375,368.8812255859375
14.709999900000001,-4.577713489532471,11.109095573425293,-10.939107894897461,-35.4461669921875,499.9847412109375,345.9320068359375
14.729999900000001,0.12449848651885986,10.520122528076172,-6.995857238769531,64.0716552734375,499.9847412109375,287.6434326171875
14.7499999,3.823540210723877,9.775525093078613,-2.691082715988159,173.64501953125,499.9847412109375,234.344482421875
14.7699999,5.331887245178223,9.150638580322266,2.279279947280884,182.5714111328125,499.9847412109375,177.6580810546875
14.789999900000002,4.357447147369385,7.884106159210205,9.066842079162598,-125.4730224609375,499.9847412109375,76.1260986328125
14.809999900000001,1.9728221893310547,5.616796970367432,17.50161361694336,-427.2308349609375,217.9412841796875,-46.56982421875
14.8299999,-0.9026140570640564,2.6001031398773193,26.19017219543457,-254.69970703125,-175.72021484375,-98.8311767578125
14.8499999,-2.9257144927978516,-1.0414776802062988,32.18046569824219,101.226806640625,-350.494384765625,-58.135986328125
14.8699999,-3.971980571746826,-3.9264907836914062,33.40629577636719,153.80859375,-498.3062744140625,-68.1610107421875
14.889999900000001,-4.4723687171936035,-5.805939197540283,28.416780471801758,-19.8974609375,-500,-148.92578125
14.9099999,-4.967968463897705,-6.208165168762207,18.4688720703125,-37.353515625,-500,-243.804931640625
14.9299999,-5.894524574279785,-5.1810526847839355,6.67982292175293,58.441162109375,-500,-338.1805419921875
14.9499999,-6.864176273345947,-2.913743495941162,-5.683835029602051,60.272216796875,-500,-382.843017578125
14.969999900000001,-7.587224960327148,0.14604631066322327,-15.3947172164917,-61.5997314453125,-500,-264.5263671875
14.9899999,-7.68538761138916,3.0190882682800293,-22.134395599365234,3.35693359375,-270.3704833984375,-116.5924072265625
15.0099999,-7.062894821166992,5.374982833862305,-25.129541397094727,49.5452880859375,2.4871826171875,-31.219482421875
15.0299999,-5.846640586853027,6.845022678375244,-24.586057662963867,-77.301025390625,60.333251953125,3.4942626953125
15.049999900000001,-4.144362926483154,7.718906402587891,-21.32515525817871,-200.5157470703125,90.8966064453125,24.9786376953125
15.069999900000001,-2.0015525817871094,8.391676902770996,-16.28536033630371,-174.4232177734375,166.6717529296875,60.6231689453125
15.0899999,0.5123591423034668,8.712499618530273,-10.333374977111816,-86.9140625,270.3704833984375,125.54931640625
15.1099999,2.8610711097717285,8.62630844116211,-4.8051629066467285,7.4920654296875,386.0321044921875,207.51953125
15.129999900000001,4.393360137939453,8.580819129943848,-0.828393816947937,66.1773681640625,360.5804443359375,244.8272705078125
15.149999900000001,4.436455726623535,7.546523571014404,3.294421434402466,193.2525634765625,329.04052734375,187.774658203125
15.1699999,2.6144683361053467,7.304709434509277,5.073313236236572,464.6148681640625,499.9847412109375,135.7269287109375
15.1899999,0.2537853717803955,6.8378400802612305,7.524975776672363,257.5531005859375,499.9847412109375,137.7410888671875
15.209999900000001,-1.6496049165725708,6.4834980964660645,8.676587104797363,-92.4835205078125,191.5740966796875,205.1544189453125
15.229999900000001,-1.5322890281677246,6.035782337188721,8.973467826843262,-219.9859619140625,-149.47509765625,232.5439453125
15.2499999,0.7852981686592102,4.900930881500244,7.869740962982178,-119.9798583984375,-228.973388671875,238.9984130859375
15.2699999,5.135562419891357,2.8155810832977295,4.414907932281494,3.5552978515625,-231.7352294921875,250.946044921875
15.289999900000002,10.493785858154297,1.091755986213684,-1.0821791887283325,-45.41015625,-195.3582763671875,194.9615478515625
15.309999900000001,15.416264533996582,0.1364694982767105,-7.922413349151611,-132.781982421875,-29.327392578125,108.642578125
15.3299999,19.297266006469727,0.4165911078453064,-14.211980819702148,-74.5697021484375,203.582763671875,93.841552734375
15.3499999,20.8894100189209,2.27209734916687,-18.126501083374023,-26.2298583984375,334.3048095703125,87.5701904296875
15.3699999,20.29085922241211,4.697423934936523,-18.4688720703125,-103.9886474609375,346.3134765625,52.398681640625
15.389999900000001,18.40422821044922,7.050923824310303,-15.397110939025879,-151.18408203125,337.7532958984375,83.5723876953125
15.4099999,15.816096305847168,8.7484130859375,-9.648633003234863,-132.049560546875,344.6044921875,91.5374755859375
15.4299999,13.397953033447266,9.35893440246582,-2.293645143508911,-134.2315673828125,328.7506103515625,64.2242431640625
15.4499999,11.3269681930542,8.916007041931152,5.4252610206604,-240.8294677734375,197.479248046875,17.974853515625
15.469999900000001,9.169792175292969,7.778761386871338,12.401965141296387,-298.40087890625,29.6478271484375,-27.923583984375
15.4899999,6.938396453857422,6.19379997253418,17.55189323425293,-116.5618896484375,30.4107666015625,56.6558837890625
15.5099999,4.383783340454102,4.010287761688232,20.329166412353516,48.492431640625,62.5762939453125,193.817138671875
15.5299999,2.073378562927246,1.2952631711959839,20.867862701416016,12.02392578125,-38.0859375,242.0806884765625
15.549999900000001,0.033518824726343155,-1.9560627937316895,19.215862274169922,-3.9215087890625,-83.55712890625,138.12255859375
15.569999900000001,-1.5131354331970215,-5.556941986083984,17.044321060180664,-21.1181640625,-51.5899658203125,18.2952880859375
15.5899999,-2.4133553504943848,-8.791508674621582,14.58308219909668,-0.7171630859375,-34.7747802734375,11.5814208984375
15.6099999,-3.028665065765381,-11.659762382507324,12.708422660827637,5.55419921875,-94.696044921875,13.6260986328125
15.629999900000001,-2.58813214302063,-13.785813331604004,11.3269681930542,-35.0799560546875,-264.6636962890625,13.092041015625
15.649999900000001,-1.5107412338256836,-14.961366653442383,9.959878921508789,-43.212890625,-347.686767578125,-15.4571533203125
15.6699999,0.2298433631658554,-15.0355863571167,8.42040729522705,-45.8221435546875,-308.4564208984375,-38.87939453125
15.6899999,2.1475989818573,-14.123395919799805,6.538564682006836,-36.62109375,-286.7431640625,-35.46142578125
15.709999900000001,3.821146011352539,-12.701239585876465,4.0294413566589355,56.2591552734375,-266.693115234375,-42.96875
15.729999900000001,5.128379821777344,-11.21444034576416,1.556231141090393,97.8851318359375,-201.629638671875,-59.02099609375
15.7499999,5.832275390625,-9.945513725280762,-0.6703764796257019,78.8726806640625,-137.7410888671875,-76.995849609375
15.7699999,6.045359134674072,-8.918401718139648,-2.3104045391082764,85.3271484375,-131.8206787109375,-75.836181640625
15.789999900000002,5.628767967224121,-8.044517517089844,-3.246537446975708,111.663818359375,-150.7720947265625,-70.7244873046875
15.809999900000001,5.006275653839111,-7.362170219421387,-3.799597978591919,117.85888671875,-143.12744140625,-73.272705078125
15.8299999,4.347870349884033,-6.806715488433838,-4.2951979637146,88.5009765625,-117.950439453125,-75.6988525390625
15.8499999,3.8786067962646484,-6.36378812789917,-4.747702121734619,74.6307373046875,-107.177734375,-70.5108642578125
15.869999900000002,3.648763418197632,-5.944802761077881,-5.044582843780518,110.0616455078125,-95.001220703125,-56.82373046875
15.889999900000001,3.6798880100250244,-5.549759387969971,-5.145139217376709,120.9716796875,-76.7669677734375,-53.070068359375
15.9099999,3.998316764831543,-5.331887245178223,-5.099649429321289,93.20068359375,-69.7784423828125,-53.558349609375
15.9299999,4.4508209228515625,-5.257667064666748,-4.970362663269043,102.5848388671875,-52.490234375,-49.835205078125
15.9499999,4.982333660125732,-5.3127336502075195,-4.7189717292785645,130.4473876953125,-38.787841796875,-42.1905517578125
15.969999900000001,5.47075080871582,-5.449203014373779,-4.343081951141357,127.0904541015625,-54.779052734375,-41.3818359375
15.9899999,5.901707172393799,-5.556941986083984,-4.022258758544922,97.412109375,-82.3516845703125,-52.5360107421875
16.0099999,6.31829833984375,-5.614402770996094,-3.88818359375,86.212158203125,-91.1102294921875,-53.070068359375
16.0299999,6.694188117980957,-5.5545477867126465,-4.072536945343018,120.147705078125,-53.7567138671875,-45.5322265625
16.0499999,7.070077419281006,-5.549759387969971,-4.513070106506348,113.6932373046875,-50.2166748046875,-48.065185546875
16.0699999,7.321468830108643,-5.5976433753967285,-5.195417881011963,46.0052490234375,-102.935791015625,-74.8138427734375
16.089999900000002,7.436390399932861,-5.595249176025391,-5.8442463874816895,-13.4735107421875,-116.2872314453125,-96.343994140625
16.109999900000002,7.316680431365967,-5.453991413116455,-6.315904140472412,-34.0118408203125,-97.991943359375,-95.5047607421875
16.1299999,7.01979923248291,-4.9368438720703125,-6.687005519866943,-24.658203125,-91.8426513671875,-80.474853515625
16.1499999,6.653486728668213,-4.055777549743652,-7.208941459655762,-25.8636474609375,-89.5233154296875,-77.728271484375
16.1699999,6.370970726013184,-2.853888511657715,-8.042123794555664,-43.5333251953125,-65.0482177734375,-95.9930419921875
16.1899999,6.258443355560303,-1.4484920501708984,-9.277531623840332,-20.4010009765625,-27.2216796875,-117.6605224609375
16.2099999,6.110002517700195,0.181959331035614,-10.92953109741211,46.7987060546875,15.655517578125,-124.4659423828125
16.2299999,5.418078422546387,2.451662540435791,-13.965378761291504,150.8026123046875,43.8079833984375,-126.190185546875
16.249999900000002,4.501099109649658,4.247313976287842,-17.3795108795166,133.4686279296875,56.0455322265625,-158.233642578125
16.269999900000002,3.7445313930511475,5.702988624572754,-20.027496337890625,-164.5050048828125,30.4412841796875,-183.1207275390625
16.2899999,3.3734302520751953,6.0405707359313965,-21.07855224609375,-179.718017578125,138.2904052734375,-106.109619140625
16.3099999,3.931279182434082,5.322310447692871,-19.299659729003906,-79.4830322265625,362.48779296875,-8.6212158203125
16.3299999,4.817133903503418,4.371812343597412,-15.708357810974121,-87.860107421875,375,8.48388671875
16.3499999,5.760449409484863,3.3877954483032227,-11.611878395080566,-169.86083984375,302.18505859375,43.3349609375
16.3699999,6.708553314208984,2.5665841102600098,-7.661445617675781,-210.7391357421875,309.6771240234375,71.258544921875
16.3899999,7.668628215789795,1.9105730056762695,-3.8067808151245117,-194.6868896484375,371.0174560546875,60.0433349609375
16.4099999,8.631096839904785,1.3718775510787964,-0.16759411990642548,-154.1595458984375,388.0615234375,40.10009765625
16.429999900000002,9.394847869873047,1.1468225717544556,3.222595453262329,-157.684326171875,347.869873046875,31.2957763671875
16.4499999,9.751583099365234,1.259350061416626,6.145915985107422,-215.39306640625,237.030029296875,14.6026611328125
16.4699999,9.651026725769043,1.5945383310317993,8.56645393371582,-275.7415771484375,85.693359375,-27.7557373046875
16.4899999,9.148244857788086,2.0470423698425293,10.51054573059082,-262.725830078125,-13.4735107421875,-51.5899658203125
16.5099999,8.370129585266113,2.4899697303771973,11.942277908325195,-150.1312255859375,19.8822021484375,-2.105712890625
16.5299999,7.728483200073242,2.7054479122161865,12.54801082611084,-29.052734375,100.7232666015625,64.1021728515625
16.5499999,7.156269073486328,2.8155810832977295,12.373234748840332,-36.4227294921875,98.0072021484375,43.2891845703125
16.5699999,6.780379295349121,2.647987127304077,11.796232223510742,-132.26318359375,26.275634765625,-6.34765625
16.589999900000002,6.53377628326416,2.2625205516815186,11.262324333190918,-135.9100341796875,-46.356201171875,-13.18359375
16.609999900000002,6.253654956817627,1.7884687185287476,10.991780281066895,-60.3485107421875,-45.013427734375,19.256591796875
16.6299999,6.004657745361328,1.2832920551300049,10.900800704956055,-51.483154296875,-18.6767578125,29.296875
16.6499999,5.805939197540283,0.849941611289978,10.651803016662598,-97.2137451171875,-8.7127685546875,20.9503173828125
16.6699999,5.681440830230713,0.4141969084739685,10.268731117248535,-103.82080078125,-23.6358642578125,31.73828125
16.6899999,5.578489780426025,0.040701430290937424,9.880870819091797,-26.30615234375,15.167236328125,43.304443359375
16.7099999,5.432443618774414,-0.363918662071228,9.677363395690918,31.2042236328125,54.0924072265625,34.271240234375
16.7299999,5.202600479125977,-0.7589619159698486,9.560047149658203,2.86865234375,16.6168212890625,22.5372314453125
16.749999900000002,5.056553840637207,-1.2186486721038818,9.464279174804688,-46.9818115234375,-36.956787109375,30.059814453125
16.769999900000002,4.965574264526367,-1.625662922859192,9.167398452758789,-49.4384765625,-59.9365234375,29.60205078125
16.7899999,5.015852451324463,-2.006340980529785,8.69095230102539,-47.9888916015625,-72.7386474609375,19.8974609375
16.8099999,5.178658485412598,-2.3558945655822754,7.965508937835693,-69.915771484375,-97.381591796875,18.1732177734375
16.8299999,5.389348030090332,-2.765302896499634,7.0988078117370605,-73.394775390625,-109.1156005859375,21.8658447265625
16.8499999,5.688623428344727,-3.3854012489318848,6.356605529785156,-66.5435791015625,-96.8475341796875,25.3753662109375
16.8699999,6.069301128387451,-4.168305397033691,5.868188381195068,-62.835693359375,-86.639404296875,15.5029296875
16.8899999,6.514622688293457,-5.056553840637207,5.760449409484863,-62.3626708984375,-97.3052978515625,-0.8392333984375
16.9099999,6.976703643798828,-5.817910194396973,5.9088897705078125,-45.3033447265625,-105.3314208984375,-10.3912353515625
16.929999900000002,7.378929615020752,-6.356605529785156,6.145915985107422,-13.48876953125,-90.3167724609375,-12.3291015625
16.9499999,7.570465564727783,-6.543353080749512,6.256049156188965,12.2528076171875,-73.028564453125,-22.8424072265625
16.9699999,7.522581577301025,-6.3949127197265625,6.2416839599609375,12.4359130859375,-87.2650146484375,-34.85107421875
16.9899999,7.240066051483154,-6.102819919586182,6.081272125244141,24.627685546875,-101.898193359375,-32.4554443359375
17.0099999,6.876147270202637,-5.791574001312256,5.9088897705078125,39.520263671875,-120.78857421875,-27.099609375
17.0299999,6.50025749206543,-5.609614372253418,5.664681434631348,45.989990234375,-139.8468017578125,-38.2080078125
17.0499999,6.277596950531006,-5.621585369110107,5.413290023803711,50.59814453125,-143.341064453125,-40.008544921875
17.0699999,6.107608318328857,-5.748478412628174,5.058948040008545,67.901611328125,-155.4107666015625,-28.99169921875
17.089999900000002,6.1315507888793945,-6.04775333404541,4.49870491027832,100.03662109375,-168.2281494140625,-21.209716796875
17.109999900000002,6.497863292694092,-6.550535678863525,3.6511576175689697,124.5574951171875,-146.5911865234375,-21.78955078125
17.1299999,7.041347026824951,-7.122750282287598,2.5498247146606445,148.6358642578125,-95.1080322265625,-35.736083984375
17.1499999,7.6111674308776855,-7.548917770385742,1.3670891523361206,174.3011474609375,-47.7294921875,-46.1883544921875
17.1699999,7.9176249504089355,-7.73087739944458,0.40462008118629456,180.1300048828125,-38.299560546875,-37.29248046875
17.1899999,7.795520782470703,-7.673416614532471,-0.2059013396501541,177.18505859375,-53.2073974609375,-26.8402099609375
17.2099999,7.283161640167236,-7.5632829666137695,-0.4836287498474121,181.7626953125,-57.7850341796875,-26.1688232421875
17.2299999,6.572083473205566,-7.5632829666137695,-0.5386953949928284,190.032958984375,-48.9959716796875,-26.0162353515625
17.249999900000002,5.770026206970215,-7.680599212646484,-0.49799394607543945,186.2640380859375,-63.568115234375,-18.7225341796875
17.269999900000002,5.023035049438477,-7.94635534286499,-0.5051765441894531,189.8651123046875,-78.826904296875,-2.3040771484375
17.2899999,4.4939165115356445,-8.403648376464844,-0.5386953949928284,192.6727294921875,-84.8388671875,7.6446533203125
17.3099999,4.168305397033691,-9.064447402954102,-0.7781155705451965,197.6165771484375,-110.992431640625,0.6256103515625
17.3299999,4.084507942199707,-9.95748519897461,-1.3263877630233765,217.6055908203125,-117.61474609375,-1.3275146484375
17.3499999,4.14915132522583,-10.81460952758789,-2.1308395862579346,219.970703125,-94.085693359375,0.30517578125
17.3699999,4.369418144226074,-11.432312965393066,-3.3039982318878174,203.06396484375,-91.5985107421875,-11.6729736328125
17.3899999,4.754884719848633,-11.724405288696289,-4.522646903991699,169.403076171875,-105.3924560546875,-24.2462158203125
17.409999900000003,5.257667064666748,-11.57596492767334,-5.722142219543457,152.496337890625,-110.0921630859375,-28.7933349609375
17.429999900000002,5.8873419761657715,-11.154585838317871,-6.926425457000732,169.158935546875,-89.3707275390625,-16.1895751953125
17.4499999,6.445190906524658,-10.285490036010742,-8.190564155578613,146.636962890625,-76.3092041015625,-27.3895263671875
17.4699999,7.084442615509033,-9.14345645904541,-9.457097053527832,61.2640380859375,-81.5887451171875,-24.444580078125
17.4899999,7.728483200073242,-7.671022415161133,-10.6709566116333,-31.951904296875,-99.6856689453125,-18.6767578125
17.5099999,8.427590370178223,-6.076483726501465,-11.501745223999023,-78.765869140625,-93.4906005859375,-23.98681640625
17.5299999,9.208099365234375,-4.522646903991699,-11.954249382019043,-31.707763671875,-34.423828125,-29.1748046875
17.5499999,9.66539192199707,-3.021482467651367,-12.306197166442871,35.858154296875,30.0750732421875,-70.1904296875
17.5699999,9.53849983215332,-1.4269442558288574,-13.093889236450195,22.4456787109375,59.99755859375,-128.1280517578125
17.589999900000002,8.916007041931152,-0.21547815203666687,-13.33809757232666,-88.9892578125,56.9305419921875,-140.1519775390625
17.609999900000002,7.903259754180908,0.5817909836769104,-13.266271591186523,-71.0906982421875,61.3555908203125,-97.5494384765625
17.6299999,7.062894821166992,0.8475474119186401,-12.30859088897705,1.0986328125,110.3668212890625,-64.697265625
17.6499999,6.50025749206543,0.7326257228851318,-10.47702693939209,-46.3104248046875,164.459228515625,-90.6524658203125
17.6699999,6.581660270690918,0.5147533416748047,-8.406042098999023,-150.1922607421875,150.8636474609375,-34.1949462890625
17.6899999,7.223306655883789,0.3064578175544739,-6.27280855178833,-232.4066162109375,120.9869384765625,60.85205078125
17.7099999,8.293514251708984,0.0933738648891449,-4.177882194519043,-233.7646484375,107.0404052734375,57.6171875
17.7299999,9.655815124511719,-0.1412578970193863,-2.4229321479797363,-193.0084228515625,136.2152099609375,24.0631103515625
17.749999900000002,10.99656867980957,-0.2992752194404602,-0.9050082564353943,-194.3817138671875,180.450439453125,34.0728759765625
17.769999900000002,12.016498565673828,-0.24181437492370605,0.07422025501728058,-223.4954833984375,144.8974609375,31.646728515625
17.7899999,12.6365966796875,-0.11971008777618408,0.9648633003234863,-262.51220703125,108.489990234375,11.53564453125
17.8099999,12.825738906860352,0.05506663769483566,1.7262194156646729,-242.49267578125,108.917236328125,10.8489990234375
17.8299999,12.593501091003418,0.26336219906806946,2.494758129119873,-185.8367919921875,128.0670166015625,-15.960693359375
17.8499999,12.030863761901855,0.5051765441894531,3.3925838470458984,-172.393798828125,141.0675048828125,-34.698486328125
17.8699999,11.293449401855469,0.8906430602073669,4.331110954284668,-168.9300537109375,133.148193359375,-22.3388671875
17.8899999,10.556035041809082,1.3742717504501343,5.193023681640625,-131.9732666015625,99.79248046875,-20.5841064453125
17.909999900000003,9.90241813659668,1.8387469053268433,5.882553577423096,-109.3597412109375,48.736572265625,-21.7742919921875
17.929999900000002,9.404424667358398,2.166752576828003,6.260837554931641,-104.522705078125,31.585693359375,-14.434814453125
17.9499999,9.071630477905273,2.2361843585968018,6.574477672576904,-86.5631103515625,83.3282470703125,-12.725830078125
17.9699999,8.80587387084961,2.0614075660705566,7.091625213623047,-77.8656005859375,115.78369140625,-23.284912109375
17.9899999,8.53293514251709,1.745373010635376,7.848193168640137,-89.2333984375,70.7855224609375,-17.8070068359375
18.0099999,8.238448143005371,1.400607943534851,8.621520042419434,-84.3353271484375,9.9029541015625,15.6402587890625
18.0299999,8.015787124633789,0.9481038451194763,9.208099365234375,-51.910400390625,23.712158203125,35.8734130859375
18.0499999,7.714118003845215,0.5770025849342346,9.375694274902344,6.072998046875,95.8709716796875,19.5465087890625
18.0699999,7.46033239364624,0.1628057211637497,9.296685218811035,13.763427734375,104.034423828125,15.960693359375
18.089999900000002,7.070077419281006,-0.1843535304069519,9.124302864074707,-14.8773193359375,45.684814453125,39.6270751953125
18.109999900000002,6.605602264404297,-0.47644615173339844,9.004592895507812,-19.683837890625,10.498046875,55.2978515625
18.1299999,6.145915985107422,-0.790086567401886,8.949525833129883,-16.4947509765625,-1.007080078125,49.6368408203125
18.1499999,5.760449409484863,-1.1803414821624756,8.913613319396973,-32.318115234375,-39.97802734375,42.236328125
18.1699999,5.48272180557251,-1.6974890232086182,8.83699893951416,-47.2412109375,-81.6497802734375,46.722412109375
18.1899999,5.413290023803711,-2.3774423599243164,8.588001251220703,-51.81884765625,-112.48779296875,50.445556640625
18.2099999,5.56173038482666,-3.222595453262329,8.157045364379883,-57.037353515625,-128.5247802734375,48.15673828125
18.2299999,5.92325496673584,-4.106055736541748,7.594407558441162,-46.9512939453125,-122.3297119140625,39.0472412109375
18.249999900000002,6.36378812789917,-4.920084476470947,6.950367450714111,-17.120361328125,-108.8409423828125,22.5982666015625
18.269999900000002,6.821080684661865,-5.552153587341309,6.368576526641846,0.0762939453125,-107.269287109375,19.622802734375
18.2899999,7.168240070343018,-5.9735331535339355,5.851428985595703,3.41796875,-115.203857421875,13.48876953125
18.3099999,7.438784599304199,-6.256049156188965,5.374982833862305,10.223388671875,-118.83544921875,4.82177734375
18.3299999,7.580042362213135,-6.3733649253845215,4.867412090301514,25.665283203125,-115.8905029296875,-1.434326171875
18.3499999,7.594407558441162,-6.342240333557129,4.259284973144531,41.8548583984375,-109.344482421875,-10.7574462890625
18.3699999,7.534552574157715,-6.205770969390869,3.5936968326568604,38.8031005859375,-112.2283935546875,-13.18359375
18.3899999,7.4100542068481445,-5.963956356048584,2.9496564865112305,36.1480712890625,-113.616943359375,-14.892578125
18.409999900000003,7.304709434509277,-5.743690013885498,2.5282769203186035,44.6319580078125,-102.935791015625,-21.6064453125
18.429999900000002,7.287950038909912,-5.66228723526001,2.367865562438965,50.628662109375,-107.3150634765625,-18.00537109375
18.4499999,7.230489253997803,-5.659893035888672,2.2673089504241943,69.4122314453125,-127.349853515625,-20.0958251953125
18.4699999,7.151480674743652,-5.750872611999512,2.0638017654418945,84.4879150390625,-132.965087890625,-32.6385498046875
18.4899999,7.110779285430908,-5.916072368621826,1.644816517829895,83.5418701171875,-113.372802734375,-37.65869140625
18.5099999,7.113173484802246,-6.117185115814209,1.2114660739898682,90.118408203125,-75.775146484375,-36.1785888671875
18.5299999,7.2352776527404785,-6.445190906524658,0.9959878921508789,107.421875,-56.09130859375,-41.56494140625
18.5499999,7.383718013763428,-6.842628479003906,0.9983820915222168,135.25390625,-58.04443359375,-50.35400390625
18.5699999,7.433996200561523,-7.173028469085693,1.0893617868423462,156.8756103515625,-51.8035888671875,-47.36328125
18.589999900000002,7.295132637023926,-7.343016624450684,0.9600749015808105,162.841796875,-57.18994140625,-32.012939453125
18.609999900000002,7.003039836883545,-7.299921035766602,0.42856210470199585,159.2864990234375,-80.230712890625,-14.3280029296875
18.6299999,6.696582317352295,-7.108384609222412,-0.45010992884635925,158.3404541015625,-67.6422119140625,5.096435546875
18.6499999,6.478709697723389,-6.897695064544678,-1.5083470344543457,153.411865234375,-47.9278564453125,10.6964111328125
18.6699999,6.3733649253845215,-6.691793918609619,-2.5737667083740234,142.15087890625,-49.9114990234375,1.9073486328125
18.6899999,6.4834980964660645,-6.62236213684082,-3.4380736351013184,130.3558349609375,-52.6885986328125,8.9874267578125
18.7099999,6.6846113204956055,-6.586448669433594,-4.005499362945557,125.1373291015625,-34.820556640625,7.568359375
18.7299999,6.967126846313477,-6.593631267547607,-4.2951979637146,114.410400390625,-33.3709716796875,0.732421875
18.749999900000002,7.287950038909912,-6.646304130554199,-4.311957359313965,95.4437255859375,-53.8787841796875,2.5482177734375
18.769999900000002,7.462726593017578,-6.572083473205566,-4.1611223220825195,101.4862060546875,-39.4439697265625,-6.561279296875
18.7899999,7.592013359069824,-6.421248912811279,-3.890577793121338,106.8267822265625,-15.4266357421875,-13.1378173828125
18.8099999,7.654263019561768,-6.224924564361572,-3.555389642715454,88.348388671875,-23.62060546875,-7.5225830078125
18.8299999,7.73087739944458,-6.007051944732666,-3.2297780513763428,87.5701904296875,-33.3709716796875,-3.448486328125
18.8499999,7.841010570526123,-5.825092792510986,-2.9281086921691895,91.4306640625,-29.052734375,-3.5247802734375
18.8699999,8.001421928405762,-5.676652431488037,-2.7006595134735107,82.2906494140625,-29.2205810546875,-8.4075927734375
18.8899999,8.169015884399414,-5.521028995513916,-2.4851813316345215,61.2640380859375,-38.2843017578125,-8.60595703125
18.909999900000003,8.286332130432129,-5.305551052093506,-2.38462495803833,46.630859375,-66.7266845703125,-4.5928955078125
18.929999900000002,8.446743965148926,-5.147533416748047,-2.365471363067627,48.9044189453125,-79.254150390625,5.2642822265625
18.9499999,8.614337921142578,-4.977545261383057,-2.628833532333374,53.52783203125,-62.6373291015625,2.838134765625
18.9699999,8.801085472106934,-4.920084476470947,-3.0789434909820557,42.4041748046875,-44.5709228515625,-5.55419921875
18.9899999,8.951920509338379,-4.876988887786865,-3.711012601852417,34.3475341796875,-31.646728515625,-6.8817138671875
19.0099999,8.96149730682373,-4.800374507904053,-4.350264549255371,22.8271484375,-32.9132080078125,-12.481689453125
19.0299999,8.846575736999512,-4.692635536193848,-4.888959884643555,3.6773681640625,-43.548583984375,-13.641357421875
19.0499999,8.611943244934082,-4.508281707763672,-5.216965675354004,-6.256103515625,-26.2603759765625,-17.3797607421875
19.0699999,8.315062522888184,-4.213795185089111,-5.372588634490967,-17.8985595703125,-15.9912109375,-22.003173828125
19.089999900000002,8.058882713317871,-3.861847400665283,-5.293580055236816,-30.853271484375,-23.3917236328125,-17.5323486328125
19.109999900000002,7.824251174926758,-3.442862033843994,-5.051765441894531,-30.670166015625,-28.7017822265625,-17.6239013671875
19.1299999,7.615955829620361,-2.999934673309326,-4.6471452713012695,-14.83154296875,-33.477783203125,-29.4342041015625
19.1499999,7.445967197418213,-2.559401512145996,-4.151545524597168,-5.9356689453125,-66.1773681640625,-39.9932861328125
19.1699999,7.383718013763428,-2.2361843585968018,-3.7205893993377686,-6.0882568359375,-112.0452880859375,-41.9158935546875
19.1899999,7.376535415649414,-2.0207061767578125,-3.646369218826294,-0.5645751953125,-121.826171875,-59.6160888671875
19.2099999,7.560888767242432,-2.051830768585205,-3.890577793121338,0.823974609375,-78.0487060546875,-68.5272216796875
19.2299999,7.838616371154785,-2.3080103397369385,-4.477157115936279,-2.9144287109375,-65.24658203125,-78.06396484375
19.249999900000002,8.355764389038086,-2.693476915359497,-5.398924827575684,5.340576171875,-41.6107177734375,-55.1605224609375
19.269999900000002,8.829815864562988,-3.064578056335449,-6.3302693367004395,-31.3262939453125,-5.523681640625,-66.3299560546875
19.2899999,9.210494041442871,-3.3446998596191406,-6.998251438140869,-82.672119140625,13.671875,-70.12939453125
19.3099999,9.440337181091309,-3.4093432426452637,-7.3669586181640625,-82.611083984375,17.76123046875,-38.543701171875
19.3299999,9.452308654785156,-3.3686418533325195,-7.311892032623291,-60.5010986328125,17.822265625,-15.0146484375
19.3499999,9.260771751403809,-3.1292216777801514,-7.0341644287109375,-76.324462890625,32.257080078125,-4.69970703125
19.3699999,8.99740982055664,-2.7557260990142822,-6.730101108551025,-118.682861328125,53.7261962890625,15.7470703125
19.3899999,8.621520042419434,-2.2026655673980713,-6.327875137329102,-135.6964111328125,85.5255126953125,32.6385498046875
19.409999900000003,8.2312650680542,-1.4437036514282227,-5.66228723526001,-133.7127685546875,105.804443359375,43.64013671875
19.429999900000002,8.073247909545898,-0.6416460275650024,-4.709394931793213,-150.3448486328125,70.343017578125,67.7642822265625
19.4499999,8.202534675598145,0.14844051003456116,-3.797203779220581,-170.0439453125,26.5960693359375,87.82958984375
19.4699999,8.51138687133789,0.8236053586006165,-3.138798475265503,-163.482666015625,59.6466064453125,73.7762451171875
19.4899999,8.856152534484863,1.2761094570159912,-2.896984100341797,-166.0919189453125,104.8583984375,70.526123046875
19.5099999,9.133879661560059,1.359906554222107,-2.8778305053710938,-189.178466796875,108.09326171875,89.2181396484375
19.5299999,9.38048267364502,1.094150185585022,-2.7988216876983643,-188.2476806640625,70.037841796875,76.3092041015625
19.5499999,9.744400978088379,0.5219359993934631,-2.58813214302063,-159.1949462890625,76.873779296875,54.6722412109375
19.5699999,10.29746150970459,-0.19632454216480255,-2.255337953567505,-126.861572265625,96.74072265625,35.736083984375
19.589999900000002,10.8720703125,-0.7709329724311829,-1.9776105880737305,-108.58154296875,101.715087890625,10.8795166015625
19.609999900000002,11.226411819458008,-1.0199298858642578,-1.8148049116134644,-110.870361328125,97.6409912109375,-4.913330078125
19.6299999,11.365275382995605,-0.9959878921508789,-1.6831238269805908,-129.150390625,76.72119140625,-1.7547607421875
19.6499999,11.401188850402832,-0.7781155705451965,-1.4508862495422363,-138.0462646484375,64.4683837890625,9.8114013671875
19.6699999,11.499350547790527,-0.5315127968788147,-1.0127472877502441,-120.17822265625,98.6480712890625,15.045166015625
19.6899999,11.688492774963379,-0.28730419278144836,-0.42616790533065796,-97.0306396484375,126.0986328125,-0.2593994140625
19.7099999,11.748347282409668,0.0071826050989329815,0.2106897532939911,-102.752685546875,94.329833984375,-30.792236328125
19.7299999,11.614272117614746,0.3471592366695404,0.6799532771110535,-113.128662109375,48.065185546875,-15.8538818359375
19.749999900000002,11.334151268005371,0.629675030708313,1.039083480834961,-110.53466796875,49.163818359375,18.3868408203125
19.769999900000002,10.967838287353516,0.7948749661445618,1.3503297567367554,-96.7254638671875,84.808349609375,10.650634765625
19.7899999,10.625467300415039,0.8259995579719543,1.7286136150360107,-76.59912109375,93.1243896484375,-13.6566162109375
19.8099999,10.273519515991211,0.7733271718025208,2.212242364883423,-63.3697509765625,54.9468994140625,-4.486083984375
19.8299999,9.916783332824707,0.6440402865409851,2.7317841053009033,-53.8330078125,24.566650390625,16.082763671875
19.8499999,9.622296333312988,0.4596867263317108,3.1747114658355713,-37.3382568359375,46.875,24.3988037109375
19.8699999,9.411606788635254,0.21547815203666687,3.557783842086792,-28.25927734375,78.0792236328125,13.946533203125
19.8899999,9.275136947631836,-0.031124621629714966,3.9384617805480957,-28.106689453125,65.5670166015625,8.1939697265625
19.909999900000003,9.08838939666748,-0.20111294090747833,4.256890773773193,-21.087646484375,30.2734375,16.265869140625
19.929999900000002,8.923190116882324,-0.3926490843296051,4.460397720336914,-7.4462890625,28.167724609375,29.4036865234375
19.9499999,8.774748802185059,-0.629675030708313,4.558559894561768,-16.17431640625,42.4346923828125,28.8238525390625
19.9699999,8.669404029846191,-0.950498104095459,4.575319290161133,-22.2930908203125,48.248291015625,21.54541015625
19.9899999,8.614337921142578,-1.3000515699386597,4.6471452713012695,-6.683349609375,43.701171875,25.1617431640625
