# Time (seconds),Accel_X,Accel_Y,Accel_Z,Gyro_X,Gyro_Y,Gyro_Z
0.0099999,1.6496049165725708,-6.730101108551025,-7.180211067199707,0.3814697265625,4.8065185546875,0.335693359375
0.029999900000000003,1.6519991159439087,-6.63433313369751,-7.0772600173950195,2.6397705078125,4.5928955078125,2.9754638671875
0.0499999,1.6424223184585571,-6.54574728012085,-6.852205276489258,1.861572265625,0.9918212890625,4.7149658203125
0.0699999,1.6160861253738403,-6.4380083084106445,-6.4380083084106445,-2.6702880859375,-2.50244140625,4.9285888671875
0.08999990000000001,1.5634137392044067,-6.440402507781982,-5.925649166107178,-4.9896240234375,-10.9405517578125,8.575439453125
0.10999990000000001,1.4772224426269531,-6.572083473205566,-5.324704647064209,-5.2490234375,-23.3917236328125,10.0250244140625
0.1299999,1.3718775510787964,-6.892906665802002,-4.8482584953308105,-3.9825439453125,-36.2091064453125,2.5177001953125
0.14999990000000002,1.2689268589019775,-7.252037048339844,-4.623203277587891,-8.148193359375,-47.119140625,-5.9051513671875
0.1699999,1.158793568611145,-7.726089000701904,-4.666299343109131,-9.552001953125,-48.5687255859375,-7.8125
0.1899999,0.9217676520347595,-8.736441612243652,-5.674258232116699,-17.4713134765625,-52.490234375,-22.6898193359375
0.20999990000000002,0.7829039692878723,-9.399636268615723,-6.423643112182617,-30.120849609375,-49.4384765625,-36.68212890625
0.2299999,0.6703764796257019,-9.988609313964844,-7.259219646453857,-32.135009765625,-44.6319580078125,-54.2144775390625
0.2499999,0.5937620401382446,-10.345345497131348,-7.9846625328063965,-27.7557373046875,-33.9202880859375,-69.2901611328125
0.2699999,0.5793967843055725,-10.261548042297363,-8.571242332458496,-20.1873779296875,-24.169921875,-79.498291015625
0.28999990000000003,0.5817909836769104,-9.832986831665039,-9.009381294250488,-20.355224609375,-22.1099853515625,-81.1920166015625
0.3099999,0.6057330369949341,-9.102754592895508,-9.277531623840332,-23.468017578125,-13.1988525390625,-85.205078125
0.3299999,0.6416460275650024,-8.312667846679688,-9.586383819580078,-23.4375,-4.5318603515625,-90.087890625
0.34999990000000003,0.6919242739677429,-7.508216381072998,-9.840168952941895,-21.697998046875,5.79833984375,-92.559814453125
0.3699999,0.7852981686592102,-6.780379295349121,-10.235212326049805,-22.2320556640625,10.894775390625,-90.728759765625
0.3899999,0.9193734526634216,-6.045359134674072,-10.630255699157715,-29.2510986328125,18.2647705078125,-89.4317626953125
0.40999990000000003,1.0893617868423462,-5.327098846435547,-11.068394660949707,-26.67236328125,33.8897705078125,-86.7767333984375
0.4299999,1.290474772453308,-4.58968448638916,-11.4849853515625,-22.216796875,46.051025390625,-79.376220703125
0.4499999,1.5179238319396973,-3.756502389907837,-11.760318756103516,-13.2598876953125,56.884765625,-71.4263916015625
0.4699999,1.7764976024627686,-2.875436305999756,-11.889605522155762,-4.3182373046875,67.108154296875,-59.9212646484375
0.4899999,2.056619167327881,-2.027888774871826,-11.779472351074219,-6.439208984375,80.780029296875,-44.8760986328125
0.5099999,2.343923568725586,-1.3838485479354858,-11.417947769165039,-6.805419921875,90.3167724609375,-30.5633544921875
0.5299999,2.6216509342193604,-0.9696516990661621,-10.733205795288086,-1.0833740234375,96.282958984375,-22.613525390625
0.5499999,2.8850131034851074,-0.7398083209991455,-9.732429504394531,3.1280517578125,96.8780517578125,-15.8843994140625
0.5699999,3.1507694721221924,-0.5386953949928284,-8.611943244934082,0.091552734375,91.97998046875,-2.5787353515625
0.5899998999999999,3.421314239501953,-0.3495534360408783,-7.448361396789551,-9.0179443359375,90.8966064453125,17.5323486328125
0.6099998999999999,3.689464807510376,-0.272938996553421,-6.45476770401001,-13.1683349609375,89.4317626953125,35.6597900390625
0.6299999,3.950432777404785,-0.44771572947502136,-5.631162166595459,-4.638671875,83.984375,46.7071533203125
0.6499999,4.1874589920043945,-0.8547300100326538,-5.082890033721924,4.2266845703125,72.93701171875,53.1005859375
0.6699999,4.37420654296875,-1.4221558570861816,-4.668693542480469,9.124755859375,71.1822509765625,61.0809326171875
0.6899999,4.49870491027832,-1.9369091987609863,-4.37420654296875,11.4288330078125,71.807861328125,68.267822265625
0.7099999,4.537012100219727,-2.4181437492370605,-4.0078935623168945,14.5416259765625,66.925048828125,77.63671875
0.7299998999999999,4.491522312164307,-2.873042106628418,-3.533841609954834,16.082763671875,51.5899658203125,85.2203369140625
0.7499998999999999,4.393360137939453,-3.397372245788574,-3.0789434909820557,11.871337890625,34.72900390625,89.202880859375
0.7699999,4.261679172515869,-4.050989151000977,-2.808398485183716,6.4697265625,25.421142578125,91.6595458984375
0.7899999,4.110844135284424,-4.788403511047363,-2.8347349166870117,3.662109375,20.2178955078125,91.9952392578125
0.8099999,3.9408559799194336,-5.5545477867126465,-3.1244332790374756,10.009765625,14.09912109375,89.9505615234375
0.8299999,3.7445313930511475,-6.277596950531006,-3.354276657104492,30.2734375,9.9029541015625,90.4541015625
0.8499998999999999,3.536235809326172,-6.742072105407715,-3.406949043273926,31.1279296875,0.6103515625,85.6475830078125
0.8699998999999999,3.313575267791748,-7.058106422424316,-3.3255462646484375,3.2958984375,-15.1519775390625,85.540771484375
0.8899999,3.07415509223938,-7.16584587097168,-3.0406360626220703,-11.04736328125,-24.1546630859375,90.301513671875
0.9099999,2.8179752826690674,-7.433996200561523,-2.889801502227783,16.05224609375,-32.6385498046875,97.7325439453125
0.9299999,2.5450363159179688,-7.671022415161133,-2.7988216876983643,30.7464599609375,-42.083740234375,90.2862548828125
0.9499999,2.250549554824829,-8.099584579467773,-2.8802247047424316,7.1868896484375,-49.8504638671875,83.6334228515625
0.9699998999999999,1.944091796875,-8.528146743774414,-3.0597896575927734,-13.214111328125,-57.098388671875,86.8682861328125
0.9899998999999999,1.6184803247451782,-9.193734169006348,-3.60566782951355,-10.31494140625,-65.49072265625,83.06884765625
1.0099999,1.314416766166687,-9.785101890563965,-4.137180328369141,-1.9073486328125,-58.3038330078125,58.8226318359375
1.0299999,1.0534487962722778,-10.32858657836914,-4.836287498474121,-4.547119140625,-54.8248291015625,36.590576171875
1.0499999,0.8427590131759644,-10.579977035522461,-5.281609058380127,-10.6658935546875,-56.854248046875,36.834716796875
1.0699999,0.6703764796257019,-10.438719749450684,-5.585672378540039,-2.105712890625,-62.652587890625,32.3944091796875
1.0899999,0.4908113479614258,-10.319009780883789,-5.698200225830078,-6.378173828125,-65.7196044921875,23.1170654296875
1.1099999,0.28969839215278625,-10.311826705932617,-5.880159378051758,-36.9720458984375,-69.03076171875,9.124755859375
1.1299999,0.12689268589019775,-10.575188636779785,-6.423643112182617,-47.18017578125,-77.056884765625,-0.762939453125
1.1499999,0.014365210197865963,-10.87446403503418,-7.029376029968262,-36.62109375,-56.671142578125,-12.3138427734375
1.1699998999999999,-0.040701430290937424,-11.113883972167969,-7.752425193786621,-26.123046875,-46.3409423828125,-22.9034423828125
1.1899998999999999,-0.05027823522686958,-11.006145477294922,-8.125920295715332,-24.4140625,-43.88427734375,-38.26904296875
1.2099999,-0.05985504388809204,-10.644620895385742,-8.14028549194336,-26.2451171875,-44.49462890625,-48.431396484375
1.2299999,-0.06703764945268631,-10.031704902648926,-7.82185697555542,-29.8919677734375,-43.6553955078125,-54.01611328125
1.2499999,-0.07182604819536209,-9.334992408752441,-7.47230339050293,-37.872314453125,-43.212890625,-61.2640380859375
1.2699999,-0.07422025501728058,-8.753201484680176,-7.295132637023926,-42.29736328125,-42.4346923828125,-65.12451171875
1.2899999,-0.0694318488240242,-8.334216117858887,-7.402871608734131,-42.17529296875,-37.1856689453125,-72.93701171875
1.3099999,-0.0454898327589035,-8.17380428314209,-7.86734676361084,-36.5142822265625,-28.86962890625,-79.071044921875
1.3299999,0,-8.188169479370117,-8.559270858764648,-31.3873291015625,-20.8892822265625,-86.2274169921875
1.3499999,0.08858546614646912,-8.255207061767578,-9.41639518737793,-27.496337890625,-11.993408203125,-96.1151123046875
1.3699999,0.22026655077934265,-8.214506149291992,-10.266336441040039,-26.4434814453125,1.1444091796875,-102.935791015625
1.3899999,0.3902548849582672,-8.051700592041016,-11.03248119354248,-25.4364013671875,16.2200927734375,-103.45458984375
1.4099999,0.5913678407669067,-7.6782050132751465,-11.580753326416016,-19.195556640625,31.6925048828125,-104.4769287109375
1.4299998999999999,0.8092401623725891,-7.161057472229004,-11.87763500213623,-14.373779296875,41.046142578125,-104.339599609375
1.4499999,1.036689281463623,-6.576871871948242,-11.892000198364258,-9.3231201171875,49.0570068359375,-101.6845703125
1.4699999,1.2497732639312744,-5.937620162963867,-11.683704376220703,-5.55419921875,60.089111328125,-96.282958984375
1.4899999,1.455674648284912,-5.238513469696045,-11.276689529418945,-5.1422119140625,70.0225830078125,-93.8720703125
1.5099999,1.6496049165725708,-4.69024133682251,-10.776301383972168,-8.5296630859375,75.2410888671875,-85.3271484375
1.5299999,1.8626888990402222,-4.156333923339844,-10.302249908447266,-7.01904296875,77.9876708984375,-79.8187255859375
1.5499999,2.1068975925445557,-3.7253777980804443,-9.770736694335938,0.2593994140625,86.8988037109375,-75.0732421875
1.5699999,2.403778553009033,-3.294421434402466,-9.284713745117188,2.471923828125,93.07861328125,-67.3828125
1.5899999,2.7485435009002686,-2.7485435009002686,-8.719682693481445,-0.0457763671875,95.5810546875,-58.41064453125
1.6099999,3.136404275894165,-2.1308395862579346,-8.152256965637207,-3.72314453125,95.3521728515625,-45.1507568359375
1.6299999,3.555389642715454,-1.5203180313110352,-7.5417351722717285,-12.87841796875,99.8992919921875,-29.3731689453125
1.6499999,3.9911341667175293,-1.0630255937576294,-7.005434036254883,-9.429931640625,100.7537841796875,-13.824462890625
1.6699999,4.412513732910156,-0.8212111592292786,-6.40927791595459,-4.4708251953125,100.311279296875,-1.9989013671875
1.6899998999999999,4.809951305389404,-0.7350199222564697,-5.803544998168945,-3.11279296875,96.4813232421875,5.9356689453125
1.7099999,5.494692802429199,-0.49320554733276367,-4.5394062995910645,-1.5106201171875,84.8846435546875,34.2864990234375
1.7299999,5.762843608856201,-0.3232172429561615,-3.9193081855773926,-4.2877197265625,82.21435546875,53.802490234375
1.7499999,5.9519853591918945,-0.2968810200691223,-3.3255462646484375,-8.85009765625,76.1566162109375,69.8089599609375
1.7699999,6.04775333404541,-0.4405331015586853,-2.6815059185028076,-6.4239501953125,65.73486328125,76.6448974609375
1.7899999,6.052541732788086,-0.7445967197418213,-2.0877439975738525,4.0435791015625,51.6204833984375,83.6944580078125
1.8099999,5.949591159820557,-1.0630255937576294,-1.6089035272598267,9.0789794921875,38.726806640625,96.5423583984375
1.8299999,5.743690013885498,-1.5682021379470825,-1.3958195447921753,4.852294921875,30.3192138671875,115.3106689453125
1.8499999,5.43723201751709,-2.360682964324951,-1.4245500564575195,-3.143310546875,24.71923828125,124.664306640625
1.8699999,5.063736438751221,-3.3303346633911133,-1.6112977266311646,-8.5906982421875,18.768310546875,118.9117431640625
1.8899999,4.63517427444458,-4.280832767486572,-1.8411411046981812,-7.6904296875,5.157470703125,121.5972900390625
1.9099999,4.173093795776367,-5.061342239379883,-2.0231003761291504,-6.77490234375,-6.9427490234375,143.4173583984375
1.9299998999999999,3.6750996112823486,-5.705382823944092,-2.2242133617401123,-0.6561279296875,-20.5230712890625,163.75732421875
1.9499999,3.138798475265503,-6.4595561027526855,-2.3367409706115723,-3.90625,-24.0020751953125,163.9862060546875
1.9699999,2.5929205417633057,-7.747636795043945,-2.4229321479797363,-17.5323486328125,-28.1829833984375,143.85986328125
1.9899999,2.1068975925445557,-8.789113998413086,-2.360682964324951,0.2593994140625,-41.7938232421875,103.0120849609375
2.0099999,1.699883222579956,-9.560047149658203,-2.4612393379211426,37.689208984375,-62.2711181640625,86.273193359375
2.0299999,1.3503297567367554,-9.950302124023438,-2.559401512145996,32.0281982421875,-63.17138671875,115.6768798828125
2.0499999,1.0462661981582642,-10.165780067443848,-3.004723072052002,-6.28662109375,-63.17138671875,123.35205078125
2.0699999,0.7445967197418213,-10.903194427490234,-3.488351821899414,-19.9127197265625,-64.910888671875,97.259521484375
2.0899999,0.4692635238170624,-11.365275382995605,-3.758896589279175,-0.823974609375,-62.408447265625,45.318603515625
2.1099999,0.2322375625371933,-11.60708999633789,-3.998316764831543,15.5181884765625,-77.8045654296875,39.825439453125
2.1299999,0.033518824726343155,-11.331756591796875,-4.206612586975098,-21.7437744140625,-85.2203369140625,66.192626953125
2.1499999,-0.14844051003456116,-10.852916717529297,-4.4532151222229,-47.393798828125,-74.4781494140625,68.084716796875
2.1699999,-0.30885201692581177,-10.572794914245605,-4.908113479614258,-36.68212890625,-71.10595703125,39.1693115234375
2.1899999,-0.45010992884635925,-10.467450141906738,-5.339069843292236,-23.3612060546875,-73.4100341796875,20.660400390625
2.2099999,-0.5817909836769104,-10.278307914733887,-5.686229228973389,-30.45654296875,-72.540283203125,18.829345703125
2.2299999,-0.7206547260284424,-10.043676376342773,-6.009446144104004,-47.607421875,-73.638916015625,20.294189453125
2.2499999,-0.8786720037460327,-9.86650562286377,-6.421248912811279,-50.4913330078125,-73.394775390625,8.392333984375
2.2699999,-1.0319008827209473,-9.840168952941895,-6.811503887176514,-37.4908447265625,-61.279296875,-7.293701171875
2.2899999,-1.1563993692398071,-9.830592155456543,-7.113173484802246,-33.721923828125,-44.00634765625,-16.0064697265625
2.3099999,-1.2282254695892334,-9.823410034179688,-7.350199222564697,-57.9681396484375,-46.8292236328125,-15.6402587890625
2.3299999,-1.278503656387329,-9.861717224121094,-7.407660007476807,-66.6046142578125,-44.219970703125,-21.9879150390625
2.3499999,-1.335964560508728,-10.046070098876953,-7.362170219421387,-51.7425537109375,-39.55078125,-40.3900146484375
2.3699999,-1.4221558570861816,-10.314221382141113,-7.271190643310547,-43.121337890625,-36.834716796875,-60.48583984375
2.3899999,-1.50355863571167,-10.467450141906738,-7.108384609222412,-50.35400390625,-38.4063720703125,-72.6165771484375
2.4099999,-1.5705963373184204,-10.450690269470215,-6.959944248199463,-58.65478515625,-38.482666015625,-77.850341796875
2.4299999,-1.5969325304031372,-10.196905136108398,-6.835445880889893,-51.5594482421875,-33.0657958984375,-87.9669189453125
2.4499999,-1.5753847360610962,-9.835380554199219,-6.811503887176514,-38.51318359375,-31.9061279296875,-101.409912109375
2.4699999,-1.5203180313110352,-9.306262016296387,-6.885724067687988,-42.6177978515625,-31.585693359375,-111.114501953125
2.4899999,-1.4389152526855469,-8.774748802185059,-7.115567684173584,-54.840087890625,-30.975341796875,-110.7330322265625
2.5099999,-1.3335703611373901,-8.343792915344238,-7.6351094245910645,-57.861328125,-25.421142578125,-112.6708984375
2.5299999,-1.213860273361206,-8.133103370666504,-8.44434928894043,-56.610107421875,-11.383056640625,-128.72314453125
2.5499999,-1.0606313943862915,-7.812280178070068,-9.394847869873047,-60.24169921875,8.4228515625,-151.1993408203125
2.5699999,-0.849941611289978,-7.307103633880615,-10.307038307189941,-56.3507080078125,18.61572265625,-151.7181396484375
2.5899999,-0.5913678407669067,-6.50025749206543,-11.200075149536133,-49.7894287109375,20.721435546875,-132.1868896484375
2.6099999,-0.29209262132644653,-5.499481201171875,-11.959037780761719,-42.3431396484375,32.8826904296875,-125.6866455078125
2.6299999,0.031124621629714966,-4.580107688903809,-12.627019882202148,-28.6407470703125,55.5877685546875,-127.4871826171875
2.6499999,0.3663128614425659,-3.804386615753174,-13.165715217590332,-16.2506103515625,69.39697265625,-121.1395263671875
2.6699999,0.7326257228851318,-3.0166940689086914,-13.35964584350586,-13.8702392578125,82.916259765625,-109.4207763671875
2.6899999,1.1204863786697388,-2.3750481605529785,-13.206416130065918,-11.383056640625,94.818115234375,-89.691162109375
2.7099999,1.522712230682373,-1.8339585065841675,-12.703634262084961,-8.9874267578125,107.5897216796875,-80.596923828125
2.7299999,1.9057846069335938,-1.4867992401123047,-11.925518989562988,-6.439208984375,117.340087890625,-74.40185546875
2.7499999,2.2840683460235596,-1.259350061416626,-10.893617630004883,-4.0740966796875,124.908447265625,-65.4754638671875
2.7699999,2.669534921646118,-1.0127472877502441,-9.667786598205566,-0.5035400390625,127.5634765625,-51.1322021484375
2.7899999,3.1004912853240967,-0.689530074596405,-8.334216117858887,3.2958984375,124.114990234375,-36.2396240234375
2.8099999,3.5865142345428467,-0.19632454216480255,-6.955155849456787,1.0833740234375,121.4752197265625,-22.003173828125
2.8299999,4.137180328369141,0.42856210470199585,-5.681440830230713,-5.79833984375,114.9749755859375,-2.7618408203125
2.8499999,4.709394931793213,1.072602391242981,-4.587290287017822,-11.16943359375,106.2164306640625,22.9644775390625
2.8699999,5.257667064666748,1.4987702369689941,-3.5697548389434814,-10.6964111328125,102.3712158203125,48.065185546875
2.8899999,5.729324817657471,1.4772224426269531,-2.8107926845550537,-8.7127685546875,86.0748291015625,63.5528564453125
2.9099999,6.088454723358154,1.0534487962722778,-2.205059766769409,-9.918212890625,70.831298828125,68.878173828125
2.9299999,6.31829833984375,0.33279404044151306,-1.889025092124939,-11.2457275390625,59.7686767578125,74.981689453125
2.9499999,6.3949127197265625,-0.38546648621559143,-1.886630892753601,-14.6484375,49.2706298828125,85.418701171875
2.9699999,6.320692539215088,-1.1324573755264282,-2.1284453868865967,-4.547119140625,43.27392578125,97.503662109375
2.9899999,6.121973514556885,-1.9704279899597168,-2.607285737991333,5.0811767578125,34.4696044921875,107.330322265625
3.0099999,5.846640586853027,-2.8107926845550537,-3.0597896575927734,0.18310546875,32.928466796875,102.60009765625
3.0299999,5.547365188598633,-3.6343982219696045,-3.404554843902588,2.2430419921875,27.6641845703125,101.3641357421875
3.0499999,5.252878665924072,-4.127603530883789,-3.4117374420166016,8.36181640625,18.2647705078125,105.65185546875
3.0699999,4.932055473327637,-4.242525577545166,-3.1316158771514893,17.39501953125,7.598876953125,114.68505859375
3.0899999,4.577713489532471,-4.5394062995910645,-2.827552318572998,12.6800537109375,-6.9427490234375,132.5225830078125
3.1099999,4.19224739074707,-4.946420669555664,-2.4468741416931152,4.608154296875,-8.1939697265625,127.6397705078125
3.1299999,3.794809579849243,-5.7556610107421875,-2.183511972427368,19.1192626953125,-16.6473388671875,113.3270263671875
3.1499999,3.4189200401306152,-6.452373504638672,-1.8794482946395874,33.050537109375,-29.9835205078125,106.1553955078125
3.1699999,3.0358476638793945,-6.9024834632873535,-1.6328455209732056,27.557373046875,-44.158935546875,114.56298828125
3.1899999,2.5977089405059814,-7.146692276000977,-1.4197616577148438,-3.7689208984375,-49.9114990234375,125.1983642578125
3.2099999,2.099714994430542,-7.534552574157715,-1.479616641998291,-22.6593017578125,-60.85205078125,122.4212646484375
3.2299999,1.0869675874710083,-8.971074104309082,-2.1954829692840576,29.1900634765625,-80.3680419921875,96.771240234375
3.2499999,0.6129156351089478,-9.533711433410645,-2.719813108444214,-6.072998046875,-83.19091796875,94.5892333984375
3.2699999,0.12210428714752197,-10.228029251098633,-3.318363666534424,-37.017822265625,-97.3968505859375,105.7281494140625
3.2899999,-0.3687070608139038,-10.81460952758789,-3.914519786834717,-17.425537109375,-103.515625,90.3167724609375
3.3099999,-0.8068459630012512,-11.496956825256348,-4.668693542480469,5.7830810546875,-109.1766357421875,58.258056640625
3.3299999000000002,-1.161187767982483,-11.906365394592285,-5.348646640777588,-11.04736328125,-98.5107421875,43.975830078125
3.3499999,-1.4389152526855469,-12.160150527954102,-6.009446144104004,-65.7806396484375,-96.8170166015625,47.821044921875
3.3699999,-1.6831238269805908,-12.351686477661133,-6.57926607131958,-97.2442626953125,-106.7352294921875,32.3028564453125
3.3899999,-1.8842366933822632,-12.607866287231445,-7.575253963470459,-62.5,-119.20166015625,-7.01904296875
3.4099999,-1.9919757843017578,-12.78503704071045,-8.315062522888184,-40.46630859375,-76.9805908203125,-33.14208984375
3.4299999,-1.9823989868164062,-12.741941452026367,-9.090784072875977,-35.1409912109375,-52.337646484375,-34.3017578125
3.4499999,-1.845929503440857,-12.02846908569336,-9.294290542602539,-44.6624755859375,-52.1697998046875,-49.5758056640625
3.4699999,-1.678335428237915,-11.125855445861816,-8.827422142028809,-50.9033203125,-46.905517578125,-63.41552734375
3.4899999,-1.4676456451416016,-10.04846477508545,-8.154650688171387,-51.3763427734375,-42.8466796875,-69.793701171875
3.5099999,-1.2449848651885986,-9.05487060546875,-7.515398979187012,-56.6864013671875,-40.71044921875,-74.3255615234375
3.5299999,-1.070208191871643,-8.26478385925293,-7.094019412994385,-61.8896484375,-29.7088623046875,-79.071044921875
3.5499999,-0.9744400978088379,-7.86734676361084,-7.058106422424316,-62.6983642578125,-25.4974365234375,-84.5489501953125
3.5699999,-0.9983820915222168,-7.793126583099365,-7.501033782958984,-60.2569580078125,-26.3519287109375,-97.259521484375
3.5899999,-1.1276689767837524,-7.905653953552246,-8.161833763122559,-57.4188232421875,-14.6026611328125,-110.8856201171875
3.6099999,-1.259350061416626,-8.149862289428711,-9.196128845214844,-54.01611328125,-4.33349609375,-118.377685546875
3.6299999,-1.2713210582733154,-8.058882713317871,-10.24239444732666,-36.041259765625,3.3416748046875,-125
3.6499999,-1.1300631761550903,-7.829039573669434,-11.197681427001953,-19.47021484375,12.939453125,-125.8544921875
3.6699999,-0.8259995579719543,-7.249642848968506,-11.8441162109375,-17.9443359375,29.6630859375,-125.4425048828125
3.6899999,-0.43095630407333374,-6.572083473205566,-12.136208534240723,-22.4761962890625,38.726806640625,-121.246337890625
3.7099999,-0.05027823522686958,-5.92325496673584,-12.114660263061523,-17.913818359375,42.083740234375,-115.264892578125
3.7299999,0.2537853717803955,-5.504269599914551,-11.860875129699707,-5.6915283203125,52.4139404296875,-112.7777099609375
3.7499999,0.49799394607543945,-5.018246650695801,-11.44907283782959,-0.8087158203125,63.2781982421875,-118.4539794921875
3.7699999,0.7110779285430908,-4.707000732421875,-11.08754825592041,-7.14111328125,67.6727294921875,-107.421875
3.7899999,0.9241618514060974,-4.331110954284668,-10.778696060180664,-15.8233642578125,74.4476318359375,-93.017578125
3.8099999,1.1779472827911377,-3.9863457679748535,-10.606313705444336,-13.00048828125,87.249755859375,-89.0350341796875
3.8299999000000002,1.4963760375976562,-3.624821424484253,-10.541669845581055,-3.1585693359375,101.07421875,-89.599609375
3.8499999,1.8746598958969116,-3.155557870864868,-10.41956615447998,4.5166015625,111.26708984375,-78.369140625
3.8699999,2.3080103397369385,-2.499546527862549,-10.089165687561035,0.7476806640625,119.0185546875,-62.4542236328125
3.8899999,2.7724854946136475,-1.7932571172714233,-9.557653427124023,-6.5155029296875,122.528076171875,-46.20361328125
3.9099999,3.2297780513763428,-0.9816226959228516,-8.83699893951416,-0.2899169921875,125.2288818359375,-36.3616943359375
3.9299999,3.691859006881714,-0.2059013396501541,-7.898471355438232,7.2174072265625,131.4849853515625,-22.247314453125
3.9499999,4.194641590118408,0.6200982332229614,-6.909666061401367,11.077880859375,127.4566650390625,0.8392333984375
3.9699999,4.714183330535889,1.4269442558288574,-5.714959621429443,8.392333984375,119.5068359375,26.5655517578125
3.9899999,5.240907669067383,1.8770540952682495,-4.4939165115356445,2.960205078125,115.447998046875,53.3294677734375
4.0099999,5.705382823944092,2.011129379272461,-3.404554843902588,-2.2125244140625,101.470947265625,65.521240234375
4.029999900000001,6.0597243309021,1.742978811264038,-2.5067291259765625,-1.3275146484375,95.306396484375,72.2503662109375
4.0499999,6.275202751159668,1.2880805730819702,-1.7286136150360107,3.90625,91.36962890625,88.5009765625
4.069999900000001,6.335057735443115,0.7254431247711182,-1.2114660739898682,-3.4332275390625,69.7784423828125,107.7423095703125
4.0899999000000005,6.229712963104248,-0.10534487664699554,-0.8547300100326538,-15.0146484375,53.131103515625,124.51171875
4.1099999,5.999869346618652,-1.091755986213684,-0.8164227604866028,-21.1639404296875,44.4793701171875,124.359130859375
4.1299999000000005,5.65031623840332,-2.209848165512085,-0.9265560507774353,-9.7808837890625,43.6553955078125,120.4071044921875
4.1499999,5.2265424728393555,-3.318363666534424,-1.0223240852355957,12.7716064453125,33.87451171875,130.8441162109375
4.1699999000000005,4.778826713562012,-4.017470359802246,-1.0438719987869263,15.4266357421875,8.36181640625,137.725830078125
4.1899999,4.259284973144531,-4.656722068786621,-0.9720458984375,-1.9073486328125,-5.9814453125,150.7720947265625
4.209999900000001,3.7253777980804443,-5.418078422546387,-1.0414776802062988,-16.9219970703125,-11.138916015625,158.9508056640625
4.2299999,3.1675288677215576,-6.203376770019531,-1.0438719987869263,0.79345703125,-11.7950439453125,140.7623291015625
4.249999900000001,2.6360161304473877,-7.0988078117370605,-1.3024457693099976,24.4140625,-33.0047607421875,130.279541015625
4.2699999,2.121262788772583,-7.694964408874512,-1.4987702369689941,3.41796875,-45.989990234375,138.7176513671875
4.289999900000001,1.601720929145813,-8.394071578979492,-1.886630892753601,-22.308349609375,-47.698974609375,160.82763671875
4.3099999,1.0821791887283325,-9.35893440246582,-2.341529369354248,-19.59228515625,-53.1768798828125,155.5328369140625
4.329999900000001,0.586579442024231,-10.335768699645996,-2.7269957065582275,12.5885009765625,-57.80029296875,108.88671875
4.3499999,0.14604631066322327,-11.343728065490723,-3.0334534645080566,5.37109375,-70.4498291015625,87.5244140625
4.369999900000001,-0.2082955539226532,-11.817779541015625,-3.1962592601776123,-33.7677001953125,-72.723388671875,97.6715087890625
4.3899999,-0.5003881454467773,-12.097901344299316,-3.4308910369873047,-37.2772216796875,-82.3974609375,102.7679443359375
4.409999900000001,-0.7565677165985107,-12.464214324951172,-3.5218706130981445,-21.636962890625,-84.4268798828125,76.629638671875
4.4299999,-0.9457096457481384,-12.519280433654785,-3.670311212539673,-11.0931396484375,-88.9434814453125,27.679443359375
4.449999900000001,-1.0965443849563599,-12.435483932495117,-3.7229835987091064,-42.2210693359375,-93.3380126953125,26.85546875
4.4699999,-1.235408067703247,-11.927912712097168,-3.936067581176758,-62.6983642578125,-94.9249267578125,41.1834716796875
4.489999900000001,-1.41257905960083,-11.465831756591797,-4.316745758056641,-64.4073486328125,-97.7783203125,26.763916015625
4.5099999,-1.6639702320098877,-11.286267280578613,-4.774038314819336,-71.685791015625,-93.1396484375,-9.6893310546875
4.529999900000001,-1.9129672050476074,-11.154585838317871,-5.5329999923706055,-85.0830078125,-103.729248046875,-38.1622314453125
4.5499999,-2.123656988143921,-11.006145477294922,-6.2392897605896,-90.2099609375,-90.362548828125,-31.1737060546875
4.569999900000001,-2.248155355453491,-10.639832496643066,-7.1490864753723145,-85.968017578125,-70.9075927734375,-27.5115966796875
4.5899999000000005,-2.3056161403656006,-10.268731117248535,-7.891288757324219,-79.6661376953125,-61.82861328125,-48.095703125
4.609999900000001,-2.315192937850952,-10.04846477508545,-8.49941635131836,-67.3980712890625,-54.534912109375,-65.765380859375
4.6299999000000005,-2.279279947280884,-9.797073364257812,-8.774748802185059,-64.178466796875,-49.0875244140625,-76.7059326171875
4.6499999,-2.1978771686553955,-9.421183586120605,-8.860940933227539,-69.427490234375,-44.7998046875,-84.2132568359375
4.6699999000000005,-2.078166961669922,-8.9064302444458,-8.774748802185059,-68.54248046875,-39.7491455078125,-91.156005859375
4.6899999,-1.944091796875,-8.343792915344238,-8.667010307312012,-55.938720703125,-36.56005859375,-97.2747802734375
4.709999900000001,-1.7932571172714233,-7.714118003845215,-8.59997272491455,-48.9501953125,-34.1949462890625,-103.8360595703125
4.7299999,-1.6639702320098877,-7.24485445022583,-8.667010307312012,-53.89404296875,-28.778076171875,-104.7210693359375
4.749999900000001,-1.5059528350830078,-6.907271862030029,-9.512163162231445,-42.0379638671875,-12.3138427734375,-125.1068115234375
4.7699999,-1.4197616577148438,-6.8378400802612305,-10.292673110961914,-33.111572265625,-1.3427734375,-134.5367431640625
4.789999900000001,-1.3072341680526733,-6.799532890319824,-11.080365180969238,-29.754638671875,12.4664306640625,-125.244140625
4.8099999,-1.091755986213684,-6.519411087036133,-11.894393920898438,-22.857666015625,29.4189453125,-129.45556640625
4.829999900000001,-0.8068459630012512,-6.2847795486450195,-12.540828704833984,-13.7176513671875,47.576904296875,-135.5743408203125
4.8499999,-0.4836287498474121,-5.892130374908447,-12.895170211791992,-5.8135986328125,64.849853515625,-138.580322265625
4.869999900000001,-0.13168109953403473,-5.288791656494141,-12.916718482971191,1.8157958984375,74.9664306640625,-132.0648193359375
4.8899999,0.24420857429504395,-4.41969633102417,-12.667720794677734,8.4686279296875,78.6895751953125,-117.98095703125
4.909999900000001,0.6512228846549988,-3.5027170181274414,-12.255918502807617,7.4920654296875,88.623046875,-100.28076171875
4.9299999,1.0821791887283325,-2.5450363159179688,-11.81299114227295,0.579833984375,104.827880859375,-91.1712646484375
4.949999900000001,1.5179238319396973,-1.7741034030914307,-11.48259162902832,3.143310546875,117.645263671875,-79.9713134765625
4.9699999,1.922544002532959,-1.1228805780410767,-10.855310440063477,7.0953369140625,136.3677978515625,-62.530517578125
4.989999900000001,2.322375535964966,-0.6033388376235962,-10.08198356628418,15.13671875,138.3056640625,-44.9371337890625
5.0099999,2.7437551021575928,-0.16759411990642548,-9.05487060546875,22.1710205078125,130.31005859375,-31.9976806640625
5.029999900000001,3.1962592601776123,0.1364694982767105,-7.8745293617248535,16.6168212890625,133.544921875,-16.2353515625
5.0499999,3.708618402481079,0.3974374830722809,-6.801927089691162,11.4288330078125,136.322021484375,2.3651123046875
5.069999900000001,4.225766181945801,0.6224924325942993,-5.676652431488037,10.284423828125,136.1236572265625,23.6053466796875
5.0899999000000005,4.726154327392578,0.6200982332229614,-4.642356872558594,12.847900390625,123.321533203125,48.614501953125
5.109999900000001,5.145139217376709,0.363918662071228,-3.799597978591919,8.758544921875,102.874755859375,63.1561279296875
5.1299999000000005,5.48272180557251,-0.12689268589019775,-3.203441858291626,2.044677734375,106.1553955078125,65.8721923828125
5.1499999,5.6910176277160645,-0.7206547260284424,-2.8179752826690674,-5.2337646484375,111.3433837890625,73.8372802734375
5.1699999000000005,5.770026206970215,-1.3455413579940796,-2.343923568725586,-3.7994384765625,105.1483154296875,92.5140380859375
5.1899999,5.736507415771484,-2.0398597717285156,-1.886630892753601,0.7781982421875,74.76806640625,105.5450439453125
5.209999900000001,5.614402770996094,-2.695871114730835,-1.3215993642807007,-0.5645751953125,59.6466064453125,102.4017333984375
5.2299999,5.461174011230469,-3.3710360527038574,-1.1420341730117798,-5.6304931640625,53.5430908203125,102.386474609375
5.249999900000001,5.245696067810059,-3.8331170082092285,-0.9217676520347595,-3.5400390625,55.450439453125,115.3106689453125
5.2699999,4.987122058868408,-4.201824188232422,-0.9145850539207458,6.5155029296875,34.36279296875,132.7056884765625
5.289999900000001,4.632780075073242,-4.623203277587891,-0.6919242739677429,7.171630859375,9.8876953125,140.0909423828125
5.3099999,4.247313976287842,-5.243301868438721,-0.6655880808830261,1.2359619140625,-2.9754638671875,133.60595703125
5.329999900000001,3.866635799407959,-5.896918773651123,-0.7326257228851318,-3.8299560546875,-4.302978515625,120.66650390625
5.3499999,3.49314022064209,-6.3973069190979,-0.9313444495201111,4.3792724609375,-8.9263916015625,120.05615234375
5.369999900000001,3.093308687210083,-6.593631267547607,-1.0319008827209473,6.5460205078125,-24.1546630859375,136.41357421875
5.3899999,2.6001031398773193,-6.801927089691162,-1.1899182796478271,-9.002685546875,-45.6695556640625,153.9154052734375
5.409999900000001,2.049436569213867,-7.386112213134766,-1.5705963373184204,-15.0299072265625,-53.5888671875,153.167724609375
5.4299999,1.4508862495422363,-8.006210327148438,-1.920149803161621,-18.00537109375,-37.628173828125,120.30029296875
5.449999900000001,0.8667010068893433,-8.983044624328613,-2.3965959548950195,-3.204345703125,-42.999267578125,115.6158447265625
5.4699999,0.33279404044151306,-9.610325813293457,-2.631227731704712,4.39453125,-67.413330078125,119.842529296875
5.489999900000001,-0.2082955539226532,-10.333374977111816,-2.6384103298187256,-15.4876708984375,-71.9757080078125,117.4163818359375
5.5099999,-0.7134721279144287,-11.142614364624023,-2.762908697128296,-33.4930419921875,-78.5369873046875,97.7935791015625
5.529999900000001,-1.192312479019165,-11.96861457824707,-2.7700912952423096,-26.0009765625,-84.16748046875,68.145751953125
5.5499999,-1.5945383310317993,-12.741941452026367,-3.07415509223938,-4.852294921875,-104.4921875,61.6607666015625
5.569999900000001,-1.9057846069335938,-13.108254432678223,-3.2800562381744385,-4.7149658203125,-106.7657470703125,57.861328125
5.5899999000000005,-2.1715409755706787,-13.376404762268066,-3.627215623855591,-26.5350341796875,-99.090576171875,44.5709228515625
5.609999900000001,-2.406172752380371,-13.522451400756836,-3.950432777404785,-26.3214111328125,-104.461669921875,19.0887451171875
5.6299999000000005,-2.559401512145996,-13.350069046020508,-4.469974517822266,-24.8565673828125,-121.3226318359375,-18.61572265625
5.6499999,-2.652775526046753,-13.0914945602417,-4.869806289672852,-47.42431640625,-112.4267578125,-25.9857177734375
5.6699999000000005,-2.6168625354766846,-12.416330337524414,-5.365406036376953,-73.73046875,-96.25244140625,-36.92626953125
5.6899999,-2.473210334777832,-11.386823654174805,-5.894524574279785,-88.714599609375,-92.83447265625,-59.4482421875
5.709999900000001,-2.315192937850952,-10.539276123046875,-6.205770969390869,-85.174560546875,-75.653076171875,-56.45751953125
5.7299999,-2.1763293743133545,-9.742006301879883,-6.524199485778809,-74.8291015625,-66.2384033203125,-54.3060302734375
5.749999900000001,-2.1068975925445557,-9.279925346374512,-6.780379295349121,-75.13427734375,-62.43896484375,-66.89453125
5.7699999,-2.1284453868865967,-9.21288776397705,-6.904877662658691,-82.5347900390625,-49.468994140625,-81.0546875
5.789999900000001,-2.1763293743133545,-9.251194953918457,-7.105990409851074,-83.4808349609375,-45.074462890625,-97.259521484375
5.8099999,-2.205059766769409,-9.23443603515625,-7.445967197418213,-70.953369140625,-45.806884765625,-106.231689453125
5.829999900000001,-2.1811177730560303,-9.129091262817383,-7.910442352294922,-63.90380859375,-32.989501953125,-104.248046875
5.8499999,-2.1092917919158936,-9.026140213012695,-8.633491516113281,-68.695068359375,-22.705078125,-106.0638427734375
5.869999900000001,-2.0207061767578125,-9.030928611755371,-9.433155059814453,-69.9310302734375,-16.082763671875,-120.361328125
5.8899999,-1.9033904075622559,-8.992621421813965,-10.251971244812012,-57.0831298828125,-5.3558349609375,-139.0380859375
5.909999900000001,-1.7166426181793213,-8.7268648147583,-11.049241065979004,-45.71533203125,7.8277587890625,-142.1356201171875
5.9299999,-1.455674648284912,-8.154650688171387,-11.688492774963379,-43.02978515625,24.35302734375,-132.32421875
5.949999900000001,-1.1276689767837524,-7.254431247711182,-12.112266540527344,-36.865234375,42.1905517578125,-129.791259765625
5.9699999,-0.7733271718025208,-6.378153324127197,-12.322956085205078,-33.5540771484375,54.1534423828125,-127.3193359375
5.989999900000001,-0.4213795065879822,-5.489904403686523,-12.320562362670898,-31.2652587890625,68.4051513671875,-121.612548828125
6.0099999,-0.06703764945268631,-4.7620673179626465,-12.215216636657715,-22.8424072265625,81.6802978515625,-111.38916015625
6.029999900000001,0.29209262132644653,-4.07014274597168,-12.033257484436035,-18.73779296875,95.855712890625,-101.7608642578125
6.0499999,0.6631938815116882,-3.4548330307006836,-11.748347282409668,-12.7716064453125,106.4453125,-92.7886962890625
6.069999900000001,1.0534487962722778,-2.9065608978271484,-11.410765647888184,-5.615234375,115.4632568359375,-81.0394287109375
6.0899999000000005,1.4652514457702637,-2.408566951751709,-10.87446403503418,-7.8125,127.6397705078125,-66.7724609375
6.109999900000001,1.900996208190918,-1.9728221893310547,-10.17296314239502,-2.6092529296875,136.53564453125,-55.633544921875
6.1299999000000005,2.382230758666992,-1.482010841369629,-9.260771751403809,5.31005859375,140.5181884765625,-45.501708984375
6.149999900000001,2.8993782997131348,-0.9959878921508789,-8.22887134552002,3.1890869140625,138.36669921875,-29.7698974609375
6.1699999000000005,3.4572272300720215,-0.4596867263317108,-7.196970462799072,-3.0670166015625,143.0511474609375,-10.3759765625
6.1899999,4.01268196105957,-0.019153613597154617,-6.057330131530762,1.6937255859375,150.0091552734375,6.6070556640625
6.209999900000001,4.551377296447754,0.22266076505184174,-4.869806289672852,8.941650390625,140.5029296875,21.91162109375
6.2299999,5.044582843780518,0.27054479718208313,-3.7924153804779053,4.5013427734375,110.626220703125,35.4156494140625
6.249999900000001,5.834669589996338,-0.3519476354122162,-2.4372973442077637,-8.4381103515625,107.11669921875,62.713623046875
6.2699999,6.066906929016113,-0.9289502501487732,-1.9512743949890137,-3.4332275390625,111.328125,70.770263671875
6.289999900000001,6.203376770019531,-1.6328455209732056,-1.6903064250946045,10.4522705078125,80.2459716796875,80.4595947265625
6.3099999,6.217741966247559,-2.279279947280884,-1.0989385843276978,13.5498046875,63.507080078125,83.43505859375
6.329999900000001,6.162675380706787,-2.918531894683838,-0.6799532771110535,10.2386474609375,53.131103515625,91.033935546875
6.3499999,6.038176536560059,-3.4117374420166016,-0.38067805767059326,5.37109375,42.0379638671875,95.1385498046875
6.369999900000001,5.851428985595703,-3.914519786834717,-0.272938996553421,10.2691650390625,26.7333984375,99.8382568359375
6.3899999,5.616796970367432,-4.271255970001221,-0.26336219906806946,19.22607421875,15.44189453125,100.8758544921875
6.409999900000001,5.343858242034912,-4.448426723480225,-0.363918662071228,18.3563232421875,1.861572265625,107.0556640625
6.4299999,5.061342239379883,-4.4723687171936035,-0.6057330369949341,11.444091796875,-7.5836181640625,120.91064453125
6.449999900000001,4.704606533050537,-4.537012100219727,-0.730231523513794,1.5411376953125,-3.9520263671875,131.591796875
6.4699999,4.290409564971924,-4.8482584953308105,-0.8092401623725891,-2.7313232421875,-6.65283203125,131.4697265625
6.489999900000001,3.801992416381836,-5.305551052093506,-0.8212111592292786,4.302978515625,-27.9998779296875,123.7640380859375
6.5099999,3.2393548488616943,-5.882553577423096,-0.9792284965515137,8.514404296875,-42.205810546875,132.38525390625
6.529999900000001,2.609679937362671,-6.356605529785156,-1.2832920551300049,-17.8680419921875,-38.51318359375,148.6358642578125
6.5499999,1.9033904075622559,-7.022193431854248,-1.8076223134994507,-34.7137451171875,-36.163330078125,157.71484375
6.569999900000001,1.1779472827911377,-7.85537576675415,-2.2457611560821533,-12.6953125,-50.0335693359375,148.9410400390625
6.5899999000000005,0.47644615173339844,-8.827422142028809,-2.7293899059295654,-0.701904296875,-65.2923583984375,130.5084228515625
6.609999900000001,-0.11971008777618408,-9.691728591918945,-3.220201253890991,-28.839111328125,-61.8133544921875,123.35205078125
6.6299999000000005,-0.6272808313369751,-10.51054573059082,-3.7852327823638916,-58.8226318359375,-54.3670654296875,126.983642578125
6.649999900000001,-1.039083480834961,-11.23598861694336,-4.3406877517700195,-17.242431640625,-59.0362548828125,116.546630859375
6.6699999000000005,-1.3551181554794312,-11.829751014709473,-4.5609540939331055,20.69091796875,-68.7408447265625,90.972900390625
6.6899999,-1.599326729774475,-12.39957046508789,-4.642356872558594,3.8604736328125,-71.22802734375,79.6356201171875
6.709999900000001,-1.7693150043487549,-12.531251907348633,-4.3191399574279785,-32.9437255859375,-67.7032470703125,72.8912353515625
6.7299999,-1.922544002532959,-12.409147262573242,-4.0294413566589355,-51.08642578125,-71.3958740234375,58.16650390625
6.749999900000001,-2.094926595687866,-12.344504356384277,-3.751713991165161,-32.2418212890625,-84.1827392578125,55.206298828125
6.7699999,-2.31758713722229,-12.322956085205078,-3.552995204925537,-34.1339111328125,-79.3914794921875,34.5306396484375
6.789999900000001,-2.5665841102600098,-12.327744483947754,-3.7014358043670654,-71.4874267578125,-77.880859375,8.453369140625
6.8099999,-2.851494312286377,-12.540828704833984,-4.086902141571045,-92.22412109375,-77.1636962890625,2.838134765625
6.829999900000001,-3.1196448802948,-12.69405746459961,-4.8051629066467285,-73.05908203125,-78.704833984375,-7.965087890625
6.8499999,-3.3231520652770996,-12.7946138381958,-5.521028995513916,-66.3299560546875,-67.4896240234375,-34.5306396484375
6.869999900000001,-3.4308910369873047,-12.753912925720215,-6.112396717071533,-76.446533203125,-57.3577880859375,-55.23681640625
6.8899999,-3.4404678344726562,-12.356474876403809,-6.236895561218262,-88.9739990234375,-53.52783203125,-69.8699951171875
6.909999900000001,-3.3854012489318848,-11.676521301269531,-6.114790916442871,-95.794677734375,-56.94580078125,-80.38330078125
6.9299999,-3.308786630630493,-10.771512985229492,-5.7556610107421875,-91.8731689453125,-56.1981201171875,-93.07861328125
6.949999900000001,-3.248931646347046,-9.964667320251465,-5.521028995513916,-89.90478515625,-51.5594482421875,-101.5625
6.9699999,-3.222595453262329,-9.35654067993164,-5.674258232116699,-100.9368896484375,-55.572509765625,-107.23876953125
6.989999900000001,-3.2561142444610596,-9.071630477905273,-6.141127586364746,-110.7025146484375,-47.8515625,-119.720458984375
7.0099999,-3.3039982318878174,-8.904036521911621,-7.108384609222412,-105.0567626953125,-38.4674072265625,-137.5579833984375
7.029999900000001,-3.332728862762451,-8.722076416015625,-8.315062522888184,-93.8720703125,-26.6571044921875,-150.4364013671875
7.0499999,-3.248931646347046,-8.142680168151855,-9.672574996948242,-84.5794677734375,-13.458251953125,-155.792236328125
7.069999900000001,-3.043030261993408,-7.400477409362793,-10.912771224975586,-73.9593505859375,2.3040771484375,-150.0244140625
7.0899999000000005,-2.715024709701538,-6.45476770401001,-11.947066307067871,-62.3626708984375,22.857666015625,-154.7088623046875
7.109999900000001,-2.300827741622925,-5.394136428833008,-12.555193901062012,-51.544189453125,38.4674072265625,-162.53662109375
7.1299999000000005,-1.8195933103561401,-4.37420654296875,-13.005303382873535,-45.47119140625,48.858642578125,-155.0445556640625
7.149999900000001,-1.3192051649093628,-3.3494882583618164,-13.144166946411133,-53.4820556640625,67.0013427734375,-135.8184814453125
7.1699999000000005,-0.7805097699165344,-2.537853717803955,-13.340492248535156,-57.5714111328125,90.606689453125,-127.5482177734375
7.1899999,-0.272938996553421,-1.8842366933822632,-13.12261962890625,-35.247802734375,116.729736328125,-124.08447265625
7.209999900000001,0.26815059781074524,-1.3551181554794312,-12.861651420593262,-4.547119140625,117.1112060546875,-113.983154296875
7.2299999,0.8020575642585754,-0.8212111592292786,-12.267889976501465,1.3427734375,114.74609375,-92.4835205078125
7.249999900000001,1.3623007535934448,-0.2849099934101105,-11.678915977478027,-5.0048828125,133.453369140625,-71.380615234375
7.2699999,1.9321208000183105,0.21787235140800476,-11.039664268493652,0.213623046875,149.8260498046875,-60.24169921875
7.289999900000001,2.456450939178467,0.6248866319656372,-10.132261276245117,14.83154296875,162.445068359375,-47.3175048828125
7.3099999,2.9951462745666504,1.0749965906143188,-8.834604263305664,25.787353515625,156.73828125,-29.0374755859375
7.329999900000001,3.5410242080688477,1.4628572463989258,-7.4100542068481445,10.9100341796875,130.37109375,-2.288818359375
7.3499999,4.125209331512451,1.7908629179000854,-5.896918773651123,-1.220703125,135.0250244140625,17.27294921875
7.369999900000001,4.730942726135254,1.8531121015548706,-4.850652694702148,-1.495361328125,136.2457275390625,35.5682373046875
7.3899999,5.250484466552734,1.8124107122421265,-3.7493197917938232,7.5225830078125,142.27294921875,51.5899658203125
7.409999900000001,5.679046630859375,1.4053963422775269,-2.9496564865112305,14.3585205078125,119.537353515625,77.4688720703125
7.4299999,5.935225963592529,0.7422025203704834,-2.142810583114624,-0.6103515625,84.716796875,95.947265625
7.449999900000001,6.0597243309021,-0.11971008777618408,-1.5682021379470825,-1.77001953125,81.146240234375,95.5810546875
7.4699999,6.045359134674072,-1.1204863786697388,-1.2761094570159912,2.197265625,71.8231201171875,102.3712158203125
7.489999900000001,5.904101371765137,-2.0614075660705566,-0.8188169598579407,19.5465087890625,61.6302490234375,114.92919921875
7.5099999,5.702988624572754,-2.983175277709961,-0.8930372595787048,20.32470703125,15.7012939453125,125.7476806640625
7.529999900000001,5.43723201751709,-3.7708675861358643,-0.7781155705451965,-1.007080078125,12.3748779296875,117.1722412109375
7.5499999,5.171475887298584,-4.54419469833374,-1.2018892765045166,-9.735107421875,16.387939453125,115.6005859375
7.569999900000001,4.869806289672852,-5.109226226806641,-1.4700398445129395,0.5035400390625,10.5133056640625,117.584228515625
7.5899999000000005,4.534617900848389,-5.501875400543213,-1.5825673341751099,29.510498046875,-8.4991455078125,117.61474609375
7.609999900000001,4.173093795776367,-5.791574001312256,-1.6184803247451782,33.660888671875,-34.7900390625,113.525390625
7.6299999000000005,3.7924153804779053,-6.076483726501465,-1.5921441316604614,7.720947265625,-34.4085693359375,112.640380859375
7.649999900000001,3.4165258407592773,-6.3733649253845215,-1.8722656965255737,-0.1678466796875,-33.14208984375,111.8927001953125
7.6699999000000005,3.0190882682800293,-6.854599475860596,-2.169146776199341,29.0374755859375,-36.56005859375,113.6016845703125
7.6899999,2.580949544906616,-7.271190643310547,-2.274491548538208,41.19873046875,-39.7491455078125,101.4404296875
7.709999900000001,2.1045033931732178,-7.778761386871338,-2.346317768096924,11.932373046875,-59.50927734375,94.7723388671875
7.7299999,1.6136919260025024,-8.293514251708984,-2.4468741416931152,-4.8675537109375,-70.5108642578125,99.639892578125
7.749999900000001,1.170764684677124,-8.848969459533691,-2.9496564865112305,12.63427734375,-73.8677978515625,100.5096435546875
7.7699999,0.40940847992897034,-10.113107681274414,-4.197035789489746,21.331787109375,-58.2122802734375,84.136962890625
7.789999900000001,0.10295066982507706,-10.879252433776855,-4.757278919219971,-11.9171142578125,-70.5108642578125,74.188232421875
7.8099999,-0.15801730751991272,-11.753135681152344,-5.216965675354004,-17.2882080078125,-68.6187744140625,53.5430908203125
7.829999900000001,-0.3232172429561615,-12.531251907348633,-5.669469833374023,9.613037109375,-58.77685546875,31.6619873046875
7.8499999,-0.3758896589279175,-13.038822174072266,-5.999869346618652,25.6500244140625,-56.854248046875,17.4713134765625
7.869999900000001,-0.33997663855552673,-13.086706161499023,-6.033388137817383,14.373779296875,-55.2520751953125,11.0931396484375
7.8899999,-0.2585737705230713,-12.75870132446289,-5.942408561706543,-6.7901611328125,-55.5267333984375,8.3465576171875
7.909999900000001,-0.16998831927776337,-12.315773963928223,-5.9735331535339355,-19.3634033203125,-54.3365478515625,5.6610107421875
7.9299999,-0.11013327538967133,-11.827356338500977,-6.074089527130127,-21.2554931640625,-37.872314453125,-5.2490234375
7.949999900000001,-0.07900865375995636,-11.480196952819824,-6.279991149902344,-16.90673828125,-29.0985107421875,-16.6168212890625
7.9699999,-0.028730420395731926,-11.037269592285156,-6.481103897094727,-14.3585205078125,-35.9649658203125,-26.30615234375
7.989999900000001,0.043095629662275314,-10.409989356994629,-6.490680694580078,-13.4124755859375,-32.65380859375,-33.935546875
8.0099999,0.17477671802043915,-9.62947940826416,-6.588842868804932,-16.3421630859375,-28.1524658203125,-28.4576416015625
8.0299999,0.33758243918418884,-8.69095230102539,-6.581660270690918,-21.4385986328125,-16.4947509765625,-24.3072509765625
8.049999900000001,0.49320554733276367,-7.989450931549072,-6.524199485778809,-19.2718505859375,-11.23046875,-19.683837890625
8.069999900000001,0.6320692300796509,-7.441178798675537,-6.382941722869873,-14.34326171875,-15.5029296875,-22.8271484375
8.0899999,0.7541735172271729,-7.129932880401611,-6.287173748016357,-13.5955810546875,-19.4244384765625,-23.193359375
8.1099999,0.8643068075180054,-6.998251438140869,-6.332663536071777,-17.4407958984375,-11.23046875,-12.63427734375
8.129999900000001,0.9552865028381348,-6.938396453857422,-6.531382083892822,-16.66259765625,-1.739501953125,-5.615234375
8.149999900000001,0.9959878921508789,-7.038952827453613,-6.734889507293701,-8.85009765625,2.685546875,-5.5084228515625
8.1699999,0.9911994934082031,-7.218518257141113,-6.761225700378418,0.152587890625,2.6397705078125,-8.60595703125
8.1899999,0.9600749015808105,-7.412448406219482,-6.682217121124268,-1.8157958984375,-1.434326171875,-8.1939697265625
8.2099999,0.9241618514060974,-7.539340972900391,-6.471527099609375,-4.0130615234375,0.732421875,-3.448486328125
8.229999900000001,0.9002198576927185,-7.608773231506348,-6.260837554931641,-3.23486328125,5.1116943359375,-0.579833984375
8.2499999,0.8690952062606812,-7.723694801330566,-6.026205539703369,1.2664794921875,6.5765380859375,-0.030517578125
8.2699999,0.8379706144332886,-7.85537576675415,-5.796362400054932,5.5694580078125,3.8299560546875,-2.410888671875
8.2899999,0.8044517636299133,-8.034940719604492,-5.602431774139404,1.9378662109375,0.762939453125,-3.7384033203125
8.309999900000001,0.7924807667732239,-8.133103370666504,-5.525817394256592,-2.838134765625,0.335693359375,-4.08935546875
8.3299999,0.8020575642585754,-8.142680168151855,-5.724536418914795,-2.227783203125,0.9918212890625,-3.173828125
8.3499999,0.8259995579719543,-8.070854187011719,-6.102819919586182,-7.2784423828125,7.5225830078125,-1.6326904296875
8.3699999,0.8667010068893433,-7.936778545379639,-6.801927089691162,-9.063720703125,12.0086669921875,-2.3651123046875
8.389999900000001,0.9385270476341248,-7.671022415161133,-7.60637903213501,5.340576171875,19.073486328125,-3.2958984375
8.4099999,1.0414776802062988,-7.331045627593994,-8.470685958862305,22.003173828125,32.196044921875,3.7689208984375
8.4299999,1.1563993692398071,-6.926425457000732,-9.148244857788086,22.4609375,47.8973388671875,13.24462890625
8.4499999,1.2425906658172607,-6.624756336212158,-9.524134635925293,21.240234375,59.0057373046875,18.829345703125
8.469999900000001,1.278503656387329,-6.3973069190979,-9.490615844726562,30.303955078125,65.2618408203125,19.04296875
8.4899999,1.2282254695892334,-6.40927791595459,-8.98543930053711,36.56005859375,74.798583984375,23.1170654296875
8.5099999,1.1276689767837524,-6.517016887664795,-8.212111473083496,33.5540771484375,77.239990234375,29.6783447265625
8.5299999,0.9840168952941895,-6.636727333068848,-7.266402244567871,27.313232421875,79.4677734375,29.6478271484375
8.549999900000001,0.811634361743927,-6.782773494720459,-6.3063273429870605,26.9622802734375,81.878662109375,34.4696044921875
8.569999900000001,0.629675030708313,-7.0557122230529785,-5.279214859008789,33.9813232421875,85.51025390625,44.1131591796875
8.5899999,0.47405192255973816,-7.469909191131592,-4.228160381317139,41.8548583984375,78.826904296875,44.86083984375
8.6099999,0.3256114423274994,-8.188169479370117,-2.911349296569824,40.008544921875,68.8629150390625,36.285400390625
8.629999900000001,0.1867477297782898,-9.248801231384277,-1.3718775510787964,38.3453369140625,57.43408203125,30.7159423828125
8.649999900000001,0.07900865375995636,-10.51054573059082,0.24899697303771973,27.28271484375,35.5682373046875,21.3165283203125
8.6699999,-0.011971008032560349,-11.767500877380371,1.86508309841156,9.82666015625,12.3748779296875,1.77001953125
8.6899999,-0.06224924325942993,-12.935872077941895,3.1483752727508545,-4.7760009765625,-10.4827880859375,-13.9312744140625
8.709999900000001,-0.0933738648891449,-13.73314094543457,4.02465295791626,-20.294189453125,-34.271240234375,-31.7535400390625
8.729999900000001,-0.14844051003456116,-14.13057804107666,4.331110954284668,-16.510009765625,-58.6700439453125,-50.84228515625
8.7499999,-0.27054479718208313,-14.216769218444824,4.127603530883789,-5.279541015625,-80.01708984375,-62.31689453125
8.7699999,-0.4836287498474121,-13.982137680053711,3.555389642715454,-24.23095703125,-96.160888671875,-78.9794921875
8.7899999,-0.7589619159698486,-13.46259593963623,2.535459518432617,-54.290771484375,-115.0665283203125,-99.1363525390625
8.809999900000001,-1.05105459690094,-12.607866287231445,1.3024457693099976,-69.7174072265625,-126.678466796875,-113.800048828125
8.8299999,-1.3096283674240112,-11.456254959106445,-0.035913024097681046,-67.6116943359375,-127.7618408203125,-119.2626953125
8.8499999,-1.45806884765625,-9.971850395202637,-1.6041151285171509,-58.197021484375,-141.9525146484375,-124.4049072265625
8.8699999,-1.4963760375976562,-8.343792915344238,-2.9257144927978516,-63.934326171875,-140.80810546875,-126.7242431640625
8.889999900000001,-1.3982137441635132,-6.696582317352295,-4.410119533538818,-71.5789794921875,-142.303466796875,-120.697021484375
8.9099999,-1.137245774269104,-5.04218864440918,-5.932831764221191,-73.6846923828125,-145.599365234375,-115.386962890625
8.9299999,-0.7230489253997803,-3.5673606395721436,-7.63989782333374,-68.3135986328125,-127.8533935546875,-103.4698486328125
8.9499999,-0.14844051003456116,-2.1930887699127197,-9.502586364746094,-60.9893798828125,-106.0638427734375,-88.1195068359375
8.969999900000001,0.5315127968788147,-1.0821791887283325,-11.523292541503906,-48.828125,-90.3778076171875,-68.9544677734375
8.9899999,1.213860273361206,-0.08619125932455063,-13.436260223388672,-34.3475341796875,-64.697265625,-49.0875244140625
9.0099999,1.7932571172714233,0.6751648783683777,-15.172056198120117,-17.547607421875,-33.0047607421875,-25.6195068359375
9.0299999,2.1978771686553955,1.170764684677124,-16.613365173339844,-0.9765625,-5.584716796875,2.7008056640625
9.049999900000001,2.4133553504943848,1.3862427473068237,-17.640478134155273,13.397216796875,23.956298828125,24.0936279296875
9.069999900000001,2.43011474609375,1.237802267074585,-18.083404541015625,31.5704345703125,59.112548828125,42.4652099609375
9.0899999,2.2649147510528564,0.7852981686592102,-17.966089248657227,45.867919921875,89.0655517578125,63.1561279296875
9.1099999,1.9105730056762695,0.1364694982767105,-17.221492767333984,55.145263671875,112.548828125,80.26123046875
9.129999900000001,1.3646949529647827,-0.5530605912208557,-15.909470558166504,62.01171875,134.8419189453125,92.4224853515625
9.149999900000001,0.6512228846549988,-1.1803414821624756,-14.211980819702148,57.7392578125,152.3590087890625,105.7586669921875
9.1699999,-0.1867477297782898,-1.7980455160140991,-12.210428237915039,54.2449951171875,165.435791015625,124.69482421875
9.1899999,-1.0414776802062988,-2.3247697353363037,-10.067618370056152,49.6978759765625,172.42431640625,139.404296875
9.209999900000001,-1.8267759084701538,-2.80361008644104,-7.960720539093018,22.369384765625,166.4581298828125,147.6898193359375
9.229999900000001,-2.516305923461914,-3.3925838470458984,-6.09324312210083,28.9306640625,156.8756103515625,168.7164306640625
9.2499999,-3.1220390796661377,-4.438849925994873,-4.005499362945557,75.164794921875,168.7774658203125,186.2945556640625
9.2699999,-3.5625722408294678,-6.308721542358398,-1.5107412338256836,96.7254638671875,168.9605712890625,177.093505859375
9.2899999,-3.6607344150543213,-12.18409252166748,4.424484729766846,33.5693359375,85.3424072265625,105.7891845703125
9.309999900000001,-3.313575267791748,-15.842432975769043,7.390900611877441,19.59228515625,53.22265625,83.2672119140625
9.3299999,-2.913743495941162,-19.09375762939453,9.674968719482422,-17.15087890625,-16.3421630859375,25.20751953125
9.3499999,-2.6815059185028076,-21.660343170166016,10.87446403503418,-46.630859375,-57.952880859375,-32.8521728515625
9.3699999,-2.5977089405059814,-22.615629196166992,10.374075889587402,-59.08203125,-90.1947021484375,-75.347900390625
9.389999900000001,-2.674323320388794,-22.048202514648438,8.712499618530273,-53.0853271484375,-97.35107421875,-96.771240234375
9.4099999,-2.851494312286377,-20.338743209838867,6.294356346130371,-43.4112548828125,-113.067626953125,-115.234375
9.4299999,-3.0310592651367188,-17.851167678833008,3.778050184249878,-44.891357421875,-140.0909423828125,-146.1181640625
9.4499999,-3.1747114658355713,-15.078681945800781,1.6496049165725708,-65.582275390625,-151.5960693359375,-165.374755859375
9.469999900000001,-3.2561142444610596,-12.27267837524414,-0.3495534360408783,-84.9151611328125,-160.3546142578125,-165.252685546875
9.4899999,-3.3207578659057617,-9.428366661071777,-1.867477297782898,-98.236083984375,-153.2135009765625,-169.2657470703125
9.5099999,-3.3446998596191406,-6.7923502922058105,-3.3854012489318848,-117.034912109375,-160.0799560546875,-175.6744384765625
9.5299999,-3.270479440689087,-4.185064792633057,-5.011064052581787,-121.0174560546875,-171.9207763671875,-174.9725341796875
9.549999900000001,-3.002328872680664,-1.7094600200653076,-6.840234279632568,-99.4873046875,-153.961181640625,-156.585693359375
9.569999900000001,-2.3989901542663574,0.8188169598579407,-9.217676162719727,-77.94189453125,-138.916015625,-129.974365234375
9.5899999,-1.4844050407409668,3.07415509223938,-11.762712478637695,-72.1893310546875,-109.619140625,-94.7418212890625
9.6099999,-0.4213795065879822,4.932055473327637,-14.477737426757812,-54.962158203125,-80.780029296875,-56.0302734375
9.629999900000001,0.5793967843055725,6.011840343475342,-16.89109230041504,-26.458740234375,-38.177490234375,-17.974853515625
9.649999900000001,1.3455413579940796,6.382941722869873,-18.926164627075195,0,1.3580322265625,9.9639892578125
9.6699999,1.778891921043396,6.028599739074707,-20.209457397460938,30.181884765625,38.0859375,33.5235595703125
9.6899999,1.845929503440857,5.183446884155273,-20.616470336914062,64.27001953125,73.1201171875,65.216064453125
9.709999900000001,1.5394717454910278,3.936067581176758,-19.93891143798828,91.61376953125,105.194091796875,95.7489013671875
9.729999900000001,0.9481038451194763,2.5019407272338867,-18.53351593017578,112.48779296875,119.293212890625,111.4959716796875
9.7499999,0.16998831927776337,1.2186486721038818,-16.419435501098633,133.4381103515625,143.00537109375,113.9068603515625
9.7699999,-0.7350199222564697,0.14604631066322327,-14.058752059936523,155.792236328125,171.20361328125,138.092041015625
9.7899999,-1.7190368175506592,-0.6871358752250671,-11.245565414428711,171.2493896484375,200.5767822265625,168.304443359375
9.809999900000001,-2.691082715988159,-1.6184803247451782,-8.17141056060791,187.43896484375,209.41162109375,180.389404296875
9.8299999,-3.6128504276275635,-3.0765492916107178,-4.707000732421875,178.5736083984375,179.0313720703125,174.49951171875
9.8499999,-4.228160381317139,-4.987122058868408,-1.1899182796478271,165.8477783203125,171.5240478515625,157.989501953125
9.8699999,-4.462791919708252,-7.333439826965332,2.382230758666992,141.6015625,143.7530517578125,145.263671875
9.889999900000001,-4.309563159942627,-10.251971244812012,6.0405707359313965,129.5013427734375,127.044677734375,135.894775390625
9.9099999,-3.885789394378662,-13.469779014587402,9.660603523254395,93.81103515625,69.976806640625,102.72216796875
9.9299999,-3.3854012489318848,-16.745046615600586,12.768278121948242,27.3895263671875,2.288818359375,47.821044921875
9.9499999,-3.021482467651367,-19.68752098083496,14.659696578979492,-41.1376953125,-46.0357666015625,10.5743408203125
9.969999900000001,-2.8634653091430664,-21.2485408782959,14.824896812438965,-79.6356201171875,-75.9124755859375,-36.4532470703125
9.9899999,-2.9281086921691895,-21.435287475585938,13.39316463470459,-65.5364990234375,-100.250244140625,-74.371337890625
10.0099999,-3.136404275894165,-20.22382164001465,11.065999984741211,-48.797607421875,-119.68994140625,-95.1690673828125
10.0299999,-3.383007049560547,-18.057069778442383,8.485051155090332,-79.58984375,-142.8375244140625,-111.6180419921875
10.049999900000001,-3.7038300037384033,-15.641319274902344,6.222530364990234,-106.201171875,-162.7655029296875,-122.1771240234375
10.069999900000001,-4.146757125854492,-13.165715217590332,4.352658748626709,-123.53515625,-179.229736328125,-140.350341796875
10.0899999,-4.67827033996582,-10.721235275268555,2.4612393379211426,-146.4996337890625,-202.1026611328125,-161.0565185546875
10.1099999,-5.183446884155273,-8.250418663024902,0.21308395266532898,-163.3758544921875,-212.9058837890625,-166.5191650390625
10.129999900000001,-5.34625244140625,-5.343858242034912,-2.7892448902130127,-152.9083251953125,-200.3631591796875,-162.9180908203125
10.149999900000001,-4.975151062011719,-2.3558945655822754,-6.538564682006836,-121.6278076171875,-174.072265625,-138.9007568359375
10.1699999,-3.995922565460205,0.5770025849342346,-10.704475402832031,-88.1805419921875,-142.0440673828125,-106.292724609375
10.1899999,-2.557007312774658,3.045424461364746,-14.805743217468262,-60.85205078125,-102.874755859375,-74.127197265625
10.209999900000001,-0.9528923034667969,4.6734819412231445,-18.30127716064453,-27.6947021484375,-57.373046875,-34.1796875
10.229999900000001,0.4668693244457245,5.2911858558654785,-20.738574981689453,0.9307861328125,-7.6751708984375,2.685546875
10.2499999,1.4748282432556152,4.869806289672852,-21.98834800720215,23.62060546875,25.909423828125,27.7862548828125
10.2699999,1.9632453918457031,3.7924153804779053,-22.005107879638672,40.1611328125,58.41064453125,37.811279296875
10.2899999,1.9297266006469727,2.319981336593628,-21.061792373657227,53.0853271484375,92.681884765625,56.2896728515625
10.309999900000001,1.4532804489135742,0.8571242094039917,-19.400217056274414,64.208984375,124.0234375,82.09228515625
10.3299999,0.6440402865409851,-0.45250412821769714,-17.30529022216797,86.0595703125,145.5230712890625,98.114013671875
10.3499999,-0.3423708379268646,-1.7717092037200928,-14.67406177520752,105.316162109375,172.9583740234375,107.7880859375
10.3699999,-1.3527239561080933,-2.918531894683838,-11.975796699523926,100.2197265625,177.0477294921875,106.4300537109375
10.389999900000001,-2.2577321529388428,-3.928884983062744,-9.265560150146484,83.648681640625,175.811767578125,112.0147705078125
10.4099999,-3.028665065765381,-4.666299343109131,-6.888118267059326,65.9332275390625,182.6171875,127.7618408203125
10.4299999,-3.6607344150543213,-5.43723201751709,-4.659116744995117,62.31689453125,188.90380859375,140.869140625
10.4499999,-4.137180328369141,-6.631938934326172,-2.3367409706115723,99.2279052734375,185.5010986328125,143.9971923828125
10.469999900000001,-4.331110954284668,-7.955932140350342,-0.2298433631658554,117.3553466796875,148.040771484375,112.3046875
10.4899999,-4.218583583831787,-9.672574996948242,2.099714994430542,94.1925048828125,132.62939453125,92.2088623046875
10.5099999,-3.8498764038085938,-12.162544250488281,5.2265424728393555,92.0257568359375,153.3203125,108.1390380859375
10.5299999,-3.270479440689087,-14.911087989807129,8.520963668823242,72.906494140625,83.1146240234375,67.0166015625
10.549999900000001,-2.7509377002716064,-17.896657943725586,12.097901344299316,24.444580078125,-16.41845703125,0.2288818359375
10.569999900000001,-2.3798365592956543,-20.092140197753906,14.520833015441895,-39.215087890625,-66.131591796875,-43.2891845703125
10.5899999,-2.2385785579681396,-20.724210739135742,14.913482666015625,-100.7537841796875,-89.202880859375,-62.5457763671875
10.6099999,-2.343923568725586,-19.905393600463867,13.584700584411621,-93.56689453125,-95.4437255859375,-71.136474609375
10.629999900000001,-2.559401512145996,-17.908628463745117,10.96544361114502,-52.4139404296875,-128.47900390625,-103.0731201171875
10.649999900000001,-2.829946517944336,-15.581464767456055,8.396465301513672,-65.673828125,-148.651123046875,-121.52099609375
10.6699999,-3.1052796840667725,-13.074735641479492,5.918466567993164,-113.22021484375,-165.1458740234375,-127.410888671875
10.6899999,-3.404554843902588,-10.644620895385742,3.557783842086792,-148.2696533203125,-188.96484375,-136.7340087890625
10.709999900000001,-3.756502389907837,-8.523358345031738,1.3000515699386597,-138.885498046875,-191.95556640625,-143.2342529296875
10.729999900000001,-4.041412353515625,-6.509834289550781,-1.3215993642807007,-110.4888916015625,-196.3958740234375,-151.458740234375
10.7499999,-4.125209331512451,-4.72376012802124,-4.173093795776367,-93.4906005859375,-195.587158203125,-145.0958251953125
10.7699999,-3.8977603912353516,-2.827552318572998,-7.283161640167236,-88.92822265625,-178.40576171875,-131.6375732421875
10.7899999,-2.4851813316345215,0.7038952708244324,-13.771448135375977,-58.837890625,-123.3673095703125,-82.8704833984375
10.809999900000001,-1.5466543436050415,2.1715409755706787,-16.81926727294922,-32.7301025390625,-91.064453125,-62.1795654296875
10.8299999,-0.6320692300796509,3.1531636714935303,-19.349937438964844,-2.86865234375,-47.0733642578125,-36.1480712890625
10.8499999,0.16998831927776337,3.797203779220581,-21.112070083618164,23.2086181640625,-0.4730224609375,-12.1917724609375
10.8699999,0.7637503147125244,3.955221176147461,-22.074539184570312,43.426513671875,35.491943359375,15.9759521484375
10.889999900000001,1.0223240852355957,3.6128504276275635,-21.765687942504883,64.14794921875,88.3636474609375,50.9033203125
10.9099999,0.8930372595787048,2.7533318996429443,-20.520702362060547,81.329345703125,122.1771240234375,73.9593505859375
10.9299999,0.3926490843296051,1.5825673341751099,-18.296489715576172,87.8448486328125,144.256591796875,88.2415771484375
10.9499999,-0.395043283700943,0.23702596127986908,-15.634137153625488,92.0867919921875,159.8358154296875,107.635498046875
10.969999900000001,-1.3670891523361206,-1.3072341680526733,-12.650961875915527,98.3428955078125,181.0455322265625,132.75146484375
10.9899999,-2.403778553009033,-2.9233202934265137,-9.516951560974121,102.8289794921875,194.732666015625,140.4876708984375
11.0099999,-3.3901896476745605,-4.707000732421875,-6.9455790519714355,116.1346435546875,177.215576171875,138.8397216796875
11.0299999,-4.23773717880249,-6.382941722869873,-4.218583583831787,138.3056640625,185.9283447265625,124.5574951171875
11.049999900000001,-4.738125324249268,-8.315062522888184,-1.3838485479354858,146.6827392578125,205.62744140625,128.265380859375
11.069999900000001,-4.759673118591309,-10.11550235748291,1.525106430053711,112.79296875,166.8853759765625,109.19189453125
11.0899999,-4.321534156799316,-12.196063041687012,4.5609540939331055,63.507080078125,111.75537109375,76.0955810546875
11.1099999,-3.5003228187561035,-14.67166805267334,7.771578788757324,55.17578125,102.60009765625,60.36376953125
11.129999900000001,-2.494758129119873,-17.106571197509766,10.649409294128418,46.69189453125,72.2198486328125,28.228759765625
11.149999900000001,-1.5418659448623657,-19.153614044189453,12.966996192932129,7.598876953125,-2.9144287109375,-16.815185546875
11.1699999,-0.849941611289978,-20.29085922241211,14.626177787780762,-50.0335693359375,-56.1981201171875,-54.0313720703125
11.1899999,-0.5315127968788147,-20.159177780151367,14.867992401123047,-84.320068359375,-90.606689453125,-68.7103271484375
11.209999900000001,-0.5961562395095825,-18.70829200744629,13.539210319519043,-86.6241455078125,-120.1019287109375,-89.6759033203125
11.229999900000001,-0.9840168952941895,-16.33085060119629,11.18092155456543,-74.493408203125,-138.12255859375,-104.522705078125
11.2499999,-1.53707754611969,-13.718775749206543,8.226476669311523,-76.0498046875,-156.3873291015625,-104.2327880859375
11.2699999,-2.1332337856292725,-11.245565414428711,5.298368453979492,-94.66552734375,-166.9921875,-104.766845703125
11.2899999,-2.695871114730835,-9.167398452758789,2.604891538619995,-107.421875,-178.6346435546875,-120.4071044921875
11.309999900000001,-3.2417490482330322,-7.50582218170166,0.2537853717803955,-108.94775390625,-188.3087158203125,-129.3792724609375
11.3299999,-3.758896589279175,-5.928043365478516,-2.1356279850006104,-117.6300048828125,-199.1729736328125,-131.683349609375
11.3499999,-4.132391929626465,-4.218583583831787,-4.599261283874512,-123.59619140625,-195.1904296875,-127.25830078125
11.3699999,-4.2090067863464355,-2.2697031497955322,-7.453149795532227,-115.936279296875,-178.7567138671875,-116.0125732421875
11.389999900000001,-3.8331170082092285,-0.3926490843296051,-10.558429718017578,-97.991943359375,-159.8663330078125,-93.7347412109375
11.4099999,-2.9759926795959473,1.5107412338256836,-13.649343490600586,-66.7724609375,-127.1820068359375,-78.5064697265625
11.4299999,-1.8100165128707886,2.935291290283203,-16.680402755737305,-35.1409912109375,-104.766845703125,-45.34912109375
11.4499999,-0.6200982332229614,3.6774938106536865,-19.160797119140625,-12.20703125,-55.84716796875,-3.326416015625
11.469999900000001,0.3064578175544739,3.6559460163116455,-21.20305061340332,0.91552734375,-6.1798095703125,22.27783203125
11.4899999,0.7613561153411865,2.75812029838562,-22.34747886657715,17.9443359375,48.065185546875,37.139892578125
11.5099999,0.7350199222564697,1.335964560508728,-22.438457489013672,51.57470703125,95.611572265625,51.3458251953125
11.5299999,0.3064578175544739,-0.16998831927776337,-21.550209045410156,67.1844482421875,124.664306640625,62.6068115234375
11.549999900000001,-0.3711012601852417,-1.4053963422775269,-19.651607513427734,74.3255615234375,154.754638671875,77.8656005859375
11.569999900000001,-1.1659762859344482,-2.3702597618103027,-17.039533615112305,84.47265625,184.7381591796875,91.8731689453125
11.5899999,-2.0015525817871094,-3.064578056335449,-14.065935134887695,88.92822265625,194.5648193359375,99.029541015625
11.6099999,-2.806004285812378,-3.5721490383148193,-11.008539199829102,109.6649169921875,197.4639892578125,106.964111328125
11.629999900000001,-3.552995204925537,-3.8953661918640137,-8.429984092712402,114.44091796875,203.125,113.8763427734375
11.649999900000001,-4.220977783203125,-4.266467571258545,-5.75326681137085,107.4676513671875,231.353759765625,126.617431640625
11.6699999,-4.709394931793213,-4.546588897705078,-3.4811692237854004,102.8900146484375,232.72705078125,131.744384765625
11.6899999,-5.094861030578613,-4.8722004890441895,-1.37906014919281,107.818603515625,196.441650390625,126.52587890625
11.709999900000001,-5.2911858558654785,-5.394136428833008,0.6033388376235962,146.4385986328125,197.5860595703125,123.779296875
11.729999900000001,-5.154716491699219,-6.7923502922058105,3.84269380569458,175.7354736328125,231.6131591796875,133.2855224609375
11.7499999,-4.4939165115356445,-9.11233139038086,8.032546997070312,159.332275390625,168.060302734375,109.4970703125
11.7699999,-3.3518824577331543,-12.504915237426758,13.436260223388672,69.305419921875,36.3616943359375,66.436767578125
11.7899999,-2.0231003761291504,-16.40267562866211,18.476055145263672,-42.3583984375,-38.7725830078125,37.506103515625
11.809999900000001,-1.0247182846069336,-19.663578033447266,20.932504653930664,-118.7744140625,-95.21484375,3.7689208984375
11.8299999,-0.7326257228851318,-21.641189575195312,20.180727005004883,-132.2174072265625,-122.039794921875,-44.525146484375
11.8499999,-1.1228805780410767,-21.892580032348633,16.95573616027832,-84.075927734375,-130.4473876953125,-80.963134765625
11.8699999,-1.8914192914962769,-20.448877334594727,12.497733116149902,-70.526123046875,-137.420654296875,-108.2916259765625
11.889999900000001,-2.738966703414917,-17.84638023376465,8.195352554321289,-100.555419921875,-158.0352783203125,-116.8975830078125
11.9099999,-3.4787750244140625,-14.5806884765625,4.632780075073242,-122.9400634765625,-180.7403564453125,-126.5716552734375
11.9299999,-4.060565948486328,-11.410765647888184,1.920149803161621,-130.0201416015625,-189.6209716796875,-135.7879638671875
11.9499999,-4.462791919708252,-8.446743965148926,-0.33279404044151306,-133.758544921875,-194.6868896484375,-139.9993896484375
11.969999900000001,-4.659116744995117,-5.920860767364502,-2.319981336593628,-136.810302734375,-197.998046875,-135.162353515625
11.9899999,-4.599261283874512,-3.5889084339141846,-4.326322555541992,-142.5018310546875,-195.8465576171875,-129.0435791015625
12.0099999,-4.292803764343262,-1.45806884765625,-6.586448669433594,-139.6026611328125,-187.43896484375,-116.5618896484375
12.0299999,-3.737348794937134,0.5578489899635315,-9.210494041442871,-123.870849609375,-168.4417724609375,-95.489501953125
12.049999900000001,-2.9448680877685547,2.382230758666992,-12.260706901550293,-89.019775390625,-142.4560546875,-69.4122314453125
12.069999900000001,-1.9608511924743652,3.9193081855773926,-15.631742477416992,-46.1273193359375,-107.421875,-39.764404296875
12.0899999,-0.9744400978088379,4.8602294921875,-18.729839324951172,-6.317138671875,-48.7823486328125,-5.584716796875
12.1099999,-0.15801730751991272,5.1116204261779785,-21.377826690673828,25.3143310546875,-1.5411376953125,25.970458984375
12.129999900000001,0.2825157940387726,4.520252704620361,-22.886173248291016,52.1697998046875,42.4652099609375,50.506591796875
12.149999900000001,0.24181437492370605,3.2561142444610596,-23.125595092773438,70.831298828125,88.4857177734375,67.718505859375
12.1699999,-0.22026655077934265,1.4987702369689941,-22.05299186706543,89.202880859375,126.0528564453125,80.3985595703125
12.1899999,-0.9864110946655273,-0.3256114423274994,-19.922151565551758,112.213134765625,154.4189453125,89.90478515625
12.209999900000001,-1.8818424940109253,-2.1164743900299072,-16.87433433532715,133.48388671875,180.694580078125,97.442626953125
12.229999900000001,-2.7246015071868896,-3.627215623855591,-13.457807540893555,138.8702392578125,193.4967041015625,97.076416015625
12.2499999,-3.421314239501953,-4.639962673187256,-10.108319282531738,125.6866455078125,191.6046142578125,94.0093994140625
12.2699999,-3.9671921730041504,-5.339069843292236,-7.297526836395264,104.9652099609375,199.249267578125,112.8997802734375
12.289999900000002,-4.410119533538818,-5.846640586853027,-4.7836151123046875,113.3575439453125,222.83935546875,122.98583984375
12.309999900000001,-5.006275653839111,-6.687005519866943,-1.2258312702178955,142.8375244140625,200.4852294921875,88.19580078125
12.3299999,-5.006275653839111,-7.503427982330322,1.0989385843276978,123.291015625,211.9598388671875,99.365234375
12.3499999,-4.620809078216553,-8.724471092224121,3.9408559799194336,99.761962890625,192.07763671875,105.6060791015625
12.3699999,-3.847482204437256,-10.560823440551758,7.271190643310547,63.690185546875,113.1744384765625,80.2459716796875
12.389999900000001,-2.873042106628418,-13.151350021362305,11.197681427001953,36.224365234375,81.085205078125,53.741455078125
12.4099999,-1.8602946996688843,-15.696386337280273,14.24071216583252,0.0457763671875,20.2484130859375,24.5819091796875
12.4299999,-1.1444283723831177,-17.769765853881836,16.452953338623047,-44.6014404296875,-29.47998046875,-4.5928955078125
12.4499999,-0.8236053586006165,-18.796876907348633,17.096994400024414,-95.977783203125,-76.6448974609375,-32.745361328125
12.469999900000001,-0.9696516990661621,-18.768146514892578,16.28057098388672,-115.6463623046875,-111.2213134765625,-54.8095703125
12.4899999,-1.4676456451416016,-17.712305068969727,14.16409683227539,-101.0894775390625,-139.83154296875,-78.155517578125
12.5099999,-2.207453966140747,-16.033967971801758,11.27190113067627,-91.85791015625,-160.400390625,-99.4110107421875
12.5299999,-3.0550012588500977,-14.09705924987793,8.128314971923828,-101.4556884765625,-181.5643310546875,-109.80224609375
12.549999900000001,-3.890577793121338,-12.12902545928955,5.0469770431518555,-116.790771484375,-196.136474609375,-119.68994140625
12.569999900000001,-4.599261283874512,-10.362105369567871,2.2816741466522217,-128.082275390625,-205.108642578125,-129.150390625
12.5899999,-5.130774021148682,-8.769960403442383,-0.1867477297782898,-132.14111328125,-206.2835693359375,-138.24462890625
12.6099999,-5.43723201751709,-7.175422668457031,-2.382230758666992,-131.6375732421875,-211.3037109375,-145.7977294921875
12.629999900000001,-5.504269599914551,-5.410895824432373,-4.644751071929932,-132.0648193359375,-216.0491943359375,-143.8446044921875
12.649999900000001,-5.307945251464844,-3.3686418533325195,-7.173028469085693,-115.6158447265625,-204.498291015625,-128.3721923828125
12.6699999,-4.78122091293335,-1.0821791887283325,-10.010157585144043,-94.05517578125,-171.44775390625,-103.6834716796875
12.6899999,-3.974374771118164,1.048660397529602,-13.201627731323242,-75.592041015625,-136.04736328125,-72.174072265625
12.709999900000001,-2.964021682739258,2.8826189041137695,-16.34760856628418,-49.591064453125,-102.3406982421875,-47.8668212890625
12.729999900000001,-1.889025092124939,4.060565948486328,-19.117700576782227,-14.617919921875,-53.28369140625,-21.1029052734375
12.7499999,-0.9433154463768005,4.505887508392334,-21.279664993286133,16.7388916015625,-5.8441162109375,10.4522705078125
12.7699999,-0.2849099934101105,4.247313976287842,-22.555774688720703,40.8172607421875,38.14697265625,34.5001220703125
12.789999900000002,-0.028730420395731926,3.40216064453125,-22.771251678466797,60.6536865234375,81.390380859375,53.7872314453125
12.809999900000001,-0.22744916379451752,2.0614075660705566,-21.923704147338867,76.11083984375,118.682861328125,75.1800537109375
12.8299999,-0.828393816947937,0.6153098344802856,-20.269311904907227,93.7347412109375,148.2391357421875,89.1571044921875
12.8499999,-1.6974890232086182,-0.8451532125473022,-17.86792755126953,115.5242919921875,179.8858642578125,97.412109375
12.8699999,-2.765302896499634,-1.9776105880737305,-15.294160842895508,124.1912841796875,198.5626220703125,102.6153564453125
12.889999900000001,-3.890577793121338,-2.9759926795959473,-12.22000503540039,121.795654296875,220.184326171875,120.574951171875
12.9099999,-4.927267074584961,-3.7612907886505127,-9.105149269104004,107.3455810546875,228.6834716796875,139.312744140625
12.9299999,-5.7772088050842285,-4.508281707763672,-5.995080947875977,95.0469970703125,216.9952392578125,137.4664306640625
12.9499999,-6.256049156188965,-5.4659624099731445,-2.942473888397217,91.949462890625,210.9375,137.02392578125
12.969999900000001,-6.282385349273682,-7.103596210479736,0.4596867263317108,125.030517578125,221.0235595703125,132.9193115234375
12.9899999,-5.762843608856201,-8.918401718139648,3.56017804145813,131.2255859375,168.8385009765625,100.7843017578125
13.0099999,-4.802768707275391,-11.314997673034668,6.936002254486084,81.787109375,122.1771240234375,73.6083984375
13.0299999,-3.581725835800171,-14.178462028503418,10.340557098388672,51.239013671875,112.3809814453125,77.94189453125
13.049999900000001,-2.346317768096924,-16.76659393310547,13.115436553955078,11.4593505859375,44.708251953125,38.9251708984375
13.069999900000001,-1.4245500564575195,-19.223045349121094,15.294160842895508,-28.86962890625,-20.5078125,-13.7481689453125
13.0899999,-0.9576807022094727,-20.310012817382812,16.314090728759766,-68.3135986328125,-62.07275390625,-56.5948486328125
13.1099999,-0.9481038451194763,-20.072986602783203,15.631742477416992,-101.07421875,-102.508544921875,-66.925048828125
13.129999900000001,-1.3431471586227417,-18.454505920410156,13.697227478027344,-108.70361328125,-117.7215576171875,-75.7293701171875
13.149999900000001,-1.98958158493042,-16.146495819091797,10.723628997802734,-88.2110595703125,-140.380859375,-100.7080078125
13.1699999,-2.7006595134735107,-13.694833755493164,7.680599212646484,-74.76806640625,-162.0330810546875,-120.7275390625
13.1899999,-3.3518824577331543,-11.444284439086914,4.675876140594482,-92.2088623046875,-180.6182861328125,-122.0703125
13.209999900000001,-3.9049429893493652,-9.442731857299805,2.1092917919158936,-123.443603515625,-192.1539306640625,-120.17822265625
13.229999900000001,-4.371812343597412,-7.826645374298096,-0.3495534360408783,-141.9830322265625,-202.0416259765625,-122.4822998046875
13.2499999,-4.752490520477295,-6.378153324127197,-2.6575639247894287,-142.7764892578125,-200.0274658203125,-136.53564453125
13.2699999,-4.9583916664123535,-4.879383087158203,-5.102043628692627,-139.3280029296875,-197.9827880859375,-141.6015625
13.289999900000002,-4.874594688415527,-3.0621838569641113,-7.580042362213135,-130.096435546875,-183.3038330078125,-127.5177001953125
13.309999900000001,-4.381389141082764,-0.9840168952941895,-10.237606048583984,-117.24853515625,-164.5355224609375,-101.6387939453125
13.3299999,-3.5482068061828613,1.1492167711257935,-12.811373710632324,-88.8824462890625,-129.5318603515625,-74.462890625
13.3499999,-2.535459518432617,2.9257144927978516,-15.401899337768555,-55.4046630859375,-101.898193359375,-44.921875
13.3699999,-1.5610195398330688,4.141968727111816,-17.73624610900879,-21.636962890625,-63.1866455078125,-14.70947265625
13.389999900000001,-0.8068459630012512,4.809951305389404,-19.902997970581055,13.3819580078125,-21.42333984375,8.4686279296875
13.4099999,-0.4213795065879822,4.884171485900879,-21.641189575195312,50.29296875,26.1383056640625,34.1339111328125
13.4299999,-0.4812345504760742,4.364629745483398,-22.572534561157227,96.0845947265625,83.6944580078125,61.798095703125
13.4499999,-0.9864110946655273,3.3877954483032227,-22.572534561157227,121.7041015625,120.7122802734375,78.67431640625
13.469999900000001,-1.8531121015548706,1.9919757843017578,-21.282058715820312,131.53076171875,156.55517578125,89.019775390625
13.4899999,-2.9328970909118652,0.4165911078453064,-19.14643096923828,143.8446044921875,181.2591552734375,100.860595703125
13.5099999,-4.065354347229004,-1.216254472732544,-16.127342224121094,165.1458740234375,213.531494140625,108.734130859375
13.5299999,-5.054159641265869,-2.8395233154296875,-12.507309913635254,170.9136962890625,232.7117919921875,110.90087890625
13.549999900000001,-5.870582580566406,-4.043806552886963,-9.14345645904541,140.0146484375,213.470458984375,105.5908203125
13.569999900000001,-6.507440090179443,-4.963180065155029,-5.750872611999512,101.6693115234375,225.7537841796875,123.0926513671875
13.5899999,-6.914454460144043,-5.793968200683594,-2.9735984802246094,81.8634033203125,236.7401123046875,144.195556640625
13.6099999,-7.041347026824951,-6.801927089691162,-0.1364694982767105,115.692138671875,238.2659912109375,130.3863525390625
13.629999900000001,-6.766014099121094,-8.075642585754395,2.360682964324951,125.335693359375,192.6116943359375,101.6082763671875
13.649999900000001,-6.0405707359313965,-9.710882186889648,5.058948040008545,101.3641357421875,167.083740234375,86.822509765625
13.6699999,-4.987122058868408,-11.815385818481445,7.967903137207031,79.6051025390625,167.66357421875,96.1761474609375
13.6899999,-3.7421371936798096,-14.180856704711914,10.836156845092773,42.05322265625,110.931396484375,73.8372802734375
13.709999900000001,-2.559401512145996,-16.95094871520996,13.75708293914795,-4.486083984375,38.26904296875,27.8472900390625
13.729999900000001,-1.6065093278884888,-19.24698829650879,16.11058235168457,-33.111572265625,-14.007568359375,-20.81298828125
13.7499999,-1.0223240852355957,-20.444087982177734,17.003620147705078,-72.479248046875,-63.9495849609375,-56.21337890625
13.7699999,-0.9074024558067322,-20.029891967773438,16.385915756225586,-97.198486328125,-97.0001220703125,-74.6307373046875
13.789999900000002,-1.2473790645599365,-18.253393173217773,14.25268268585205,-101.6082763671875,-124.5880126953125,-93.6431884765625
13.809999900000001,-1.8986018896102905,-15.902287483215332,11.21204662322998,-101.86767578125,-151.4739990234375,-102.203369140625
13.8299999,-3.445256233215332,-11.389217376708984,4.687847137451172,-102.23388671875,-177.1240234375,-126.40380859375
13.8499999,-4.101267337799072,-9.861717224121094,1.941697597503662,-111.63330078125,-190.00244140625,-133.148193359375
13.8699999,-4.632780075073242,-8.635885238647461,-0.3447650372982025,-121.612548828125,-196.4874267578125,-145.0042724609375
13.889999900000001,-5.003881454467773,-7.436390399932861,-2.406172752380371,-133.6822509765625,-198.7762451171875,-151.9622802734375
13.9099999,-5.243301868438721,-6.143521785736084,-4.288015365600586,-130.126953125,-190.0634765625,-145.7977294921875
13.9299999,-5.233725070953369,-4.417302131652832,-6.172252178192139,-128.021240234375,-183.2122802734375,-144.6685791015625
13.9499999,-4.9583916664123535,-2.583343744277954,-7.955932140350342,-120.2850341796875,-171.9512939453125,-130.9356689453125
13.969999900000001,-4.345476150512695,-0.6655880808830261,-9.80904483795166,-110.3668212890625,-158.5845947265625,-109.7412109375
13.9899999,-3.469198226928711,0.9816226959228516,-11.568782806396484,-86.944580078125,-133.97216796875,-84.7930908203125
14.0099999,-2.4803929328918457,2.22660756111145,-13.4506254196167,-60.9588623046875,-107.879638671875,-60.7147216796875
14.0299999,-1.5634137392044067,3.0095114707946777,-15.375563621520996,-38.2080078125,-83.9691162109375,-36.102294921875
14.049999900000001,-0.8619126081466675,3.4093432426452637,-17.32683753967285,-20.751953125,-47.1649169921875,-7.476806640625
14.069999900000001,-0.4429273009300232,3.428496837615967,-19.1440372467041,2.0904541015625,-0.3814697265625,24.23095703125
14.0899999,-0.3064578175544739,3.112462282180786,-20.47281837463379,32.0281982421875,40.46630859375,45.95947265625
14.1099999,-0.47884035110473633,2.494758129119873,-21.045032501220703,61.6302490234375,76.263427734375,58.4564208984375
14.129999900000001,-0.9145850539207458,1.5610195398330688,-20.64759635925293,92.46826171875,111.572265625,72.0672607421875
14.149999900000001,-1.577778935432434,0.7422025203704834,-19.3044490814209,120.7733154296875,142.1051025390625,78.8116455078125
14.1699999,-2.3918075561523438,0,-17.30529022216797,135.772705078125,163.2537841796875,97.71728515625
14.1899999,-3.308786630630493,-0.7038952708244324,-14.834473609924316,150.1617431640625,179.7027587890625,121.1395263671875
14.209999900000001,-4.273650169372559,-1.3646949529647827,-12.181697845458984,162.9638671875,203.9947509765625,122.4517822265625
14.229999900000001,-5.183446884155273,-2.38462495803833,-9.57201862335205,173.9044189453125,220.3369140625,109.43603515625
14.2499999,-5.942408561706543,-2.9951462745666504,-6.801927089691162,176.0711669921875,235.5499267578125,92.3919677734375
14.2699999,-6.457161903381348,-4.091690540313721,-4.335899353027344,123.504638671875,221.86279296875,139.95361328125
14.289999900000002,-6.648698329925537,-5.015852451324463,-1.647210717201233,127.5482177734375,228.515625,140.0909423828125
14.309999900000001,-6.414066314697266,-6.823474884033203,1.381454348564148,132.232666015625,224.0447998046875,124.81689453125
14.3299999,-5.6910176277160645,-9.435548782348633,4.853046894073486,122.833251953125,191.89453125,105.499267578125
14.3499999,-4.513070106506348,-12.770671844482422,8.753201484680176,96.8017578125,139.6484375,77.423095703125
14.3699999,-3.0765492916107178,-16.072275161743164,12.749124526977539,51.422119140625,89.3707275390625,36.7584228515625
14.389999900000001,-1.7070658206939697,-18.669984817504883,15.7107515335083,-15.2130126953125,29.1595458984375,11.5203857421875
14.4099999,-0.7230489253997803,-20.17115020751953,17.573440551757812,-68.695068359375,-16.632080078125,-9.70458984375
14.4299999,-0.22505496442317963,-20.142419815063477,17.504009246826172,-89.3402099609375,-65.12451171875,-42.2515869140625
14.4499999,-0.2059013396501541,-18.873491287231445,16.012420654296875,-80.1544189453125,-97.6104736328125,-71.8536376953125
14.469999900000001,-0.5099649429321289,-16.64927864074707,13.28063678741455,-80.810546875,-126.068115234375,-83.1146240234375
14.4899999,-0.993593692779541,-13.872004508972168,9.99339771270752,-96.00830078125,-147.8118896484375,-85.63232421875
14.5099999,-1.577778935432434,-11.377246856689453,6.6846113204956055,-115.05126953125,-165.6646728515625,-81.024169921875
14.5299999,-2.2002713680267334,-9.466673851013184,3.5889084339141846,-111.053466796875,-177.8106689453125,-91.00341796875
14.549999900000001,-2.80361008644104,-8.149862289428711,0.7469909191131592,-89.447021484375,-187.0880126953125,-110.83984375
14.569999900000001,-3.294421434402466,-7.046135425567627,-1.941697597503662,-100.9368896484375,-185.9283447265625,-113.9068603515625
14.5899999,-3.5889084339141846,-5.916072368621826,-4.6471452713012695,-131.4544677734375,-174.9114990234375,-95.7183837890625
14.6099999,-3.581725835800171,-4.587290287017822,-7.350199222564697,-127.5634765625,-152.64892578125,-82.6263427734375
14.629999900000001,-3.2752678394317627,-3.3518824577331543,-9.75397777557373,-83.7249755859375,-123.870849609375,-78.369140625
14.649999900000001,-2.698265314102173,-2.2457611560821533,-11.63342571258545,-59.3719482421875,-100.2655029296875,-69.39697265625
14.6699999,-1.9776105880737305,-1.647210717201233,-12.7946138381958,-64.8040771484375,-91.217041015625,-44.281005859375
14.6899999,-1.235408067703247,-1.3718775510787964,-13.407529830932617,-64.27001953125,-76.0650634765625,-26.9012451171875
14.709999900000001,-0.586579442024231,-1.5275006294250488,-13.615824699401855,-44.525146484375,-53.3294677734375,-21.05712890625
14.729999900000001,-0.10295066982507706,-1.9488801956176758,-13.704410552978516,-14.373779296875,-29.3426513671875,-10.3607177734375
14.7499999,0.2082955539226532,-2.5689783096313477,-13.512874603271484,0.3662109375,-9.46044921875,5.584716796875
14.7699999,0.38546648621559143,-3.31118106842041,-13.08910083770752,11.1083984375,4.69970703125,15.167236328125
14.789999900000002,0.4620809257030487,-4.185064792633057,-12.224793434143066,21.6827392578125,16.2506103515625,14.9078369140625
14.809999900000001,0.48602294921875,-5.190629482269287,-11.113883972167969,25.390625,23.0255126953125,18.2342529296875
14.8299999,0.47644615173339844,-6.184223175048828,-9.75397777557373,28.9764404296875,27.6947021484375,19.8822021484375
14.8499999,0.4620809257030487,-7.062894821166992,-8.358158111572266,29.541015625,28.839111328125,18.585205078125
14.8699999,0.44771572947502136,-7.757213592529297,-7.0341644287109375,22.2320556640625,27.77099609375,16.29638671875
14.889999900000001,0.45489832758903503,-8.288725852966309,-5.949591159820557,15.8843994140625,24.169921875,16.78466796875
14.9099999,0.47644615173339844,-8.556877136230469,-5.2049946784973145,13.519287109375,20.355224609375,12.542724609375
14.9299999,0.5099649429321289,-8.686163902282715,-4.809951305389404,15.4876708984375,17.608642578125,9.1094970703125
14.9499999,0.5339069962501526,-8.686163902282715,-4.750096321105957,14.892578125,16.2506103515625,9.796142578125
14.969999900000001,0.5602431893348694,-8.556877136230469,-4.888959884643555,10.8184814453125,13.7939453125,6.4697265625
14.9899999,0.5913678407669067,-8.389283180236816,-5.135562419891357,10.3759765625,12.725830078125,4.9896240234375
15.0099999,0.6344634294509888,-8.17380428314209,-5.382165431976318,14.4500732421875,10.92529296875,4.8675537109375
15.0299999,0.6871358752250671,-8.001421928405762,-5.542576789855957,14.9993896484375,10.6658935546875,5.5389404296875
15.049999900000001,0.7374141216278076,-7.888894557952881,-5.6191911697387695,11.0626220703125,9.857177734375,5.1116943359375
15.069999900000001,0.7661445140838623,-7.903259754180908,-5.537788391113281,5.9967041015625,8.9874267578125,3.90625
15.0899999,0.7709329724311829,-8.003816604614258,-5.461174011230469,5.340576171875,6.1492919921875,2.62451171875
15.1099999,0.751779317855835,-8.118738174438477,-5.303156852722168,7.0953369140625,5.5084228515625,0.8087158203125
15.129999900000001,0.7350199222564697,-8.252813339233398,-5.245696067810059,4.82177734375,3.2806396484375,2.62451171875
15.149999900000001,0.730231523513794,-8.315062522888184,-5.2265424728393555,-1.0223388671875,1.5106201171875,2.44140625
15.1699999,0.7374141216278076,-8.396465301513672,-5.2911858558654785,-0.9002685546875,0.1220703125,1.6632080078125
15.1899999,0.7445967197418213,-8.374917984008789,-5.413290023803711,-1.220703125,1.1444091796875,-2.9144287109375
15.209999900000001,0.7374141216278076,-8.26239013671875,-5.585672378540039,-4.0740966796875,0.2593994140625,-4.364013671875
15.229999900000001,0.7110779285430908,-8.085219383239746,-5.781997203826904,-4.1961669921875,0.0762939453125,-0.9613037109375
15.2499999,0.689530074596405,-7.836222171783447,-5.947196960449219,-2.01416015625,2.99072265625,-0.823974609375
15.2699999,0.6943184733390808,-7.65186882019043,-6.078877925872803,1.3275146484375,3.1280517578125,-1.3885498046875
15.289999900000002,0.7158663272857666,-7.532158374786377,-6.124367713928223,2.8076171875,1.861572265625,-0.42724609375
15.309999900000001,0.7398083209991455,-7.539340972900391,-6.069301128387451,1.678466796875,2.593994140625,1.52587890625
15.3299999,0.751779317855835,-7.613561630249023,-5.987898349761963,-0.732421875,2.288818359375,1.7242431640625
15.3499999,0.7134721279144287,-7.936778545379639,-5.8657941818237305,1.6326904296875,2.838134765625,-0.091552734375
15.3699999,0.7015010714530945,-8.042123794555664,-5.851428985595703,2.3193359375,3.7689208984375,-2.2125244140625
15.389999900000001,0.7086837291717529,-8.149862289428711,-5.846640586853027,0.30517578125,2.8228759765625,-0.7171630859375
15.4099999,0.7374141216278076,-8.1139497756958,-5.827486991882324,-0.6866455078125,2.5177001953125,-0.8544921875
15.4299999,0.7637503147125244,-8.068459510803223,-5.791574001312256,-2.9449462890625,2.7923583984375,-0.732421875
15.4499999,0.7924807667732239,-7.936778545379639,-5.78678560256958,-2.3040771484375,2.0751953125,-0.6561279296875
15.469999900000001,0.8068459630012512,-7.841010570526123,-5.784391403198242,-0.18310546875,1.8463134765625,0.823974609375
15.4899999,0.8164227604866028,-7.740454196929932,-5.793968200683594,-0.1220703125,2.471923828125,1.2359619140625
15.5099999,0.8140285611152649,-7.7213006019592285,-5.7987565994262695,0.4730224609375,1.40380859375,1.6326904296875
15.5299999,0.8092401623725891,-7.728483200073242,-5.796362400054932,0.8544921875,1.0528564453125,1.678466796875
15.549999900000001,0.8020575642585754,-7.785943984985352,-5.784391403198242,0.0152587890625,1.40380859375,1.1444091796875
15.569999900000001,0.7876923680305481,-7.8529815673828125,-5.770026206970215,-0.4119873046875,1.1749267578125,2.3956298828125
15.5899999,0.7733271718025208,-7.927201747894287,-5.750872611999512,0.244140625,1.28173828125,2.25830078125
15.6099999,0.7589619159698486,-7.972691535949707,-5.743690013885498,1.617431640625,1.495361328125,1.1138916015625
15.629999900000001,0.7374141216278076,-7.994239330291748,-5.743690013885498,2.227783203125,0.823974609375,0.5950927734375
15.649999900000001,0.7230489253997803,-7.996633529663086,-5.7772088050842285,0.9002685546875,0.06103515625,1.739501953125
15.6699999,0.7158663272857666,-7.975085735321045,-5.834669589996338,0.5340576171875,0.732421875,0.4425048828125
15.6899999,0.7206547260284424,-7.953537940979004,-5.889736175537109,1.922607421875,1.7547607421875,-0.0457763671875
15.709999900000001,0.7374141216278076,-7.9415669441223145,-5.932831764221191,1.9378662109375,1.8768310546875,0.640869140625
15.729999900000001,0.7589619159698486,-7.931990146636963,-5.899312973022461,2.9144287109375,1.8768310546875,1.1138916015625
15.7499999,0.768538773059845,-7.922413349151611,-5.829881191253662,2.7923583984375,1.3885498046875,0.67138671875
15.7699999,0.7661445140838623,-7.934384346008301,-5.738901615142822,0.30517578125,0.579833984375,1.0528564453125
15.789999900000002,0.7541735172271729,-7.948749542236328,-5.705382823944092,-2.5482177734375,0.2899169921875,1.0986328125
15.809999900000001,0.7398083209991455,-7.951143741607666,-5.729324817657471,-1.983642578125,1.0986328125,1.190185546875
15.8299999,0.7326257228851318,-7.975085735321045,-5.805939197540283,1.0833740234375,1.617431640625,1.800537109375
15.8499999,0.7326257228851318,-7.982268333435059,-5.853823184967041,1.953125,1.8768310546875,0.79345703125
15.869999900000002,0.7350199222564697,-7.994239330291748,-5.863399982452393,1.4801025390625,1.77001953125,-0.3509521484375
15.889999900000001,0.7398083209991455,-7.979874134063721,-5.841852188110352,0.5340576171875,1.2359619140625,-0.6103515625
15.9099999,0.7398083209991455,-7.953537940979004,-5.805939197540283,1.2054443359375,1.8157958984375,0.6561279296875
15.9299999,0.7422025203704834,-7.943961143493652,-5.7987565994262695,1.251220703125,1.8463134765625,1.6326904296875
15.9499999,0.7493851184844971,-7.94635534286499,-5.779603004455566,0.732421875,2.38037109375,0.6561279296875
15.969999900000001,0.7541735172271729,-7.972691535949707,-5.750872611999512,0.6866455078125,1.953125,0.244140625
15.9899999,0.7565677165985107,-7.989450931549072,-5.710171222686768,-0.42724609375,1.03759765625,0.42724609375
16.0099999,0.7493851184844971,-7.9846625328063965,-5.6910176277160645,-1.220703125,0.457763671875,0.9002685546875
16.0299999,0.7350199222564697,-7.972691535949707,-5.693411827087402,-0.213623046875,1.1444091796875,1.46484375
16.0499999,0.7206547260284424,-7.95832633972168,-5.750872611999512,0.9613037109375,1.373291015625,0.67138671875
16.0699999,0.7134721279144287,-7.960720539093018,-5.810727596282959,1.77001953125,1.5411376953125,0.274658203125
16.089999900000002,0.7134721279144287,-7.965508937835693,-5.856217384338379,2.838134765625,2.2125244140625,0.5340576171875
16.109999900000002,0.7158663272857666,-7.977479934692383,-5.870582580566406,2.593994140625,2.25830078125,0.335693359375
16.1299999,0.7254431247711182,-7.982268333435059,-5.839457988739014,1.03759765625,2.8076171875,-0.1068115234375
16.1499999,0.7374141216278076,-7.989450931549072,-5.78678560256958,0.2593994140625,2.50244140625,-0.0457763671875
16.1699999,0.7445967197418213,-7.996633529663086,-5.717353820800781,0.2288818359375,2.13623046875,0.1068115234375
16.1899999,0.7541735172271729,-8.01339340209961,-5.664681434631348,0.701904296875,1.5716552734375,-0.091552734375
16.2099999,0.751779317855835,-8.039729118347168,-5.614402770996094,0.7781982421875,1.3427734375,-0.152587890625
16.2299999,0.7493851184844971,-8.075642585754395,-5.585672378540039,-0.4730224609375,1.3275146484375,-0.4730224609375
16.249999900000002,0.7469909191131592,-8.111555099487305,-5.580883979797363,-1.7852783203125,0.6103515625,-0.9765625
16.269999900000002,0.7445967197418213,-8.11634349822998,-5.571307182312012,-2.2430419921875,0.7171630859375,-1.7547607421875
16.2899999,0.7493851184844971,-8.092401504516602,-5.616796970367432,-2.13623046875,-0.091552734375,-1.6326904296875
16.3099999,0.7541735172271729,-8.020575523376465,-5.676652431488037,-1.983642578125,0.0152587890625,-0.579833984375
16.3299999,0.7589619159698486,-7.948749542236328,-5.758055210113525,-0.9307861328125,0.5340576171875,-0.1983642578125
16.3499999,0.7637503147125244,-7.879317760467529,-5.849034786224365,0.2593994140625,1.373291015625,-0.5950927734375
16.3699999,0.768538773059845,-7.819462776184082,-5.901707172393799,0.3204345703125,2.197265625,-0.762939453125
16.3899999,0.7733271718025208,-7.817068576812744,-5.9088897705078125,0.67138671875,1.739501953125,1.1444091796875
16.4099999,0.7781155705451965,-7.8098859786987305,-5.870582580566406,1.6937255859375,1.6632080078125,1.0833740234375
16.429999900000002,0.7805097699165344,-7.848193168640137,-5.7772088050842285,1.6937255859375,1.3275146484375,1.0833740234375
16.4499999,0.7805097699165344,-7.91283655166626,-5.686229228973389,2.105712890625,-0.0762939453125,1.64794921875
16.4699999,0.7733271718025208,-7.965508937835693,-5.612008571624756,1.5411376953125,-0.5340576171875,1.2969970703125
16.4899999,0.7637503147125244,-8.020575523376465,-5.588066577911377,-0.396728515625,-0.3814697265625,0.8697509765625
16.5099999,0.7445967197418213,-8.061277389526367,-5.640739440917969,-0.701904296875,0.1678466796875,0.396728515625
16.5299999,0.730231523513794,-8.085219383239746,-5.714959621429443,0.091552734375,1.312255859375,-0.2288818359375
16.5499999,0.7158663272857666,-8.10437297821045,-5.822698593139648,0.0457763671875,1.1749267578125,-0.9765625
16.5699999,0.7182605266571045,-8.085219383239746,-5.8657941818237305,-0.1068115234375,2.349853515625,-1.373291015625
16.589999900000002,0.730231523513794,-8.04930591583252,-5.875370979309082,0.1220703125,1.983642578125,-0.7476806640625
16.609999900000002,0.751779317855835,-7.982268333435059,-5.805939197540283,0.1373291015625,2.1820068359375,-0.5950927734375
16.6299999,0.7757213711738586,-7.939172744750977,-5.726930618286133,0.1220703125,1.3580322265625,0.1983642578125
16.6499999,0.7852981686592102,-7.905653953552246,-5.643133640289307,-0.946044921875,1.434326171875,-0.1983642578125
16.6699999,0.7876923680305481,-7.903259754180908,-5.609614372253418,-0.9613037109375,0.823974609375,0.1678466796875
16.6899999,0.7805097699165344,-7.927201747894287,-5.628767967224121,0.4425048828125,0.6256103515625,0.5340576171875
16.7099999,0.7661445140838623,-7.965508937835693,-5.681440830230713,1.03759765625,1.0986328125,0.5950927734375
16.7299999,0.7589619159698486,-7.996633529663086,-5.724536418914795,1.28173828125,1.46484375,-0.54931640625
16.749999900000002,0.7565677165985107,-8.02536392211914,-5.746084213256836,0.3204345703125,1.2359619140625,-0.6866455078125
16.769999900000002,0.7565677165985107,-8.027758598327637,-5.717353820800781,-0.1373291015625,0.640869140625,-0.0457763671875
16.7899999,0.7661445140838623,-8.006210327148438,-5.664681434631348,0.18310546875,-0.2593994140625,0.2899169921875
16.8099999,0.768538773059845,-7.989450931549072,-5.602431774139404,1.0833740234375,-0.8392333984375,0.7171630859375
16.8299999,0.7733271718025208,-7.965508937835693,-5.559336185455322,0.823974609375,-1.9378662109375,0.4119873046875
16.8499999,0.768538773059845,-7.967903137207031,-5.544970989227295,-0.244140625,-2.86865234375,0.9307861328125
16.8699999,0.7637503147125244,-7.965508937835693,-5.583278179168701,-0.2899169921875,-2.716064453125,0.8697509765625
16.8899999,0.7326257228851318,-7.960720539093018,-5.770026206970215,1.0223388671875,-0.0457763671875,0.8392333984375
16.9099999,0.7182605266571045,-7.977479934692383,-5.851428985595703,1.2054443359375,0.8544921875,1.373291015625
16.929999900000002,0.7038952708244324,-8.003816604614258,-5.892130374908447,0.8087158203125,0.7476806640625,0.6103515625
16.9499999,0.6991068720817566,-8.051700592041016,-5.880159378051758,-0.3204345703125,1.2664794921875,-0.244140625
16.9699999,0.6967126727104187,-8.099584579467773,-5.834669589996338,0.091552734375,1.5716552734375,-1.1138916015625
16.9899999,0.7038952708244324,-8.099584579467773,-5.779603004455566,0.2899169921875,1.4190673828125,-1.52587890625
17.0099999,0.7158663272857666,-8.078036308288574,-5.710171222686768,-0.213623046875,1.4495849609375,0.0762939453125
17.0299999,0.730231523513794,-8.032546997070312,-5.657498836517334,-1.28173828125,1.15966796875,0.6256103515625
17.0499999,0.7398083209991455,-7.979874134063721,-5.628767967224121,-1.5411376953125,0.946044921875,0.091552734375
17.0699999,0.7445967197418213,-7.953537940979004,-5.626373767852783,-0.244140625,0.7781982421875,-0.152587890625
17.089999900000002,0.7374141216278076,-7.951143741607666,-5.659893035888672,0.8544921875,0.732421875,0.946044921875
17.109999900000002,0.7254431247711182,-7.953537940979004,-5.702988624572754,0.030517578125,1.2359619140625,0.457763671875
17.1299999,0.7110779285430908,-7.989450931549072,-5.7556610107421875,-0.946044921875,1.15966796875,0.4119873046875
17.1499999,0.7038952708244324,-8.008605003356934,-5.774814605712891,-0.3204345703125,1.800537109375,-0.213623046875
17.1699999,0.7015010714530945,-8.022970199584961,-5.774814605712891,-0.1220703125,1.739501953125,0
17.1899999,0.7110779285430908,-8.030152320861816,-5.7556610107421875,-0.67138671875,1.3427734375,0.274658203125
17.2099999,0.7230489253997803,-8.001421928405762,-5.731719017028809,-1.3580322265625,1.5716552734375,-0.3662109375
17.2299999,0.7326257228851318,-7.996633529663086,-5.726930618286133,-0.9918212890625,1.7242431640625,0.6561279296875
17.249999900000002,0.7469909191131592,-7.9846625328063965,-5.724536418914795,0.67138671875,2.13623046875,0.3814697265625
17.269999900000002,0.7565677165985107,-7.95832633972168,-5.726930618286133,0.9918212890625,2.0294189453125,-0.1983642578125
17.2899999,0.7637503147125244,-7.965508937835693,-5.705382823944092,0.7781982421875,1.5869140625,0.9307861328125
17.3099999,0.768538773059845,-7.9415669441223145,-5.671864032745361,-0.0457763671875,1.251220703125,0.396728515625
17.3299999,0.7613561153411865,-7.955932140350342,-5.647922039031982,0.457763671875,0.6103515625,0.946044921875
17.3499999,0.7493851184844971,-7.975085735321045,-5.633556365966797,0,0.640869140625,1.46484375
17.3699999,0.7326257228851318,-8.030152320861816,-5.6455278396606445,-0.701904296875,0.91552734375,1.068115234375
17.3899999,0.7134721279144287,-8.109161376953125,-5.664681434631348,-0.4425048828125,1.2054443359375,0.3204345703125
17.409999900000003,0.6991068720817566,-8.161833763122559,-5.674258232116699,-0.9002685546875,1.190185546875,-1.678466796875
17.429999900000002,0.6991068720817566,-8.17380428314209,-5.679046630859375,-0.885009765625,0.732421875,-2.227783203125
17.4499999,0.706289529800415,-8.135497093200684,-5.674258232116699,-1.4495849609375,0.48828125,-0.732421875
17.4699999,0.7254431247711182,-8.04930591583252,-5.664681434631348,-2.2735595703125,0.885009765625,-0.2593994140625
17.4899999,0.7445967197418213,-7.972691535949707,-5.671864032745361,-1.64794921875,0.457763671875,-0.213623046875
17.5099999,0.7565677165985107,-7.90086555480957,-5.6670756340026855,-0.9613037109375,0.5340576171875,-0.5340576171875
17.5299999,0.7637503147125244,-7.864952564239502,-5.688623428344727,-1.0528564453125,0.1983642578125,0.274658203125
17.5499999,0.7589619159698486,-7.862558364868164,-5.719748020172119,-0.7171630859375,-0.0457763671875,1.03759765625
17.5699999,0.7469909191131592,-7.872135162353516,-5.760449409484863,-0.4119873046875,0.6256103515625,0.48828125
17.589999900000002,0.7326257228851318,-7.922413349151611,-5.808333396911621,-0.518798828125,0.79345703125,0.48828125
17.609999900000002,0.7182605266571045,-7.989450931549072,-5.837063789367676,-0.1678466796875,1.2054443359375,0.3204345703125
17.6299999,0.7110779285430908,-8.01339340209961,-5.837063789367676,0.579833984375,1.800537109375,-1.251220703125
17.6499999,0.7134721279144287,-8.066065788269043,-5.808333396911621,0.1373291015625,1.7242431640625,0.3662109375
17.6699999,0.7230489253997803,-8.054094314575195,-5.746084213256836,-0.79345703125,1.373291015625,0.4425048828125
17.6899999,0.7350199222564697,-8.051700592041016,-5.6910176277160645,-1.0223388671875,0.701904296875,-0.3509521484375
17.7099999,0.7422025203704834,-8.030152320861816,-5.643133640289307,-1.0528564453125,0.79345703125,-0.6256103515625
17.7299999,0.7445967197418213,-8.008605003356934,-5.640739440917969,-1.5869140625,0.5645751953125,-0.6256103515625
17.749999900000002,0.7469909191131592,-7.967903137207031,-5.6670756340026855,-1.46484375,0.518798828125,-0.4730224609375
17.769999900000002,0.7469909191131592,-7.951143741607666,-5.724536418914795,-0.7476806640625,0.9918212890625,0.396728515625
17.7899999,0.7422025203704834,-7.934384346008301,-5.774814605712891,-0.335693359375,1.861572265625,-0.18310546875
17.8099999,0.7445967197418213,-7.931990146636963,-5.7987565994262695,-0.1220703125,1.708984375,-0.48828125
17.8299999,0.7445967197418213,-7.94635534286499,-5.7987565994262695,-0.06103515625,1.2969970703125,-0.274658203125
17.8499999,0.7445967197418213,-7.948749542236328,-5.767632007598877,-0.6866455078125,1.251220703125,0.244140625
17.8699999,0.7445967197418213,-7.972691535949707,-5.736507415771484,-1.3885498046875,1.068115234375,0.762939453125
17.8899999,0.7445967197418213,-7.977479934692383,-5.710171222686768,-2.0599365234375,0.6866455078125,0.3509521484375
17.909999900000003,0.7398083209991455,-8.006210327148438,-5.693411827087402,-1.8157958984375,1.068115234375,0.7171630859375
17.929999900000002,0.7374141216278076,-8.018181800842285,-5.700594425201416,-0.9002685546875,0.5340576171875,0.457763671875
17.9499999,0.7350199222564697,-8.022970199584961,-5.70777702331543,-0.732421875,0.640869140625,-0.5340576171875
17.9699999,0.7326257228851318,-8.020575523376465,-5.7341132164001465,-1.312255859375,0.8697509765625,-0.6561279296875
17.9899999,0.7374141216278076,-8.010998725891113,-5.7556610107421875,-1.6021728515625,0.7781982421875,-0.274658203125
18.0099999,0.7422025203704834,-7.989450931549072,-5.767632007598877,-1.190185546875,1.0223388671875,-0.8697509765625
18.0299999,0.7541735172271729,-7.95832633972168,-5.78678560256958,-0.91552734375,1.068115234375,-0.7476806640625
18.0499999,0.7613561153411865,-7.927201747894287,-5.781997203826904,-0.946044921875,1.0986328125,-0.1678466796875
18.0699999,0.7661445140838623,-7.893682956695557,-5.789179801940918,-0.732421875,0.9307861328125,0.1983642578125
18.089999900000002,0.7661445140838623,-7.8745293617248535,-5.770026206970215,0.3814697265625,1.40380859375,0
18.109999900000002,0.7637503147125244,-7.886500358581543,-5.765237808227539,0.9613037109375,0.762939453125,0.152587890625
18.1299999,0.7565677165985107,-7.910442352294922,-5.765237808227539,0.0762939453125,0.9002685546875,0.3814697265625
18.1499999,0.751779317855835,-7.9415669441223145,-5.774814605712891,0.1983642578125,1.6326904296875,0.1983642578125
18.1699999,0.7422025203704834,-8.027758598327637,-5.796362400054932,-0.9002685546875,1.3275146484375,1.40380859375
18.1899999,0.7422025203704834,-8.056488990783691,-5.789179801940918,-1.0528564453125,1.495361328125,-0.9613037109375
18.2099999,0.7398083209991455,-8.101978302001953,-5.791574001312256,-1.3427734375,0.732421875,-1.495361328125
18.2299999,0.7374141216278076,-8.092401504516602,-5.779603004455566,-1.6021728515625,0.8544921875,-0.1220703125
18.249999900000002,0.7374141216278076,-8.034940719604492,-5.78678560256958,-1.6632080078125,1.220703125,-0.6866455078125
18.269999900000002,0.7374141216278076,-7.99184513092041,-5.801150798797607,-1.434326171875,1.2664794921875,0.030517578125
18.2899999,0.7445967197418213,-7.9415669441223145,-5.813121795654297,-0.8087158203125,1.2359619140625,-0.5645751953125
18.3099999,0.7541735172271729,-7.915230751037598,-5.793968200683594,-0.4730224609375,1.46484375,-1.190185546875
18.3299999,0.768538773059845,-7.862558364868164,-5.774814605712891,-0.6561279296875,0.518798828125,-1.251220703125
18.3499999,0.7757213711738586,-7.836222171783447,-5.746084213256836,-1.708984375,0.2899169921875,0.4730224609375
18.3699999,0.7852981686592102,-7.797914981842041,-5.74129581451416,-2.3345947265625,0.5950927734375,0.8544921875
18.3899999,0.7876923680305481,-7.790732383728027,-5.7556610107421875,-1.3885498046875,0.9918212890625,0.0152587890625
18.409999900000003,0.7613561153411865,-7.829039573669434,-5.815515995025635,-0.244140625,0.579833984375,0.6866455078125
18.429999900000002,0.7350199222564697,-7.879317760467529,-5.851428985595703,-3.204345703125,1.6937255859375,1.190185546875
18.4499999,0.706289529800415,-7.9415669441223145,-5.868188381195068,-3.9825439453125,2.777099609375,0.8087158203125
18.4699999,0.6943184733390808,-8.034940719604492,-5.882553577423096,-2.4871826171875,2.0751953125,0.30517578125
18.4899999,0.7038952708244324,-8.087613105773926,-5.87776517868042,-2.3345947265625,1.3275146484375,-1.1749267578125
18.5099999,0.7254431247711182,-8.13789176940918,-5.853823184967041,-0.9307861328125,1.556396484375,-0.2288818359375
18.5299999,0.7565677165985107,-8.11634349822998,-5.861005783081055,-1.0833740234375,1.52587890625,-0.8544921875
18.5499999,0.7852981686592102,-8.066065788269043,-5.8442463874816895,-2.9296875,2.0294189453125,-1.89208984375
18.5699999,0.811634361743927,-7.994239330291748,-5.837063789367676,-2.9144287109375,2.13623046875,-1.64794921875
18.589999900000002,0.8355764150619507,-7.910442352294922,-5.839457988739014,-1.9683837890625,1.3427734375,-1.4801025390625
18.609999900000002,0.8547300100326538,-7.800309181213379,-5.817910194396973,-1.64794921875,1.9989013671875,-1.495361328125
18.6299999,0.8619126081466675,-7.704541206359863,-5.813121795654297,-2.1514892578125,1.190185546875,0.2593994140625
18.6499999,0.8547300100326538,-7.6351094245910645,-5.832275390625,-1.1444091796875,0.1373291015625,1.739501953125
18.6699999,0.8403648138046265,-7.577648162841797,-5.849034786224365,0.2593994140625,0.8544921875,1.1138916015625
18.6899999,0.8212111592292786,-7.615955829620361,-5.9088897705078125,0.6103515625,1.0528564453125,2.0599365234375
18.7099999,0.8068459630012512,-7.671022415161133,-5.944802761077881,0.518798828125,2.13623046875,2.288818359375
18.7299999,0.7996633648872375,-7.793126583099365,-5.959167957305908,-0.30517578125,2.2125244140625,2.1209716796875
18.749999900000002,0.7972691655158997,-7.922413349151611,-5.940014362335205,0.152587890625,1.9989013671875,0.79345703125
18.769999900000002,0.790086567401886,-8.030152320861816,-5.8873419761657715,-0.274658203125,2.25830078125,-1.434326171875
18.7899999,0.7805097699165344,-8.08282470703125,-5.839457988739014,-1.8157958984375,2.532958984375,-2.0294189453125
18.8099999,0.7637503147125244,-8.099584579467773,-5.801150798797607,-2.5482177734375,2.4261474609375,-1.52587890625
18.8299999,0.751779317855835,-8.087613105773926,-5.7987565994262695,-1.617431640625,1.77001953125,-1.5869140625
18.8499999,0.751779317855835,-8.056488990783691,-5.801150798797607,-0.3814697265625,2.4261474609375,-3.2501220703125
18.8699999,0.768538773059845,-8.006210327148438,-5.837063789367676,-2.74658203125,1.40380859375,-2.8839111328125
18.8899999,0.790086567401886,-7.972691535949707,-5.868188381195068,-2.86865234375,0.67138671875,-1.0528564453125
18.909999900000003,0.8164227604866028,-7.8960771560668945,-5.901707172393799,-1.0833740234375,1.77001953125,-2.655029296875
18.929999900000002,0.8355764150619507,-7.836222171783447,-5.920860767364502,-0.9613037109375,2.0599365234375,-3.5552978515625
18.9499999,0.8547300100326538,-7.7883381843566895,-5.937620162963867,-0.7476806640625,1.556396484375,-0.42724609375
18.9699999,0.871489405632019,-7.757213592529297,-5.9304375648498535,-0.91552734375,1.52587890625,0.18310546875
18.9899999,0.8858546018600464,-7.738059997558594,-5.942408561706543,-0.152587890625,1.6326904296875,-1.5869140625
19.0099999,0.8882488012313843,-7.757213592529297,-5.940014362335205,0.396728515625,2.1514892578125,-0.946044921875
19.0299999,0.8834604024887085,-7.793126583099365,-5.932831764221191,0.030517578125,1.6326904296875,0.6256103515625
19.0499999,0.8738836050033569,-7.8314337730407715,-5.901707172393799,-0.1983642578125,1.4190673828125,0.0762939453125
19.0699999,0.871489405632019,-7.848193168640137,-5.875370979309082,0.1678466796875,0.396728515625,-1.8310546875
19.089999900000002,0.8738836050033569,-7.8529815673828125,-5.858611583709717,-0.335693359375,0.6103515625,-0.885009765625
19.109999900000002,0.8786720037460327,-7.824251174926758,-5.870582580566406,-0.518798828125,1.251220703125,0.9002685546875
19.1299999,0.8834604024887085,-7.8098859786987305,-5.889736175537109,-0.30517578125,1.8310546875,1.0986328125
19.1499999,0.8834604024887085,-7.826645374298096,-5.913678169250488,-0.3814697265625,1.5411376953125,-0.030517578125
19.1699999,0.8786720037460327,-7.857769966125488,-5.906495571136475,0.2593994140625,1.0986328125,-1.068115234375
19.1899999,0.8786720037460327,-7.881711959838867,-5.894524574279785,0.3814697265625,0.457763671875,-1.40380859375
19.2099999,0.8810662031173706,-7.86734676361084,-5.880159378051758,0.244140625,0.152587890625,-0.9613037109375
19.2299999,0.8858546018600464,-7.850587368011475,-5.884947776794434,-0.4119873046875,0.2899169921875,0.518798828125
19.249999900000002,0.8882488012313843,-7.82185697555542,-5.899312973022461,-0.5645751953125,1.15966796875,-0.3509521484375
19.269999900000002,0.8882488012313843,-7.802703380584717,-5.925649166107178,0.54931640625,1.6021728515625,-1.1444091796875
19.2899999,0.8882488012313843,-7.795520782470703,-5.95677375793457,0.579833984375,1.2664794921875,-0.2288818359375
19.3099999,0.8882488012313843,-7.790732383728027,-5.96874475479126,0.7781982421875,1.8768310546875,0.762939453125
19.3299999,0.8882488012313843,-7.819462776184082,-5.95677375793457,1.0833740234375,2.288818359375,0.48828125
19.3499999,0.8858546018600464,-7.857769966125488,-5.920860767364502,0.7171630859375,1.77001953125,-0.946044921875
19.3699999,0.8882488012313843,-7.881711959838867,-5.863399982452393,0.3509521484375,1.03759765625,-1.6021728515625
19.3899999,0.8906430602073669,-7.903259754180908,-5.817910194396973,0.030517578125,0.213623046875,0.4730224609375
19.409999900000003,0.8930372595787048,-7.888894557952881,-5.796362400054932,-0.48828125,0.2593994140625,0.701904296875
19.429999900000002,0.9002198576927185,-7.864952564239502,-5.8203043937683105,-1.251220703125,0.823974609375,-0.5645751953125
19.4499999,0.9074024558067322,-7.843404769897461,-5.858611583709717,-1.4495849609375,1.6021728515625,-0.8392333984375
19.4699999,0.912190854549408,-7.819462776184082,-5.899312973022461,-0.885009765625,1.77001953125,-0.030517578125
19.4899999,0.912190854549408,-7.800309181213379,-5.92325496673584,-0.1068115234375,1.3885498046875,0.1068115234375
19.5099999,0.912190854549408,-7.790732383728027,-5.92325496673584,0.152587890625,1.1444091796875,0.091552734375
19.5299999,0.9097966551780701,-7.795520782470703,-5.9088897705078125,-0.3814697265625,1.251220703125,0.1983642578125
19.5499999,0.9097966551780701,-7.819462776184082,-5.894524574279785,-0.8087158203125,1.1138916015625,0.4730224609375
19.5699999,0.9097966551780701,-7.826645374298096,-5.872976779937744,-0.762939453125,0.91552734375,-0.0152587890625
19.589999900000002,0.9074024558067322,-7.864952564239502,-5.880159378051758,-0.457763671875,0.732421875,0.5645751953125
19.609999900000002,0.9026140570640564,-7.8745293617248535,-5.882553577423096,-0.2593994140625,1.3427734375,0.18310546875
19.6299999,0.8978256583213806,-7.903259754180908,-5.901707172393799,-0.3662109375,1.007080078125,-0.396728515625
19.6499999,0.8954314589500427,-7.910442352294922,-5.918466567993164,-0.0762939453125,0.9765625,-0.8087158203125
19.6699999,0.8954314589500427,-7.915230751037598,-5.920860767364502,0.640869140625,1.1138916015625,-0.4730224609375
19.6899999,0.8978256583213806,-7.8960771560668945,-5.906495571136475,0.3662109375,0.885009765625,-0.30517578125
19.7099999,0.9002198576927185,-7.879317760467529,-5.894524574279785,-0.67138671875,0.4730224609375,-0.5035400390625
19.7299999,0.9074024558067322,-7.850587368011475,-5.880159378051758,-1.0223388671875,0.213623046875,-0.4119873046875
19.749999900000002,0.912190854549408,-7.843404769897461,-5.872976779937744,-0.3509521484375,0.3662109375,0.1373291015625
19.769999900000002,0.9145850539207458,-7.833827972412109,-5.882553577423096,-0.30517578125,0.2593994140625,-0.2288818359375
19.7899999,0.9169792532920837,-7.836222171783447,-5.8873419761657715,-0.3509521484375,0.4119873046875,-0.244140625
19.8099999,0.9169792532920837,-7.836222171783447,-5.901707172393799,-0.6256103515625,0.54931640625,-0.091552734375
19.8299999,0.9169792532920837,-7.82185697555542,-5.920860767364502,0.091552734375,1.2359619140625,-0.3509521484375
19.8499999,0.9193734526634216,-7.800309181213379,-5.942408561706543,0.4730224609375,1.190185546875,-0.274658203125
19.8699999,0.9193734526634216,-7.781155586242676,-5.963956356048584,-0.1983642578125,1.4190673828125,0.030517578125
19.8899999,0.9193734526634216,-7.769184589385986,-5.96874475479126,-0.06103515625,1.89208984375,0.42724609375
19.909999900000003,0.9169792532920837,-7.781155586242676,-5.95677375793457,0.5035400390625,1.40380859375,0.457763671875
19.929999900000002,0.9169792532920837,-7.805097579956055,-5.928043365478516,0.2288818359375,1.4495849609375,0.5950927734375
19.9499999,0.9169792532920837,-7.86734676361084,-5.858611583709717,0.030517578125,0.579833984375,0.42724609375
19.9699999,0.912190854549408,-7.898471355438232,-5.841852188110352,-0.0762939453125,0.6256103515625,0.0762939453125
19.9899999,0.9097966551780701,-7.915230751037598,-5.8442463874816895,-0.3509521484375,1.03759765625,-0.06103515625
20.0099999,0.9050082564353943,-7.91283655166626,-5.868188381195068,-0.640869140625,0.8087158203125,-0.640869140625
