# Time (seconds),Accel_X,Accel_Y,Accel_Z,Gyro_X,Gyro_Y,Gyro_Z
0.0099999,1.2665326595306396,-0.7805097699165344,9.679757118225098,0.5645751953125,1.1749267578125,0.244140625
0.029999900000000003,1.2641384601593018,-0.7589619159698486,9.68933391571045,-0.9307861328125,1.068115234375,-0.30517578125
0.0499999,1.2689268589019775,-0.7469909191131592,9.703699111938477,-2.0751953125,1.373291015625,-0.1068115234375
0.0699999,1.2832920551300049,-0.7374141216278076,9.6989107131958,-2.1820068359375,1.068115234375,0.732421875
0.08999990000000001,1.3000515699386597,-0.730231523513794,9.68933391571045,-1.2664794921875,0.946044921875,0.3662109375
0.10999990000000001,1.3048399686813354,-0.7493851184844971,9.672574996948242,-0.274658203125,1.1138916015625,0.6256103515625
0.1299999,1.3048399686813354,-0.7637503147125244,9.66299819946289,-0.18310546875,0.9765625,-0.030517578125
0.14999990000000002,1.3024457693099976,-0.7613561153411865,9.66299819946289,-0.79345703125,1.2969970703125,-0.396728515625
0.1699999,1.3000515699386597,-0.7757213711738586,9.660603523254395,-1.5106201171875,0.4730224609375,0.9613037109375
0.1899999,1.3000515699386597,-0.7733271718025208,9.660603523254395,-0.5340576171875,0.885009765625,0.640869140625
0.20999990000000002,1.2976573705673218,-0.790086567401886,9.658209800720215,0.5340576171875,1.1138916015625,-0.42724609375
0.2299999,1.2880805730819702,-0.7996633648872375,9.667786598205566,0.244140625,1.251220703125,-0.946044921875
0.2499999,1.2832920551300049,-0.7972691655158997,9.679757118225098,-1.373291015625,0.9765625,-0.48828125
0.2699999,1.2880805730819702,-0.7733271718025208,9.691728591918945,-2.6397705078125,0.732421875,-0.213623046875
0.28999990000000003,1.2880805730819702,-0.7661445140838623,9.68933391571045,-2.0904541015625,0.91552734375,0.8392333984375
0.3099999,1.2832920551300049,-0.7733271718025208,9.679757118225098,-1.0833740234375,1.2969970703125,0.6866455078125
0.3299999,1.2737152576446533,-0.7948749661445618,9.66539192199707,-0.3509521484375,1.6326904296875,-0.67138671875
0.34999990000000003,1.2617442607879639,-0.8092401623725891,9.66299819946289,-0.3814697265625,1.3275146484375,-1.1138916015625
0.3699999,1.2641384601593018,-0.8188169598579407,9.670180320739746,-0.4730224609375,0.9613037109375,0.3662109375
0.3899999,1.2737152576446533,-0.8092401623725891,9.672574996948242,-0.8544921875,0.396728515625,0.67138671875
0.40999990000000003,1.2856862545013428,-0.7948749661445618,9.677363395690918,-1.1138916015625,0.885009765625,-0.18310546875
0.4299999,1.292868971824646,-0.7948749661445618,9.684545516967773,-1.2054443359375,1.220703125,0.2899169921875
0.4499999,1.292868971824646,-0.7972691655158997,9.677363395690918,-1.5716552734375,0.640869140625,0.823974609375
0.4699999,1.2856862545013428,-0.8020575642585754,9.679757118225098,-1.495361328125,0.7476806640625,0.1678466796875
0.4899999,1.2832920551300049,-0.8140285611152649,9.677363395690918,-0.823974609375,0.91552734375,0.1373291015625
0.5099999,1.2832920551300049,-0.8140285611152649,9.682151794433594,-1.0223388671875,0.6561279296875,0.18310546875
0.5299999,1.2856862545013428,-0.8068459630012512,9.68694019317627,-2.2430419921875,0.5035400390625,0.4730224609375
0.5499999,1.290474772453308,-0.7948749661445618,9.701305389404297,-2.9754638671875,0.518798828125,1.2969970703125
0.5699999,1.2880805730819702,-0.8020575642585754,9.679757118225098,-3.143310546875,0.152587890625,1.922607421875
0.5899998999999999,1.2832920551300049,-0.8379706144332886,9.672574996948242,-2.166748046875,1.617431640625,1.220703125
0.6099998999999999,1.2737152576446533,-0.9074024558067322,9.639056205749512,-0.0152587890625,0.7781982421875,0
0.6299999,1.2737152576446533,-0.9193734526634216,9.627084732055664,0.1068115234375,0.640869140625,0.3814697265625
0.6499999,1.2761094570159912,-0.9050082564353943,9.643844604492188,-0.30517578125,1.3275146484375,-0.579833984375
0.6699999,1.280897855758667,-0.8834604024887085,9.66299819946289,-1.0223388671875,1.495361328125,-0.1220703125
0.6899999,1.2880805730819702,-0.8595184087753296,9.679757118225098,-1.7242431640625,0.1678466796875,1.0528564453125
0.7099999,1.2952631711959839,-0.8451532125473022,9.68933391571045,-1.8768310546875,0.2593994140625,1.2054443359375
0.7299998999999999,1.2952631711959839,-0.8451532125473022,9.682151794433594,-1.953125,0.91552734375,0.640869140625
0.7499998999999999,1.2880805730819702,-0.8738836050033569,9.667786598205566,-1.678466796875,1.15966796875,0.4425048828125
0.7699999,1.2761094570159912,-0.8978256583213806,9.658209800720215,-0.732421875,1.03759765625,-0.030517578125
0.7899999,1.2713210582733154,-0.9050082564353943,9.658209800720215,-0.2288818359375,0.579833984375,-0.3204345703125
0.8099999,1.2737152576446533,-0.912190854549408,9.660603523254395,-0.640869140625,0.3204345703125,0.8392333984375
0.8299999,1.278503656387329,-0.9050082564353943,9.658209800720215,-1.1444091796875,0.823974609375,1.0223388671875
0.8499998999999999,1.2832920551300049,-0.912190854549408,9.660603523254395,-0.6866455078125,1.52587890625,0.3814697265625
0.8699998999999999,1.2856862545013428,-0.9145850539207458,9.660603523254395,-0.48828125,0.946044921875,-0.244140625
0.8899999,1.2832920551300049,-0.9193734526634216,9.658209800720215,-0.3204345703125,0.5340576171875,-0.06103515625
0.9099999,1.2856862545013428,-0.9217676520347595,9.667786598205566,-0.06103515625,1.220703125,0.2899169921875
0.9299999,1.2856862545013428,-0.9169792532920837,9.660603523254395,-0.3204345703125,0.9765625,-0.3662109375
0.9499999,1.2856862545013428,-0.9050082564353943,9.670180320739746,-0.2288818359375,0.79345703125,-0.3814697265625
0.9699998999999999,1.2832920551300049,-0.8978256583213806,9.677363395690918,-0.518798828125,0.54931640625,0.54931640625
0.9899998999999999,1.2832920551300049,-0.8858546018600464,9.679757118225098,-0.91552734375,0.5950927734375,0.79345703125
1.0099999,1.280897855758667,-0.8810662031173706,9.68694019317627,-1.15966796875,0.885009765625,0.152587890625
1.0299999,1.280897855758667,-0.8978256583213806,9.682151794433594,-0.823974609375,0.5340576171875,0.5035400390625
1.0499999,1.2832920551300049,-0.9050082564353943,9.677363395690918,-0.244140625,0.2593994140625,0.18310546875
1.0699999,1.2856862545013428,-0.9169792532920837,9.672574996948242,0.06103515625,0.5950927734375,0.0762939453125
1.0899999,1.290474772453308,-0.912190854549408,9.667786598205566,-0.701904296875,0.8697509765625,0.2593994140625
1.1099999,1.292868971824646,-0.9145850539207458,9.670180320739746,-1.3580322265625,0.79345703125,0.67138671875
1.1299999,1.292868971824646,-0.9145850539207458,9.677363395690918,-1.8157958984375,1.15966796875,0.6256103515625
1.1499999,1.290474772453308,-0.9193734526634216,9.672574996948242,-1.922607421875,0.6103515625,0.0457763671875
1.1699998999999999,1.2880805730819702,-0.9217676520347595,9.672574996948242,-1.7547607421875,1.0528564453125,0.030517578125
1.1899998999999999,1.2856862545013428,-0.9265560507774353,9.66299819946289,-1.40380859375,0.8087158203125,0.9918212890625
1.2099999,1.2856862545013428,-0.9265560507774353,9.66299819946289,-0.9613037109375,1.0528564453125,1.251220703125
1.2299999,1.2832920551300049,-0.9409212470054626,9.658209800720215,-1.007080078125,0.48828125,0.5950927734375
1.2499999,1.2832920551300049,-0.950498104095459,9.658209800720215,-1.007080078125,0.946044921875,0.0152587890625
1.2699999,1.2856862545013428,-0.9600749015808105,9.658209800720215,-1.03759765625,1.0528564453125,0.2288818359375
1.2899999,1.2856862545013428,-0.9600749015808105,9.653421401977539,-1.434326171875,0.579833984375,0.5950927734375
1.3099999,1.2880805730819702,-0.9672574996948242,9.651026725769043,-1.40380859375,0.732421875,0.7476806640625
1.3299999,1.2856862545013428,-0.9720458984375,9.646238327026367,-1.52587890625,1.2969970703125,-0.0152587890625
1.3499999,1.2856862545013428,-0.9840168952941895,9.641449928283691,-1.15966796875,1.3427734375,-0.2593994140625
1.3699999,1.2880805730819702,-0.9888052940368652,9.634267807006836,-0.2288818359375,0.9307861328125,0.3814697265625
1.3899999,1.290474772453308,-0.9840168952941895,9.624691009521484,-0.1678466796875,0.8087158203125,0.244140625
1.4099999,1.2880805730819702,-0.9911994934082031,9.617507934570312,-0.1068115234375,1.4190673828125,0.1068115234375
1.4299998999999999,1.2856862545013428,-0.9983820915222168,9.624691009521484,0.0457763671875,2.227783203125,-0.4425048828125
1.4499999,1.280897855758667,-0.9959878921508789,9.636661529541016,-0.1220703125,1.8463134765625,-1.1749267578125
1.4699999,1.2761094570159912,-0.9888052940368652,9.66539192199707,-0.335693359375,1.1138916015625,-0.4730224609375
1.4899999,1.2761094570159912,-0.9720458984375,9.682151794433594,-0.885009765625,0.762939453125,0.48828125
1.5099999,1.280897855758667,-0.9552865028381348,9.691728591918945,-1.0528564453125,0.946044921875,0.640869140625
1.5299999,1.280897855758667,-0.950498104095459,9.682151794433594,-0.701904296875,0.91552734375,0.42724609375
1.5499999,1.278503656387329,-0.9720458984375,9.66539192199707,0,1.03759765625,0.518798828125
1.5699999,1.278503656387329,-0.9816226959228516,9.658209800720215,0.4730224609375,1.800537109375,-0.396728515625
1.5899999,1.2761094570159912,-0.9911994934082031,9.646238327026367,0.6103515625,0.91552734375,-0.3814697265625
1.6099999,1.2761094570159912,-0.9983820915222168,9.651026725769043,0.518798828125,0.6561279296875,0.5035400390625
1.6299999,1.280897855758667,-0.9864110946655273,9.66539192199707,0,1.0528564453125,0.06103515625
1.6499999,1.2832920551300049,-0.9792284965515137,9.670180320739746,-1.129150390625,0.8697509765625,-0.1678466796875
1.6699999,1.2832920551300049,-0.9720458984375,9.66539192199707,-1.068115234375,0.3814697265625,0.274658203125
1.6899998999999999,1.2832920551300049,-0.9696516990661621,9.670180320739746,-0.152587890625,1.1138916015625,0.8392333984375
1.7099999,1.2761094570159912,-0.9840168952941895,9.658209800720215,0.06103515625,0.3509521484375,0.396728515625
1.7299999,1.2713210582733154,-1.0055646896362305,9.658209800720215,0.2899169921875,0.5950927734375,-0.6256103515625
1.7499999,1.2665326595306396,-1.01753568649292,9.66299819946289,0.6866455078125,0.9613037109375,-1.251220703125
1.7699999,1.2713210582733154,-1.0103530883789062,9.658209800720215,0.67138671875,0.8087158203125,-0.9765625
1.7899999,1.2761094570159912,-0.9983820915222168,9.66539192199707,0.701904296875,0.9307861328125,0.1068115234375
1.8099999,1.2832920551300049,-0.9696516990661621,9.667786598205566,0.213623046875,1.0986328125,-0.396728515625
1.8299999,1.2856862545013428,-0.9528923034667969,9.672574996948242,-0.4425048828125,0.5950927734375,-0.3509521484375
1.8499999,1.280897855758667,-0.9528923034667969,9.679757118225098,-0.8392333984375,0.8697509765625,0.42724609375
1.8699999,1.2832920551300049,-0.9481038451194763,9.670180320739746,-1.220703125,1.0223388671875,0.1068115234375
1.8899999,1.2832920551300049,-0.9576807022094727,9.670180320739746,-0.396728515625,1.2054443359375,0.1068115234375
1.9099999,1.2832920551300049,-0.9672574996948242,9.660603523254395,0.3204345703125,0.8087158203125,0.274658203125
1.9299998999999999,1.2856862545013428,-0.9792284965515137,9.655815124511719,0.4425048828125,0.7476806640625,0.3204345703125
1.9499999,1.2880805730819702,-0.9792284965515137,9.660603523254395,-0.0152587890625,1.15966796875,-0.3662109375
1.9699999,1.2856862545013428,-0.9744400978088379,9.66299819946289,-0.6866455078125,0.91552734375,-0.0457763671875
1.9899999,1.2832920551300049,-0.9792284965515137,9.667786598205566,-0.48828125,0.6103515625,1.1138916015625
2.0099999,1.280897855758667,-0.9696516990661621,9.670180320739746,-0.518798828125,0.823974609375,0.3662109375
2.0299999,1.278503656387329,-0.9768342971801758,9.667786598205566,-0.5645751953125,1.03759765625,-0.1220703125
2.0499999,1.278503656387329,-0.9816226959228516,9.66299819946289,-0.457763671875,0.885009765625,0.1678466796875
2.0699999,1.2761094570159912,-0.9840168952941895,9.66299819946289,-0.152587890625,1.03759765625,0.4730224609375
2.0899999,1.2761094570159912,-0.9840168952941895,9.660603523254395,-0.091552734375,0.946044921875,0.2899169921875
2.1099999,1.2761094570159912,-0.9864110946655273,9.667786598205566,-0.4119873046875,0.8087158203125,-0.0457763671875
2.1299999,1.278503656387329,-0.9864110946655273,9.672574996948242,-1.40380859375,0.732421875,0.335693359375
2.1499999,1.280897855758667,-0.9959878921508789,9.660603523254395,-0.5645751953125,0.8087158203125,0.274658203125
2.1699999,1.278503656387329,-1.0055646896362305,9.655815124511719,0.3204345703125,1.190185546875,-0.8544921875
2.1899999,1.280897855758667,-1.0055646896362305,9.653421401977539,0.2593994140625,0.9918212890625,-1.0528564453125
2.2099999,1.2832920551300049,-0.9983820915222168,9.655815124511719,-0.152587890625,0.2288818359375,-0.091552734375
2.2299999,1.2856862545013428,-0.9768342971801758,9.660603523254395,-0.1068115234375,0.518798828125,0.54931640625
2.2499999,1.2880805730819702,-0.9624691009521484,9.658209800720215,0.18310546875,0.732421875,0.3662109375
2.2699999,1.2856862545013428,-0.9600749015808105,9.660603523254395,0.3662109375,1.0528564453125,0.2288818359375
2.2899999,1.280897855758667,-0.9720458984375,9.651026725769043,0.1678466796875,0.8087158203125,0.1678466796875
2.3099999,1.2761094570159912,-0.9816226959228516,9.660603523254395,0.152587890625,1.1138916015625,-0.0152587890625
2.3299999,1.2737152576446533,-0.9840168952941895,9.655815124511719,0.5035400390625,0.79345703125,-0.2593994140625
2.3499999,1.2761094570159912,-0.9888052940368652,9.660603523254395,0.3509521484375,0.518798828125,0.3204345703125
2.3699999,1.280897855758667,-0.9816226959228516,9.660603523254395,0.2593994140625,1.0223388671875,0.274658203125
2.3899999,1.2856862545013428,-0.9792284965515137,9.655815124511719,-0.1068115234375,0.885009765625,0.152587890625
2.4099999,1.2880805730819702,-0.9768342971801758,9.658209800720215,-0.2899169921875,1.1749267578125,0.0762939453125
2.4299999,1.290474772453308,-0.9744400978088379,9.658209800720215,-0.1068115234375,0.91552734375,0.0762939453125
2.4499999,1.290474772453308,-0.9792284965515137,9.658209800720215,0.030517578125,0.5950927734375,0.518798828125
2.4699999,1.292868971824646,-0.9768342971801758,9.667786598205566,0.18310546875,0.579833984375,-0.0457763671875
2.4899999,1.292868971824646,-0.9768342971801758,9.672574996948242,-0.213623046875,0.335693359375,-0.4119873046875
2.5099999,1.2952631711959839,-0.9720458984375,9.677363395690918,-0.732421875,-0.030517578125,0.1220703125
2.5299999,1.2976573705673218,-0.9720458984375,9.674968719482422,-0.67138671875,0.1220703125,0.396728515625
2.5499999,1.2976573705673218,-0.9720458984375,9.670180320739746,-0.30517578125,0.3204345703125,-0.1983642578125
2.5699999,1.292868971824646,-0.9840168952941895,9.651026725769043,0.1068115234375,-0.0762939453125,-0.2288818359375
2.5899999,1.290474772453308,-0.9911994934082031,9.648633003234863,0.4730224609375,1.0223388671875,-0.4119873046875
2.6099999,1.290474772453308,-0.9888052940368652,9.63187313079834,0.274658203125,1.03759765625,-0.7476806640625
2.6299999,1.2952631711959839,-0.9792284965515137,9.639056205749512,0.030517578125,1.556396484375,-0.1220703125
2.6499999,1.3000515699386597,-0.9768342971801758,9.639056205749512,-0.335693359375,1.15966796875,0.2593994140625
2.6699999,1.3000515699386597,-0.9672574996948242,9.658209800720215,-0.091552734375,1.1444091796875,-0.244140625
2.6899999,1.3000515699386597,-0.9624691009521484,9.66539192199707,0.2288818359375,0.9613037109375,-0.274658203125
2.7099999,1.2952631711959839,-0.9672574996948242,9.672574996948242,0.3509521484375,0.1678466796875,0.762939453125
2.7299999,1.2952631711959839,-0.9696516990661621,9.670180320739746,0.1983642578125,1.0528564453125,0.4730224609375
2.7499999,1.2952631711959839,-0.9696516990661621,9.672574996948242,0.335693359375,1.312255859375,-0.640869140625
2.7699999,1.292868971824646,-0.9792284965515137,9.66299819946289,-0.091552734375,0.6256103515625,-0.213623046875
2.7899999,1.2952631711959839,-0.9720458984375,9.660603523254395,-0.091552734375,0.701904296875,0.1373291015625
2.8099999,1.2952631711959839,-0.9624691009521484,9.660603523254395,-0.1068115234375,1.2054443359375,-0.0457763671875
2.8299999,1.2952631711959839,-0.9600749015808105,9.660603523254395,-0.030517578125,1.2969970703125,0.1068115234375
2.8499999,1.292868971824646,-0.9552865028381348,9.660603523254395,-0.1373291015625,0.701904296875,-0.0152587890625
2.8699999,1.292868971824646,-0.9648633003234863,9.670180320739746,0.18310546875,0.5035400390625,0.1220703125
2.8899999,1.290474772453308,-0.9744400978088379,9.672574996948242,0,0.1068115234375,-0.4730224609375
2.9099999,1.2976573705673218,-0.9768342971801758,9.68694019317627,-0.8544921875,0.0152587890625,-1.0528564453125
2.9299999,1.3024457693099976,-0.9744400978088379,9.68933391571045,-1.8157958984375,-0.5340576171875,-0.79345703125
2.9499999,1.3120225667953491,-0.9552865028381348,9.68933391571045,-2.716064453125,-0.3814697265625,-0.2593994140625
2.9699999,1.316810965538025,-0.9552865028381348,9.660603523254395,-2.2430419921875,0.213623046875,0.5645751953125
2.9899999,1.316810965538025,-0.9696516990661621,9.636661529541016,-0.18310546875,1.7242431640625,0.396728515625
3.0099999,1.314416766166687,-0.993593692779541,9.607931137084961,0.8087158203125,1.6326904296875,-1.2054443359375
3.0299999,1.3072341680526733,-1.0223240852355957,9.617507934570312,1.3275146484375,1.4801025390625,-1.2054443359375
3.0499999,1.3072341680526733,-1.0103530883789062,9.624691009521484,0.7476806640625,0.9918212890625,-1.3580322265625
3.0699999,1.314416766166687,-0.9840168952941895,9.658209800720215,-0.518798828125,1.312255859375,-0.42724609375
3.0899999,1.3192051649093628,-0.9552865028381348,9.66539192199707,-1.3275146484375,1.1444091796875,0.762939453125
3.1099999,1.3239935636520386,-0.9409212470054626,9.679757118225098,-0.640869140625,1.5411376953125,0.67138671875
3.1299999,1.3192051649093628,-0.9528923034667969,9.670180320739746,0.518798828125,1.03759765625,-0.244140625
3.1499999,1.3120225667953491,-0.9720458984375,9.66539192199707,1.2359619140625,0.8697509765625,-0.5950927734375
3.1699999,1.3048399686813354,-0.9840168952941895,9.655815124511719,1.2664794921875,0.6561279296875,-0.4730224609375
3.1899999,1.3048399686813354,-0.9816226959228516,9.655815124511719,0.5035400390625,1.3275146484375,-0.2899169921875
3.2099999,1.3048399686813354,-0.9696516990661621,9.655815124511719,0.091552734375,0.9765625,-0.1220703125
3.2299999,1.3096283674240112,-0.9624691009521484,9.66539192199707,0,0.640869140625,-0.091552734375
3.2499999,1.3120225667953491,-0.9528923034667969,9.672574996948242,0.1068115234375,0.1373291015625,-0.2288818359375
3.2699999,1.3120225667953491,-0.9576807022094727,9.679757118225098,-0.2899169921875,0.213623046875,-0.244140625
3.2899999,1.3096283674240112,-0.9433154463768005,9.68694019317627,-0.5950927734375,1.1138916015625,-0.54931640625
3.3099999,1.3072341680526733,-0.950498104095459,9.68694019317627,-1.1749267578125,0.79345703125,0.1678466796875
3.3299999000000002,1.3072341680526733,-0.9481038451194763,9.677363395690918,-1.495361328125,0.48828125,0.42724609375
3.3499999,1.3072341680526733,-0.9552865028381348,9.667786598205566,-0.335693359375,1.1444091796875,-0.1373291015625
3.3699999,1.3120225667953491,-0.9672574996948242,9.655815124511719,0.3814697265625,1.2359619140625,0.0152587890625
3.3899999,1.316810965538025,-0.9768342971801758,9.639056205749512,0.1678466796875,0.6103515625,0.0457763671875
3.4099999,1.3192051649093628,-0.9864110946655273,9.641449928283691,0.244140625,1.8157958984375,-0.06103515625
3.4299999,1.3239935636520386,-0.9720458984375,9.643844604492188,0.0762939453125,1.6937255859375,-0.762939453125
3.4499999,1.316810965538025,-0.9720458984375,9.653421401977539,0.0152587890625,0.9765625,0.2288818359375
3.4699999,1.3096283674240112,-0.9648633003234863,9.670180320739746,-0.1678466796875,0.8087158203125,0.5645751953125
3.4899999,1.3000515699386597,-0.9624691009521484,9.674968719482422,-0.2593994140625,0.7781982421875,-0.1373291015625
3.5099999,1.2976573705673218,-0.9624691009521484,9.682151794433594,-0.6256103515625,1.3580322265625,-0.42724609375
3.5299999,1.2976573705673218,-0.9576807022094727,9.677363395690918,-1.03759765625,0.946044921875,0.3814697265625
3.5499999,1.3048399686813354,-0.9600749015808105,9.674968719482422,-0.762939453125,0.762939453125,1.0986328125
3.5699999,1.3096283674240112,-0.9648633003234863,9.66539192199707,-0.2288818359375,1.15966796875,0.1220703125
3.5899999,1.3120225667953491,-0.9744400978088379,9.655815124511719,0.091552734375,1.3885498046875,-0.518798828125
3.6099999,1.3120225667953491,-0.9792284965515137,9.653421401977539,-0.152587890625,1.40380859375,0.030517578125
3.6299999,1.3120225667953491,-0.9744400978088379,9.660603523254395,-0.274658203125,0.8544921875,0.396728515625
3.6499999,1.3096283674240112,-0.9720458984375,9.66299819946289,-0.152587890625,0.4730224609375,0.4425048828125
3.6699999,1.3024457693099976,-0.9768342971801758,9.66539192199707,0.457763671875,0.457763671875,0.2593994140625
3.6899999,1.3024457693099976,-0.9888052940368652,9.643844604492188,1.77001953125,-0.06103515625,0.3204345703125
3.7099999,1.3072341680526733,-0.9864110946655273,9.643844604492188,2.3956298828125,1.3427734375,-0.6103515625
3.7299999,1.3072341680526733,-0.9816226959228516,9.634267807006836,1.5869140625,1.4801025390625,-0.48828125
3.7499999,1.3120225667953491,-0.9624691009521484,9.651026725769043,-0.1373291015625,0.9307861328125,-0.030517578125
3.7699999,1.316810965538025,-0.9385270476341248,9.66299819946289,-1.0833740234375,1.1444091796875,0.2288818359375
3.7899999,1.316810965538025,-0.9241618514060974,9.677363395690918,-0.7781982421875,1.1444091796875,0.4119873046875
3.8099999,1.3120225667953491,-0.9241618514060974,9.672574996948242,-0.5950927734375,1.0833740234375,0.7171630859375
3.8299999000000002,1.3072341680526733,-0.9385270476341248,9.667786598205566,-0.5645751953125,1.1444091796875,0.4425048828125
3.8499999,1.3048399686813354,-0.9528923034667969,9.660603523254395,-0.335693359375,1.6021728515625,-0.2288818359375
3.8699999,1.3024457693099976,-0.9600749015808105,9.653421401977539,-0.1983642578125,1.1749267578125,-0.2288818359375
3.8899999,1.3000515699386597,-0.9624691009521484,9.660603523254395,-0.3662109375,1.1749267578125,0.6103515625
3.9099999,1.2952631711959839,-0.9624691009521484,9.660603523254395,-0.30517578125,0.732421875,0.6256103515625
3.9299999,1.2952631711959839,-0.9576807022094727,9.674968719482422,-0.1983642578125,0.946044921875,-0.2593994140625
3.9499999,1.2952631711959839,-0.9528923034667969,9.679757118225098,-0.518798828125,0.396728515625,-0.152587890625
3.9699999,1.3000515699386597,-0.9481038451194763,9.684545516967773,-0.7781982421875,0.2899169921875,0.9307861328125
3.9899999,1.3024457693099976,-0.9385270476341248,9.682151794433594,-0.8087158203125,0.42724609375,0.8697509765625
4.0099999,1.3024457693099976,-0.9433154463768005,9.672574996948242,-0.6866455078125,0.640869140625,0.5645751953125
4.029999900000001,1.3000515699386597,-0.9576807022094727,9.66299819946289,-0.54931640625,0.5645751953125,0.4730224609375
4.0499999,1.2976573705673218,-0.9696516990661621,9.66299819946289,-0.5035400390625,0.48828125,0.1983642578125
4.069999900000001,1.3024457693099976,-0.9720458984375,9.66539192199707,-1.1138916015625,-0.0457763671875,0.0762939453125
4.0899999000000005,1.3096283674240112,-0.9696516990661621,9.667786598205566,-1.983642578125,-0.457763671875,0.5645751953125
4.1099999,1.3192051649093628,-0.9648633003234863,9.658209800720215,-1.708984375,-0.5645751953125,0.701904296875
4.1299999000000005,1.3215993642807007,-0.9888052940368652,9.62947940826416,0.0762939453125,0.4119873046875,1.068115234375
4.1499999,1.3192051649093628,-1.0079588890075684,9.617507934570312,1.4801025390625,2.197265625,-0.396728515625
4.1699999000000005,1.3192051649093628,-1.015141487121582,9.612719535827637,1.0528564453125,1.89208984375,-1.6937255859375
4.1899999,1.314416766166687,-1.0127472877502441,9.634267807006836,0.0152587890625,0.7476806640625,-0.06103515625
4.209999900000001,1.316810965538025,-0.9888052940368652,9.653421401977539,-0.5950927734375,0.4119873046875,0.54931640625
4.2299999,1.314416766166687,-0.9792284965515137,9.66539192199707,-0.091552734375,0.885009765625,0.1373291015625
4.249999900000001,1.316810965538025,-0.9720458984375,9.66539192199707,0.06103515625,1.6326904296875,-0.6561279296875
4.2699999,1.316810965538025,-0.9720458984375,9.66299819946289,-0.0457763671875,0.9765625,-0.3204345703125
4.289999900000001,1.314416766166687,-0.9696516990661621,9.667786598205566,-0.091552734375,0.5950927734375,0.48828125
4.3099999,1.3120225667953491,-0.9696516990661621,9.670180320739746,-0.0457763671875,0.274658203125,0.3204345703125
4.329999900000001,1.314416766166687,-0.9624691009521484,9.670180320739746,-0.06103515625,0.67138671875,-0.274658203125
4.3499999,1.314416766166687,-0.9648633003234863,9.660603523254395,-0.396728515625,0.8087158203125,0.091552734375
4.369999900000001,1.314416766166687,-0.9576807022094727,9.66299819946289,-0.91552734375,0.885009765625,0.4730224609375
4.3899999,1.316810965538025,-0.9624691009521484,9.670180320739746,-0.67138671875,0.48828125,0.4730224609375
4.409999900000001,1.314416766166687,-0.9744400978088379,9.670180320739746,-0.3662109375,-0.2899169921875,0
4.4299999,1.3192051649093628,-0.9720458984375,9.660603523254395,0.335693359375,-0.1373291015625,-0.2899169921875
4.449999900000001,1.3239935636520386,-0.9792284965515137,9.651026725769043,0.7476806640625,0.885009765625,0.8697509765625
4.4699999,1.3311761617660522,-0.9768342971801758,9.639056205749512,0.5645751953125,1.2359619140625,1.495361328125
4.489999900000001,1.3335703611373901,-0.9744400978088379,9.639056205749512,0.5645751953125,0.6256103515625,0.396728515625
4.5099999,1.3311761617660522,-0.9816226959228516,9.646238327026367,0.4730224609375,0.5035400390625,0.1068115234375
4.529999900000001,1.3311761617660522,-0.9792284965515137,9.655815124511719,-0.0762939453125,1.0223388671875,0.396728515625
4.5499999,1.3263877630233765,-0.9744400978088379,9.660603523254395,-0.518798828125,1.0528564453125,0.6256103515625
4.569999900000001,1.3239935636520386,-0.9768342971801758,9.66539192199707,-0.3204345703125,0.762939453125,0.701904296875
4.5899999000000005,1.3192051649093628,-0.9792284965515137,9.667786598205566,0.091552734375,0.732421875,-0.274658203125
4.609999900000001,1.316810965538025,-0.9768342971801758,9.658209800720215,-0.213623046875,0.762939453125,-0.396728515625
4.6299999000000005,1.316810965538025,-0.9768342971801758,9.655815124511719,-0.6866455078125,1.4801025390625,0.732421875
4.6499999,1.316810965538025,-0.9720458984375,9.646238327026367,-0.2593994140625,0.946044921875,0.640869140625
4.6699999000000005,1.316810965538025,-0.9816226959228516,9.643844604492188,1.0986328125,0.8087158203125,-0.091552734375
4.6899999,1.314416766166687,-0.9959878921508789,9.643844604492188,1.52587890625,1.251220703125,-0.732421875
4.709999900000001,1.316810965538025,-0.9888052940368652,9.646238327026367,0.579833984375,1.2664794921875,-0.9613037109375
4.7299999,1.3239935636520386,-0.9816226959228516,9.651026725769043,-0.1983642578125,1.1138916015625,0.0762939453125
4.749999900000001,1.3311761617660522,-0.9696516990661621,9.653421401977539,0.396728515625,0.9307861328125,0.1220703125
4.7699999,1.335964560508728,-0.9624691009521484,9.651026725769043,1.6937255859375,0.6256103515625,-0.79345703125
4.789999900000001,1.335964560508728,-0.9552865028381348,9.651026725769043,2.105712890625,0.9765625,-1.3885498046875
4.8099999,1.335964560508728,-0.933738648891449,9.658209800720215,1.4495849609375,0.8392333984375,-0.4425048828125
4.829999900000001,1.3407529592514038,-0.8930372595787048,9.68694019317627,-0.2593994140625,1.434326171875,0.9765625
4.8499999,1.338358759880066,-0.8786720037460327,9.68933391571045,-1.708984375,0.1220703125,1.739501953125
4.869999900000001,1.3311761617660522,-0.8906430602073669,9.68933391571045,-0.7781982421875,0.8087158203125,1.251220703125
4.8899999,1.3192051649093628,-0.9289502501487732,9.667786598205566,0.8697509765625,1.5106201171875,-0.3509521484375
4.909999900000001,1.3120225667953491,-0.9552865028381348,9.653421401977539,1.2969970703125,1.4801025390625,-0.8087158203125
4.9299999,1.3120225667953491,-0.9600749015808105,9.653421401977539,0.1068115234375,0.6561279296875,0.1983642578125
4.949999900000001,1.3192051649093628,-0.9361328482627869,9.667786598205566,-1.220703125,0.701904296875,0.91552734375
4.9699999,1.3263877630233765,-0.9193734526634216,9.672574996948242,-1.495361328125,1.007080078125,1.220703125
4.989999900000001,1.3239935636520386,-0.9241618514060974,9.670180320739746,-0.4425048828125,1.190185546875,0.79345703125
5.0099999,1.3192051649093628,-0.9433154463768005,9.658209800720215,0.030517578125,0.823974609375,-0.0152587890625
5.029999900000001,1.314416766166687,-0.9696516990661621,9.653421401977539,0.518798828125,0.9918212890625,-0.1983642578125
5.0499999,1.316810965538025,-0.9672574996948242,9.646238327026367,0.5645751953125,1.251220703125,-0.8697509765625
5.069999900000001,1.316810965538025,-0.9648633003234863,9.651026725769043,0.274658203125,1.068115234375,-0.1220703125
5.0899999000000005,1.316810965538025,-0.9552865028381348,9.651026725769043,0.1373291015625,0.5645751953125,0.3204345703125
5.109999900000001,1.316810965538025,-0.9289502501487732,9.66539192199707,-0.3509521484375,1.52587890625,-0.885009765625
5.1299999000000005,1.316810965538025,-0.9193734526634216,9.672574996948242,-1.0833740234375,1.5411376953125,-0.3509521484375
5.1499999,1.316810965538025,-0.912190854549408,9.677363395690918,-1.1444091796875,0.701904296875,1.1444091796875
5.1699999000000005,1.316810965538025,-0.9217676520347595,9.670180320739746,-0.0762939453125,0.3814697265625,0.6866455078125
5.1899999,1.314416766166687,-0.9552865028381348,9.653421401977539,1.007080078125,1.678466796875,-1.3275146484375
5.209999900000001,1.316810965538025,-0.9528923034667969,9.653421401977539,-0.2288818359375,1.1138916015625,0.0152587890625
5.2299999,1.3239935636520386,-0.9313444495201111,9.660603523254395,-1.373291015625,1.373291015625,0.6256103515625
5.249999900000001,1.3263877630233765,-0.912190854549408,9.674968719482422,-1.068115234375,1.312255859375,0.42724609375
5.2699999,1.3192051649093628,-0.9241618514060974,9.672574996948242,-0.274658203125,0.6256103515625,0.579833984375
5.289999900000001,1.3120225667953491,-0.933738648891449,9.674968719482422,0.3662109375,0.7171630859375,0.0762939453125
5.3099999,1.3096283674240112,-0.9457096457481384,9.670180320739746,0.396728515625,0.7171630859375,-0.4425048828125
5.329999900000001,1.3120225667953491,-0.9433154463768005,9.66539192199707,-0.1373291015625,0.6256103515625,-0.1068115234375
5.3499999,1.316810965538025,-0.9313444495201111,9.660603523254395,-0.396728515625,0.79345703125,0.6103515625
5.369999900000001,1.314416766166687,-0.9385270476341248,9.653421401977539,-0.1220703125,0.701904296875,1.0833740234375
5.3899999,1.3096283674240112,-0.9385270476341248,9.653421401977539,0.152587890625,1.46484375,-0.2593994140625
5.409999900000001,1.3048399686813354,-0.9481038451194763,9.658209800720215,0.0762939453125,1.0833740234375,-0.8697509765625
5.4299999,1.3024457693099976,-0.950498104095459,9.66299819946289,-0.54931640625,0.5645751953125,-0.1220703125
5.449999900000001,1.3072341680526733,-0.9361328482627869,9.672574996948242,-1.03759765625,0.67138671875,-0.1068115234375
5.4699999,1.3096283674240112,-0.9385270476341248,9.66539192199707,-0.885009765625,0.579833984375,-0.1068115234375
5.489999900000001,1.3120225667953491,-0.9433154463768005,9.658209800720215,-0.1068115234375,1.1138916015625,-0.4119873046875
5.5099999,1.3120225667953491,-0.9481038451194763,9.658209800720215,0.67138671875,1.5411376953125,-0.762939453125
5.529999900000001,1.3120225667953491,-0.950498104095459,9.655815124511719,0.54931640625,0.6866455078125,-0.213623046875
5.5499999,1.3096283674240112,-0.950498104095459,9.66299819946289,0.5645751953125,0.3204345703125,0.2288818359375
5.569999900000001,1.3120225667953491,-0.9313444495201111,9.66299819946289,0.091552734375,0.8544921875,-0.3509521484375
5.5899999000000005,1.3096283674240112,-0.9289502501487732,9.66299819946289,-0.0762939453125,1.3885498046875,0.1068115234375
5.609999900000001,1.3120225667953491,-0.9217676520347595,9.660603523254395,-0.152587890625,0.701904296875,0.4119873046875
5.6299999000000005,1.3096283674240112,-0.9289502501487732,9.653421401977539,-0.274658203125,0.640869140625,0.091552734375
5.6499999,1.3096283674240112,-0.9385270476341248,9.66299819946289,0.152587890625,1.312255859375,-0.335693359375
5.6699999000000005,1.3072341680526733,-0.9361328482627869,9.655815124511719,0.030517578125,0.79345703125,-0.5950927734375
5.6899999,1.3120225667953491,-0.9385270476341248,9.66539192199707,-0.1373291015625,0.8087158203125,0.396728515625
5.709999900000001,1.316810965538025,-0.9217676520347595,9.670180320739746,-0.5340576171875,0.946044921875,0.1678466796875
5.7299999,1.3192051649093628,-0.9169792532920837,9.66299819946289,-0.640869140625,0.7476806640625,0.396728515625
5.749999900000001,1.3192051649093628,-0.9289502501487732,9.66299819946289,-0.213623046875,1.15966796875,0.640869140625
5.7699999,1.314416766166687,-0.9265560507774353,9.655815124511719,0.2288818359375,1.15966796875,-0.457763671875
5.789999900000001,1.3096283674240112,-0.9433154463768005,9.658209800720215,0.7781982421875,0.762939453125,-0.1373291015625
5.8099999,1.3096283674240112,-0.9385270476341248,9.660603523254395,0.5645751953125,0.5340576171875,-0.0152587890625
5.829999900000001,1.3120225667953491,-0.9265560507774353,9.66299819946289,-0.213623046875,0.8544921875,-0.0152587890625
5.8499999,1.314416766166687,-0.9193734526634216,9.670180320739746,-0.5645751953125,1.28173828125,0.30517578125
5.869999900000001,1.314416766166687,-0.9193734526634216,9.66539192199707,-0.06103515625,0.701904296875,0.3509521484375
5.8899999,1.3120225667953491,-0.9265560507774353,9.667786598205566,0.518798828125,0.6561279296875,-0.152587890625
5.909999900000001,1.3096283674240112,-0.9361328482627869,9.66539192199707,0.823974609375,0.640869140625,-0.2593994140625
5.9299999,1.3120225667953491,-0.933738648891449,9.667786598205566,0.5035400390625,0.946044921875,-0.244140625
5.949999900000001,1.316810965538025,-0.9241618514060974,9.66539192199707,-0.1373291015625,0.9307861328125,-0.030517578125
5.9699999,1.316810965538025,-0.9217676520347595,9.66299819946289,-0.4425048828125,0.9002685546875,0.18310546875
5.989999900000001,1.316810965538025,-0.9217676520347595,9.66299819946289,0,1.129150390625,-0.1068115234375
6.0099999,1.3120225667953491,-0.9241618514060974,9.660603523254395,0.48828125,1.068115234375,-0.274658203125
6.029999900000001,1.3096283674240112,-0.9265560507774353,9.660603523254395,0.3204345703125,0.67138671875,0.091552734375
6.0499999,1.3120225667953491,-0.9145850539207458,9.66539192199707,0.06103515625,0.8392333984375,-0.0457763671875
6.069999900000001,1.3120225667953491,-0.9097966551780701,9.66299819946289,-0.091552734375,0.67138671875,0.1220703125
6.0899999000000005,1.316810965538025,-0.8930372595787048,9.670180320739746,-0.3814697265625,1.15966796875,0.091552734375
6.109999900000001,1.316810965538025,-0.8930372595787048,9.672574996948242,-0.640869140625,0.8697509765625,0.3814697265625
6.1299999000000005,1.3192051649093628,-0.9026140570640564,9.66539192199707,-0.335693359375,0.6103515625,0.5340576171875
6.149999900000001,1.316810965538025,-0.9074024558067322,9.66539192199707,0.2593994140625,1.190185546875,-0.1983642578125
6.1699999000000005,1.314416766166687,-0.9241618514060974,9.653421401977539,0.274658203125,1.1444091796875,-0.0457763671875
6.1899999,1.3120225667953491,-0.9265560507774353,9.653421401977539,0.213623046875,1.1138916015625,0.1068115234375
6.209999900000001,1.3096283674240112,-0.9313444495201111,9.651026725769043,1.0986328125,0.946044921875,-0.0762939453125
6.2299999,1.3072341680526733,-0.9361328482627869,9.658209800720215,1.373291015625,1.3427734375,-0.3204345703125
6.249999900000001,1.3072341680526733,-0.9313444495201111,9.660603523254395,0.8392333984375,1.1749267578125,-0.3662109375
6.2699999,1.3120225667953491,-0.9074024558067322,9.670180320739746,0.42724609375,1.1749267578125,-0.4119873046875
6.289999900000001,1.3192051649093628,-0.8810662031173706,9.677363395690918,-0.30517578125,1.0223388671875,0.48828125
6.3099999,1.3215993642807007,-0.8690952062606812,9.684545516967773,-0.9002685546875,0.762939453125,1.2359619140625
6.329999900000001,1.3215993642807007,-0.8667010068893433,9.674968719482422,-0.54931640625,0.6866455078125,0.0762939453125
6.3499999,1.316810965538025,-0.8906430602073669,9.670180320739746,0.42724609375,1.1444091796875,-0.3814697265625
6.369999900000001,1.314416766166687,-0.9145850539207458,9.651026725769043,0.946044921875,0.91552734375,-0.030517578125
6.3899999,1.316810965538025,-0.912190854549408,9.655815124511719,0.7171630859375,0.9613037109375,-0.3204345703125
6.409999900000001,1.316810965538025,-0.9050082564353943,9.653421401977539,-0.1373291015625,0.7171630859375,0.06103515625
6.4299999,1.316810965538025,-0.8954314589500427,9.667786598205566,-0.244140625,0.5340576171875,0.701904296875
6.449999900000001,1.314416766166687,-0.8882488012313843,9.667786598205566,-0.42724609375,0.9002685546875,0.091552734375
6.4699999,1.314416766166687,-0.8882488012313843,9.679757118225098,-0.4730224609375,1.03759765625,-0.2593994140625
6.489999900000001,1.314416766166687,-0.8882488012313843,9.677363395690918,-1.007080078125,0.579833984375,-0.1068115234375
6.5099999,1.3120225667953491,-0.8810662031173706,9.682151794433594,-1.40380859375,0.4730224609375,0.2899169921875
6.529999900000001,1.314416766166687,-0.8858546018600464,9.68933391571045,-1.3275146484375,1.220703125,0.6866455078125
6.5499999,1.316810965538025,-0.8882488012313843,9.677363395690918,-1.28173828125,0.335693359375,0.244140625
6.569999900000001,1.3192051649093628,-0.9026140570640564,9.670180320739746,-0.7476806640625,0.518798828125,0.030517578125
6.5899999000000005,1.3192051649093628,-0.9217676520347595,9.655815124511719,0.274658203125,1.03759765625,0.244140625
6.609999900000001,1.3192051649093628,-0.9289502501487732,9.643844604492188,0.823974609375,0.9918212890625,-0.244140625
6.6299999000000005,1.314416766166687,-0.933738648891449,9.646238327026367,0.6256103515625,0.8392333984375,-0.30517578125
6.649999900000001,1.3120225667953491,-0.9217676520347595,9.658209800720215,-0.1678466796875,1.15966796875,-0.1220703125
6.6699999000000005,1.316810965538025,-0.9026140570640564,9.667786598205566,-0.823974609375,0.67138671875,0.18310546875
6.6899999,1.3192051649093628,-0.8858546018600464,9.679757118225098,-0.885009765625,1.0528564453125,0.67138671875
6.709999900000001,1.3215993642807007,-0.8834604024887085,9.677363395690918,-1.129150390625,0.518798828125,0.67138671875
6.7299999,1.3215993642807007,-0.8978256583213806,9.672574996948242,-0.9765625,0.8087158203125,0.274658203125
6.749999900000001,1.3192051649093628,-0.9217676520347595,9.655815124511719,-0.2899169921875,1.0223388671875,0.244140625
6.7699999,1.316810965538025,-0.9385270476341248,9.643844604492188,0.274658203125,1.2664794921875,-0.0762939453125
6.789999900000001,1.314416766166687,-0.9433154463768005,9.646238327026367,0.823974609375,1.3275146484375,-0.3204345703125
6.8099999,1.314416766166687,-0.9409212470054626,9.648633003234863,0.54931640625,0.6103515625,-0.2899169921875
6.829999900000001,1.316810965538025,-0.9169792532920837,9.670180320739746,0.1373291015625,0.91552734375,-0.30517578125
6.8499999,1.3239935636520386,-0.8978256583213806,9.68694019317627,-0.457763671875,1.1749267578125,0.4119873046875
6.869999900000001,1.3287819623947144,-0.8762778043746948,9.694122314453125,-1.40380859375,0.640869140625,0.8392333984375
6.8899999,1.3311761617660522,-0.8667010068893433,9.703699111938477,-1.8768310546875,0.701904296875,0.823974609375
6.909999900000001,1.3287819623947144,-0.8834604024887085,9.68694019317627,-1.9683837890625,0.457763671875,1.03759765625
6.9299999,1.316810965538025,-0.9097966551780701,9.670180320739746,-0.9918212890625,0.5340576171875,0.7476806640625
6.949999900000001,1.3072341680526733,-0.9409212470054626,9.658209800720215,0.2593994140625,1.2054443359375,-0.1220703125
6.9699999,1.3048399686813354,-0.9576807022094727,9.651026725769043,-0.0152587890625,0.4730224609375,-0.3204345703125
6.989999900000001,1.3048399686813354,-0.9576807022094727,9.648633003234863,-1.0223388671875,0.3204345703125,0.274658203125
7.0099999,1.314416766166687,-0.9481038451194763,9.660603523254395,-0.9765625,0.8697509765625,0.732421875
7.029999900000001,1.3215993642807007,-0.9385270476341248,9.648633003234863,-0.6103515625,0.7476806640625,0.152587890625
7.0499999,1.3239935636520386,-0.9361328482627869,9.658209800720215,-0.152587890625,1.2359619140625,-0.152587890625
7.069999900000001,1.3239935636520386,-0.9289502501487732,9.66299819946289,-0.335693359375,0.946044921875,-0.18310546875
7.0899999000000005,1.3215993642807007,-0.9217676520347595,9.672574996948242,-1.190185546875,0.48828125,0.6256103515625
7.109999900000001,1.3215993642807007,-0.9193734526634216,9.679757118225098,-1.1749267578125,0.6866455078125,1.0986328125
7.1299999000000005,1.3192051649093628,-0.9169792532920837,9.667786598205566,-0.762939453125,0.67138671875,0.6561279296875
7.149999900000001,1.316810965538025,-0.9409212470054626,9.660603523254395,0.1373291015625,1.190185546875,0.885009765625
7.1699999000000005,1.316810965538025,-0.9576807022094727,9.641449928283691,0.5340576171875,1.2054443359375,0.244140625
7.1899999,1.3192051649093628,-0.9648633003234863,9.648633003234863,0.2288818359375,1.3580322265625,-0.701904296875
7.209999900000001,1.3192051649093628,-0.9744400978088379,9.643844604492188,-0.457763671875,0.762939453125,-0.213623046875
7.2299999,1.3215993642807007,-0.9552865028381348,9.66539192199707,-0.701904296875,0.91552734375,-0.18310546875
7.249999900000001,1.3215993642807007,-0.9409212470054626,9.667786598205566,-0.7171630859375,0.640869140625,-0.1068115234375
7.2699999,1.3239935636520386,-0.9313444495201111,9.667786598205566,-0.54931640625,0.2288818359375,0.640869140625
7.289999900000001,1.3239935636520386,-0.9289502501487732,9.66299819946289,-0.5035400390625,0.8087158203125,0.42724609375
7.3099999,1.3192051649093628,-0.9457096457481384,9.648633003234863,-0.3204345703125,0.762939453125,0.18310546875
7.329999900000001,1.314416766166687,-0.9576807022094727,9.648633003234863,0.091552734375,1.03759765625,-0.274658203125
7.3499999,1.314416766166687,-0.9624691009521484,9.651026725769043,-0.0457763671875,0.732421875,-0.3509521484375
7.369999900000001,1.316810965538025,-0.9576807022094727,9.66299819946289,-0.7171630859375,0.579833984375,0.274658203125
7.3899999,1.3215993642807007,-0.950498104095459,9.672574996948242,-1.4801025390625,0.579833984375,0.6103515625
7.409999900000001,1.3239935636520386,-0.9481038451194763,9.674968719482422,-1.3427734375,0.946044921875,0.457763671875
7.4299999,1.3239935636520386,-0.9576807022094727,9.66539192199707,-0.762939453125,0.6103515625,0.2288818359375
7.449999900000001,1.3192051649093628,-0.9720458984375,9.651026725769043,0.1068115234375,0.67138671875,0
7.4699999,1.3215993642807007,-0.9744400978088379,9.646238327026367,0.579833984375,1.52587890625,-0.274658203125
7.489999900000001,1.3215993642807007,-0.9720458984375,9.641449928283691,-0.06103515625,1.0528564453125,0.06103515625
7.5099999,1.3239935636520386,-0.9624691009521484,9.643844604492188,-0.640869140625,1.0223388671875,0.518798828125
7.529999900000001,1.3263877630233765,-0.9576807022094727,9.643844604492188,-0.7476806640625,1.495361328125,0.335693359375
7.5499999,1.3215993642807007,-0.9648633003234863,9.643844604492188,0.091552734375,1.9378662109375,-0.1983642578125
7.569999900000001,1.3192051649093628,-0.9672574996948242,9.646238327026367,0.518798828125,1.6326904296875,-0.48828125
7.5899999000000005,1.314416766166687,-0.9720458984375,9.653421401977539,0.4119873046875,0.885009765625,0
7.609999900000001,1.3120225667953491,-0.9672574996948242,9.66539192199707,-0.030517578125,0.946044921875,0.244140625
7.6299999000000005,1.3120225667953491,-0.9600749015808105,9.677363395690918,-0.335693359375,1.0986328125,-0.030517578125
7.649999900000001,1.3120225667953491,-0.9576807022094727,9.672574996948242,-0.274658203125,0.54931640625,-0.0152587890625
7.6699999000000005,1.3120225667953491,-0.9624691009521484,9.667786598205566,0.274658203125,0.885009765625,0.244140625
7.6899999,1.3120225667953491,-0.9648633003234863,9.655815124511719,0.8392333984375,1.068115234375,-0.1983642578125
7.709999900000001,1.316810965538025,-0.9600749015808105,9.651026725769043,0.823974609375,1.03759765625,-0.3662109375
7.7299999,1.3192051649093628,-0.9552865028381348,9.648633003234863,0.4119873046875,0.6103515625,0.274658203125
7.749999900000001,1.316810965538025,-0.9481038451194763,9.660603523254395,0.1678466796875,0.9765625,0.3814697265625
7.7699999,1.314416766166687,-0.9385270476341248,9.672574996948242,-0.06103515625,0.67138671875,-0.2593994140625
7.789999900000001,1.3120225667953491,-0.9313444495201111,9.684545516967773,-0.6103515625,0.1983642578125,0.0152587890625
7.8099999,1.3096283674240112,-0.9313444495201111,9.68933391571045,-0.8392333984375,0,0.9918212890625
7.829999900000001,1.316810965538025,-0.9313444495201111,9.679757118225098,-0.8087158203125,0.5645751953125,0.5950927734375
7.8499999,1.3215993642807007,-0.9313444495201111,9.66539192199707,-1.03759765625,1.28173828125,-0.3662109375
7.869999900000001,1.3263877630233765,-0.950498104095459,9.653421401977539,-0.9765625,0.823974609375,0.640869140625
7.8899999,1.3287819623947144,-0.9457096457481384,9.658209800720215,-1.129150390625,1.007080078125,0.396728515625
7.909999900000001,1.3263877630233765,-0.9600749015808105,9.648633003234863,-0.9918212890625,0.1220703125,0.7476806640625
7.9299999,1.3263877630233765,-0.9648633003234863,9.655815124511719,-0.54931640625,1.0833740234375,0.3662109375
7.949999900000001,1.3263877630233765,-0.9720458984375,9.639056205749512,-0.152587890625,0.823974609375,-0.1678466796875
7.9699999,1.3263877630233765,-0.9744400978088379,9.651026725769043,0.0457763671875,1.1138916015625,0.3204345703125
7.989999900000001,1.3263877630233765,-0.9744400978088379,9.651026725769043,-0.54931640625,0.701904296875,0.335693359375
8.0099999,1.3239935636520386,-0.9696516990661621,9.660603523254395,-0.9002685546875,0.732421875,0.274658203125
8.0299999,1.3239935636520386,-0.9696516990661621,9.66299819946289,-0.579833984375,0.946044921875,0.1373291015625
8.049999900000001,1.3239935636520386,-0.9744400978088379,9.658209800720215,-0.091552734375,0.91552734375,0.0762939453125
8.069999900000001,1.3215993642807007,-0.9720458984375,9.660603523254395,-0.030517578125,1.129150390625,-0.0152587890625
8.0899999,1.3192051649093628,-0.9672574996948242,9.660603523254395,-0.457763671875,0.8392333984375,0.06103515625
8.1099999,1.3192051649093628,-0.9648633003234863,9.667786598205566,-0.8697509765625,0.54931640625,0.701904296875
8.129999900000001,1.3192051649093628,-0.9648633003234863,9.66299819946289,-0.8087158203125,0.6103515625,0.7476806640625
8.149999900000001,1.3192051649093628,-0.9744400978088379,9.653421401977539,-0.1220703125,0.9307861328125,0.2288818359375
8.1699999,1.3215993642807007,-0.9840168952941895,9.643844604492188,0.6256103515625,1.2664794921875,-0.396728515625
8.1899999,1.3215993642807007,-0.9888052940368652,9.646238327026367,0.4119873046875,1.220703125,-0.1068115234375
8.2099999,1.3239935636520386,-0.9792284965515137,9.655815124511719,-0.7781982421875,0.6866455078125,0.1373291015625
8.229999900000001,1.3263877630233765,-0.9648633003234863,9.667786598205566,-1.129150390625,0.5035400390625,0.91552734375
8.2499999,1.3239935636520386,-0.9744400978088379,9.660603523254395,-0.1678466796875,0.7476806640625,0.18310546875
8.2699999,1.3192051649093628,-0.9911994934082031,9.651026725769043,0.48828125,1.28173828125,-0.42724609375
8.2899999,1.314416766166687,-1.0031704902648926,9.648633003234863,0.5645751953125,0.91552734375,-0.152587890625
8.309999900000001,1.314416766166687,-1.0007762908935547,9.648633003234863,0.1220703125,0.67138671875,0.1220703125
8.3299999,1.316810965538025,-0.9888052940368652,9.655815124511719,-0.213623046875,0.9307861328125,0.0762939453125
8.3499999,1.3192051649093628,-0.9744400978088379,9.66539192199707,-0.579833984375,1.0986328125,0.213623046875
8.3699999,1.3215993642807007,-0.9720458984375,9.66299819946289,-0.701904296875,0.732421875,0.67138671875
8.389999900000001,1.3239935636520386,-0.9744400978088379,9.66299819946289,-0.3814697265625,0.7171630859375,0.2593994140625
8.4099999,1.3239935636520386,-0.9864110946655273,9.658209800720215,-0.0457763671875,0.9918212890625,-0.1220703125
8.4299999,1.3215993642807007,-0.993593692779541,9.658209800720215,0.0152587890625,0.8392333984375,-0.1983642578125
8.4499999,1.3239935636520386,-0.9864110946655273,9.660603523254395,0.06103515625,0.6103515625,-0.0457763671875
8.469999900000001,1.3263877630233765,-0.9768342971801758,9.66299819946289,-0.244140625,0.4119873046875,0.457763671875
8.4899999,1.3287819623947144,-0.9744400978088379,9.660603523254395,-0.2593994140625,0.6561279296875,0.9002685546875
8.5099999,1.3335703611373901,-0.9744400978088379,9.658209800720215,-0.1678466796875,1.007080078125,0.396728515625
8.5299999,1.3311761617660522,-0.9768342971801758,9.66299819946289,-0.06103515625,0.6866455078125,-0.30517578125
8.549999900000001,1.3263877630233765,-0.9768342971801758,9.674968719482422,-0.1983642578125,-0.1068115234375,0.274658203125
8.569999900000001,1.3239935636520386,-0.9768342971801758,9.672574996948242,-0.8697509765625,-0.335693359375,0.91552734375
8.5899999,1.3239935636520386,-0.9744400978088379,9.674968719482422,-0.9002685546875,0.823974609375,0.732421875
8.6099999,1.3239935636520386,-0.9840168952941895,9.653421401977539,-0.5645751953125,1.0528564453125,0.3204345703125
8.629999900000001,1.3263877630233765,-1.0031704902648926,9.646238327026367,0.152587890625,0.9918212890625,0.2593994140625
8.649999900000001,1.3263877630233765,-1.0055646896362305,9.639056205749512,0.3814697265625,1.068115234375,-0.457763671875
8.6699999,1.3287819623947144,-1.0055646896362305,9.648633003234863,-0.1068115234375,0.9918212890625,0
8.6899999,1.3311761617660522,-0.9983820915222168,9.653421401977539,-0.6103515625,1.0528564453125,0.5950927734375
8.709999900000001,1.335964560508728,-0.9792284965515137,9.660603523254395,-0.6103515625,1.007080078125,0.18310546875
8.729999900000001,1.3335703611373901,-0.9768342971801758,9.660603523254395,-0.396728515625,0.579833984375,0.2593994140625
8.7499999,1.3335703611373901,-0.9768342971801758,9.658209800720215,-0.6103515625,0.7781982421875,0.5950927734375
8.7699999,1.3335703611373901,-0.9792284965515137,9.660603523254395,-0.6866455078125,1.1138916015625,0.244140625
8.7899999,1.3311761617660522,-0.9959878921508789,9.653421401977539,-0.396728515625,0.8697509765625,0.3509521484375
8.809999900000001,1.3335703611373901,-1.0007762908935547,9.653421401977539,0.0457763671875,0.8697509765625,-0.1678466796875
8.8299999,1.3335703611373901,-1.0055646896362305,9.653421401977539,0.2899169921875,1.15966796875,-0.213623046875
8.8499999,1.335964560508728,-0.9983820915222168,9.651026725769043,-0.3814697265625,0.91552734375,0.30517578125
8.8699999,1.335964560508728,-0.9864110946655273,9.655815124511719,-1.1749267578125,1.190185546875,0.4119873046875
8.889999900000001,1.335964560508728,-0.9888052940368652,9.658209800720215,-0.9002685546875,1.1138916015625,0.4730224609375
8.9099999,1.3311761617660522,-0.9959878921508789,9.655815124511719,0.1373291015625,0.8392333984375,0
8.9299999,1.3287819623947144,-1.0031704902648926,9.651026725769043,0.5950927734375,0.701904296875,-0.4119873046875
8.9499999,1.3287819623947144,-1.0055646896362305,9.655815124511719,0.1983642578125,1.1138916015625,-0.0152587890625
8.969999900000001,1.3287819623947144,-1.0007762908935547,9.655815124511719,-0.274658203125,0.9002685546875,0.457763671875
8.9899999,1.3287819623947144,-0.993593692779541,9.66539192199707,-0.3814697265625,0.7781982421875,0.0762939453125
9.0099999,1.3263877630233765,-0.9864110946655273,9.670180320739746,-0.457763671875,0.9307861328125,-0.030517578125
9.0299999,1.3239935636520386,-0.9911994934082031,9.66539192199707,-0.5645751953125,0.8392333984375,0.48828125
9.049999900000001,1.3263877630233765,-0.9888052940368652,9.66299819946289,-0.2593994140625,1.068115234375,0.4425048828125
9.069999900000001,1.3239935636520386,-1.0007762908935547,9.653421401977539,0.3662109375,0.518798828125,0.335693359375
9.0899999,1.3239935636520386,-1.0079588890075684,9.653421401977539,0.762939453125,0.8544921875,0.0152587890625
9.1099999,1.3287819623947144,-1.0031704902648926,9.655815124511719,0.274658203125,0.762939453125,-0.4425048828125
9.129999900000001,1.3335703611373901,-0.993593692779541,9.66299819946289,-0.2899169921875,0.5950927734375,0.6103515625
9.149999900000001,1.338358759880066,-0.9744400978088379,9.670180320739746,-0.7781982421875,0.396728515625,1.312255859375
9.1699999,1.3455413579940796,-0.9576807022094727,9.672574996948242,-0.67138671875,0.42724609375,1.220703125
9.1899999,1.3431471586227417,-0.9624691009521484,9.672574996948242,-0.3204345703125,0.274658203125,1.3427734375
9.209999900000001,1.338358759880066,-0.9720458984375,9.660603523254395,-0.213623046875,0.030517578125,1.1138916015625
9.229999900000001,1.335964560508728,-0.9864110946655273,9.653421401977539,-0.396728515625,0.4119873046875,0.9613037109375
9.2499999,1.3263877630233765,-1.0103530883789062,9.643844604492188,-0.3662109375,1.0986328125,1.190185546875
9.2699999,1.3287819623947144,-1.01753568649292,9.641449928283691,-0.67138671875,1.495361328125,0.30517578125
9.2899999,1.3287819623947144,-1.0295066833496094,9.643844604492188,-0.579833984375,1.068115234375,0.1068115234375
9.309999900000001,1.3287819623947144,-1.0414776802062988,9.643844604492188,-0.2899169921875,0.579833984375,0.213623046875
9.3299999,1.335964560508728,-1.0342950820922852,9.655815124511719,0.152587890625,1.312255859375,-0.4730224609375
9.3499999,1.338358759880066,-1.0247182846069336,9.653421401977539,-0.6103515625,0.946044921875,-0.274658203125
9.3699999,1.3431471586227417,-1.015141487121582,9.66539192199707,-1.15966796875,0.6866455078125,0.8544921875
9.389999900000001,1.3455413579940796,-1.0031704902648926,9.66299819946289,-0.640869140625,0.579833984375,0.1678466796875
9.4099999,1.3431471586227417,-1.0031704902648926,9.66539192199707,0.1068115234375,1.0528564453125,-0.2899169921875
9.4299999,1.3407529592514038,-1.0055646896362305,9.658209800720215,-0.0152587890625,0.6561279296875,0.1983642578125
9.4499999,1.335964560508728,-1.0079588890075684,9.658209800720215,-0.5645751953125,0.640869140625,0.4730224609375
9.469999900000001,1.3335703611373901,-1.0103530883789062,9.655815124511719,-0.6103515625,1.068115234375,0.06103515625
9.4899999,1.3311761617660522,-1.0127472877502441,9.655815124511719,-0.274658203125,0.9765625,-0.2593994140625
9.5099999,1.3311761617660522,-1.0199298858642578,9.651026725769043,-0.1068115234375,0.8697509765625,0.030517578125
9.5299999,1.3311761617660522,-1.0247182846069336,9.653421401977539,0,1.0528564453125,0.0152587890625
9.549999900000001,1.3311761617660522,-1.0271124839782715,9.651026725769043,0.091552734375,0.8697509765625,-0.1678466796875
9.569999900000001,1.335964560508728,-1.0223240852355957,9.651026725769043,-0.0762939453125,0.8087158203125,-0.3814697265625
9.5899999,1.3407529592514038,-1.0103530883789062,9.655815124511719,-0.274658203125,0.9765625,-0.0457763671875
9.6099999,1.3431471586227417,-1.0127472877502441,9.648633003234863,-0.2899169921875,0.79345703125,0.5645751953125
9.629999900000001,1.3407529592514038,-1.0007762908935547,9.651026725769043,-0.1068115234375,1.129150390625,-0.18310546875
9.649999900000001,1.335964560508728,-1.0079588890075684,9.653421401977539,-0.1678466796875,1.190185546875,-0.2288818359375
9.6699999,1.3311761617660522,-1.0103530883789062,9.653421401977539,-0.1983642578125,0.9613037109375,0.1983642578125
9.6899999,1.3287819623947144,-1.0127472877502441,9.658209800720215,-0.1983642578125,0.946044921875,0
9.709999900000001,1.3287819623947144,-1.0055646896362305,9.66299819946289,-0.3814697265625,1.15966796875,0.06103515625
9.729999900000001,1.3311761617660522,-1.015141487121582,9.658209800720215,-0.42724609375,0.6103515625,0.5950927734375
9.7499999,1.3311761617660522,-1.01753568649292,9.658209800720215,-0.3814697265625,0.91552734375,0.274658203125
9.7699999,1.3335703611373901,-1.0247182846069336,9.651026725769043,-0.3204345703125,0.6866455078125,0.091552734375
9.7899999,1.3335703611373901,-1.0223240852355957,9.653421401977539,-0.1068115234375,0.8087158203125,0.5035400390625
9.809999900000001,1.3335703611373901,-1.015141487121582,9.653421401977539,-0.1983642578125,0.8392333984375,0.0762939453125
9.8299999,1.3311761617660522,-1.0199298858642578,9.655815124511719,-0.3662109375,0.9002685546875,0.091552734375
9.8499999,1.3287819623947144,-1.015141487121582,9.658209800720215,-0.54931640625,0.8697509765625,0.0152587890625
9.8699999,1.3311761617660522,-1.01753568649292,9.660603523254395,-0.579833984375,1.007080078125,0.274658203125
9.889999900000001,1.3287819623947144,-1.0199298858642578,9.658209800720215,-0.42724609375,0.732421875,0.4730224609375
9.9099999,1.3287819623947144,-1.0247182846069336,9.658209800720215,-0.0762939453125,0.9765625,-0.1068115234375
9.9299999,1.3311761617660522,-1.0271124839782715,9.651026725769043,-0.0762939453125,1.190185546875,-0.2593994140625
9.9499999,1.3335703611373901,-1.0271124839782715,9.655815124511719,-0.579833984375,1.0833740234375,0.18310546875
9.969999900000001,1.338358759880066,-1.01753568649292,9.66539192199707,-1.190185546875,1.1444091796875,0.4730224609375
9.9899999,1.338358759880066,-1.015141487121582,9.66539192199707,-1.434326171875,0.457763671875,0.2899169921875
10.0099999,1.3407529592514038,-1.0127472877502441,9.667786598205566,-1.1749267578125,0.9002685546875,0.2899169921875
10.0299999,1.338358759880066,-1.0247182846069336,9.648633003234863,-0.457763671875,0.823974609375,0.42724609375
10.049999900000001,1.338358759880066,-1.0342950820922852,9.639056205749512,0.3509521484375,1.52587890625,0.2593994140625
10.069999900000001,1.335964560508728,-1.0462661981582642,9.62947940826416,0.6866455078125,1.2054443359375,-0.1373291015625
10.0899999,1.3335703611373901,-1.0462661981582642,9.636661529541016,0.6256103515625,0.9765625,-0.1678466796875
10.1099999,1.3311761617660522,-1.036689281463623,9.655815124511719,-0.1983642578125,1.007080078125,0.18310546875
10.129999900000001,1.3311761617660522,-1.0127472877502441,9.679757118225098,-1.40380859375,1.3275146484375,0.42724609375
10.149999900000001,1.3311761617660522,-0.9792284965515137,9.708487510681152,-2.25830078125,0.9613037109375,1.2359619140625
10.1699999,1.3072341680526733,-0.9911994934082031,9.773131370544434,-1.77001953125,1.2359619140625,2.288818359375
10.1899999,1.2449848651885986,-1.015141487121582,10.005369186401367,-0.457763671875,2.5787353515625,0.1068115234375
10.209999900000001,1.1492167711257935,-1.0055646896362305,10.587160110473633,-7.5225830078125,5.79833984375,-3.2196044921875
10.229999900000001,1.0845733880996704,-1.1180921792984009,12.011710166931152,-26.9317626953125,23.01025390625,2.6397705078125
10.2499999,1.0678139925003052,-1.3239935636520386,14.231135368347168,-48.6602783203125,7.9803466796875,7.232666015625
10.2699999,1.0821791887283325,-1.6496049165725708,16.625335693359375,-69.9462890625,-55.0689697265625,-2.838134765625
10.2899999,1.1180921792984009,-2.094926595687866,18.624494552612305,-70.37353515625,-94.0704345703125,-14.373779296875
10.309999900000001,1.0342950820922852,-2.456450939178467,19.098546981811523,-52.91748046875,-124.2523193359375,-24.0325927734375
10.3299999,0.8834604024887085,-2.6192567348480225,17.810466766357422,-38.360595703125,-146.5911865234375,-30.1361083984375
10.3499999,0.6823474764823914,-2.5091233253479004,14.987702369689941,-37.506103515625,-147.76611328125,-33.416748046875
10.3699999,0.5626373887062073,-2.183511972427368,11.18092155456543,-45.9747314453125,-135.1470947265625,-29.998779296875
10.389999900000001,0.6584054827690125,-1.7046716213226318,7.173028469085693,-51.788330078125,-109.1156005859375,-22.7813720703125
10.4099999,1.0654197931289673,-1.213860273361206,3.5673606395721436,-46.3104248046875,-82.58056640625,-16.6473388671875
10.4299999,1.764526605606079,-0.8834604024887085,0.8355764150619507,-31.1431884765625,-57.5714111328125,-10.7421875
10.4499999,2.650381326675415,-0.7015010714530945,-0.8451532125473022,-17.02880859375,-29.84619140625,-8.148193359375
10.469999900000001,3.5410242080688477,-0.6440402865409851,-1.644816517829895,-16.4031982421875,-5.37109375,-4.913330078125
10.4899999,4.225766181945801,-0.5841852426528931,-1.8938134908676147,-20.9197998046875,19.0887451171875,3.1890869140625
10.5099999,4.577713489532471,-0.5099649429321289,-1.9512743949890137,-1.556396484375,45.7611083984375,15.6097412109375
10.5299999,4.558559894561768,-0.24899697303771973,-2.0685901641845703,42.1295166015625,77.117919921875,21.240234375
10.549999900000001,4.1180267333984375,0.1412578970193863,-2.252943754196167,90.7440185546875,105.0262451171875,31.0821533203125
10.569999900000001,3.2609026432037354,0.5817909836769104,-1.8579005002975464,131.591796875,138.153076171875,47.4853515625
10.5899999,2.0015525817871094,0.7350199222564697,-0.4405331015586853,104.461669921875,177.581787109375,64.483642578125
10.6099999,0.5363011956214905,0.27054479718208313,2.913743495941162,28.9306640625,220.2606201171875,67.5811767578125
10.629999900000001,-0.8020575642585754,-0.8307880163192749,8.62630844116211,44.37255859375,230.1177978515625,42.6025390625
10.649999900000001,-1.7262194156646729,-2.0614075660705566,15.971719741821289,73.150634765625,153.0914306640625,5.5694580078125
10.6699999,-2.0398597717285156,-3.488351821899414,23.31713104248047,16.2200927734375,23.5595703125,9.70458984375
10.6899999,-1.824381709098816,-4.357447147369385,29.022512435913086,-14.678955078125,-40.3594970703125,-7.080078125
10.709999900000001,-1.4077905416488647,-4.924872875213623,31.249120712280273,-25.1617431640625,-90.5609130859375,-32.2418212890625
10.729999900000001,-1.01753568649292,-5.023035049438477,30.083145141601562,-41.7633056640625,-134.82666015625,-49.346923828125
10.7499999,-0.828393816947937,-4.587290287017822,26.111164093017578,-56.488037109375,-157.745361328125,-55.633544921875
10.7699999,-0.8523358106613159,-3.7158010005950928,20.47281837463379,-61.065673828125,-176.910400390625,-55.72509765625
10.7899999,-0.8044517636299133,-2.647987127304077,14.144943237304688,-58.3648681640625,-173.4466552734375,-55.60302734375
10.809999900000001,-0.45010992884635925,-1.5897499322891235,8.17380428314209,-48.4771728515625,-137.9547119140625,-53.2989501953125
10.8299999,0.29209262132644653,-0.6703764796257019,3.0837318897247314,-36.224365234375,-101.318359375,-46.600341796875
10.8499999,1.4269442558288574,0.12210428714752197,-0.7206547260284424,-29.5257568359375,-82.5958251953125,-37.109375
10.8699999,2.741360902786255,0.7398083209991455,-2.983175277709961,-17.2119140625,-46.9207763671875,-23.0255126953125
10.889999900000001,3.9863457679748535,1.213860273361206,-4.062960147857666,-9.063720703125,-12.939453125,-7.843017578125
10.9099999,4.972756862640381,1.580173134803772,-4.28322696685791,-4.974365234375,11.41357421875,5.126953125
10.9299999,5.537788391113281,1.8339585065841675,-4.017470359802246,0.79345703125,40.618896484375,21.3775634765625
10.9499999,5.489904403686523,2.0805611610412598,-3.754108190536499,18.5394287109375,66.436767578125,39.276123046875
10.969999900000001,4.752490520477295,2.123656988143921,-3.2417490482330322,68.4661865234375,105.2398681640625,55.5419921875
10.9899999,3.507505416870117,1.9345149993896484,-1.6903064250946045,94.7265625,162.994384765625,62.6678466796875
11.0099999,1.944091796875,1.1563993692398071,1.3527239561080933,46.93603515625,187.6068115234375,71.8994140625
11.0299999,0.38307225704193115,-0.10773907601833344,6.445190906524658,6.439208984375,180.145263671875,67.0928955078125
11.049999900000001,-0.828393816947937,-1.867477297782898,13.175292015075684,19.8822021484375,148.3612060546875,48.8128662109375
11.069999900000001,-1.5322890281677246,-3.907337188720703,20.755334854125977,19.3939208984375,107.1319580078125,27.435302734375
11.0899999,-1.742978811264038,-5.808333396911621,27.013778686523438,-4.94384765625,-18.9361572265625,-1.2664794921875
11.1099999,-1.5538369417190552,-7.117961883544922,30.894779205322266,-15.869140625,-107.36083984375,-37.3687744140625
11.129999900000001,-1.237802267074585,-7.539340972900391,31.215600967407227,-21.8505859375,-139.190673828125,-57.0831298828125
11.149999900000001,-1.01753568649292,-6.964732646942139,28.12468719482422,-37.7960205078125,-162.7960205078125,-62.7288818359375
11.1699999,-0.9409212470054626,-5.65031623840332,22.77843475341797,-53.497314453125,-182.31201171875,-63.96484375
11.1899999,-0.8523358106613159,-3.9815573692321777,16.393098831176758,-60.9893798828125,-184.6923828125,-67.0928955078125
11.209999900000001,-0.5051765441894531,-2.3726539611816406,10.034099578857422,-55.72509765625,-156.707763671875,-64.14794921875
11.229999900000001,0.2561795711517334,-0.9888052940368652,4.448426723480225,-41.3970947265625,-122.1771240234375,-56.640625
11.2499999,1.4772224426269531,0.21308395266532898,0.07182604819536209,-32.928466796875,-98.6175537109375,-51.3763427734375
11.2699999,2.9496564865112305,1.1228805780410767,-2.846705913543701,-22.7813720703125,-67.718505859375,-34.11865234375
11.2899999,5.626373767852783,2.2385785579681396,-5.157110691070557,-2.4566650390625,0.274658203125,3.1585693359375
11.309999900000001,6.3949127197265625,2.360682964324951,-5.157110691070557,11.2152099609375,33.26416015625,16.3116455078125
11.3299999,6.6391215324401855,2.3702597618103027,-4.81473970413208,25.665283203125,65.948486328125,28.13720703125
11.3499999,6.265625953674316,2.255337953567505,-4.3622355461120605,45.3948974609375,90.0421142578125,48.4771728515625
11.3699999,5.310339450836182,2.094926595687866,-3.6391866207122803,72.81494140625,121.09375,66.0552978515625
11.389999900000001,3.821146011352539,1.5610195398330688,-2.432508945465088,81.6802978515625,161.7431640625,76.873779296875
11.4099999,2.0398597717285156,0.7948749661445618,-0.23702596127986908,56.549072265625,201.7364501953125,71.3043212890625
11.4299999,0.22026655077934265,-0.19871874153614044,3.507505416870117,29.0985107421875,222.2900390625,61.737060546875
11.4499999,-1.403002142906189,-1.4077905416488647,8.789113998413086,48.4161376953125,196.990966796875,62.652587890625
11.469999900000001,-2.499546527862549,-2.7102363109588623,15.603012084960938,14.0838623046875,173.2635498046875,53.9703369140625
11.4899999,-2.9927520751953125,-4.422090530395508,22.998701095581055,-27.923583984375,119.049072265625,38.0859375
11.5099999,-2.8443117141723633,-5.916072368621826,28.97223472595215,-8.85009765625,-21.331787109375,-9.7198486328125
11.5299999,-2.2864625453948975,-7.158663272857666,32.42467498779297,6.3323974609375,-107.4066162109375,-41.8853759765625
11.549999900000001,-1.625662922859192,-7.38132381439209,32.067935943603516,-9.21630859375,-149.7955322265625,-53.4210205078125
11.569999900000001,-1.137245774269104,-6.677428722381592,28.323406219482422,-28.2135009765625,-171.844482421875,-61.3861083984375
11.5899999,-0.8690952062606812,-5.336675643920898,22.42169952392578,-35.919189453125,-181.1676025390625,-62.103271484375
11.6099999,-0.6536170840263367,-3.708618402481079,15.717934608459473,-37.7197265625,-185.089111328125,-66.650390625
11.629999900000001,-0.22026655077934265,-2.142810583114624,9.320627212524414,-40.58837890625,-164.154052734375,-66.497802734375
11.649999900000001,0.5195417404174805,-0.849941611289978,3.9432501792907715,-35.2783203125,-136.474609375,-58.9599609375
11.6699999,1.625662922859192,0.20350714027881622,-0.21787235140800476,-23.834228515625,-113.4796142578125,-53.0853271484375
11.6899999,2.920926094055176,0.9193734526634216,-2.8131868839263916,-11.5814208984375,-72.4945068359375,-41.32080078125
11.709999900000001,4.177882194519043,1.479616641998291,-4.292803764343262,-8.85009765625,-39.1082763671875,-26.824951171875
11.729999900000001,5.169081687927246,1.86508309841156,-4.884171485900879,-9.2620849609375,-9.9334716796875,-9.5977783203125
11.7499999,5.736507415771484,2.1045033931732178,-4.987122058868408,-3.0364990234375,32.3944091796875,10.8184814453125
11.7699999,5.774814605712891,2.3319525718688965,-4.898536682128906,11.5203857421875,79.4677734375,25.0396728515625
11.7899999,5.2049946784973145,2.5043349266052246,-4.618414878845215,34.8358154296875,118.34716796875,42.9840087890625
11.809999900000001,4.079719543457031,2.5713725090026855,-3.818751811981201,36.346435546875,159.6832275390625,69.4122314453125
11.8299999,2.470816135406494,2.403778553009033,-2.0829553604125977,24.8565673828125,203.6285400390625,92.1173095703125
11.8499999,0.730231523513794,1.7860745191574097,2.075772762298584,86.5631103515625,248.4893798828125,97.2747802734375
11.8699999,-0.790086567401886,0.44771572947502136,8.585607528686523,104.461669921875,231.903076171875,91.064453125
11.889999900000001,-1.843535304069519,-1.5203180313110352,16.96770668029785,14.7247314453125,125.152587890625,74.8291015625
11.9099999,-2.1499931812286377,-3.9887399673461914,26.238056182861328,-34.24072265625,46.4324951171875,41.748046875
11.9299999,-2.0159177780151367,-6.382941722869873,33.22673034667969,-4.7454833984375,-60.05859375,-9.0179443359375
11.9499999,-1.702277421951294,-7.934384346008301,36.41101837158203,3.47900390625,-182.9376220703125,-50.7659912109375
11.969999900000001,-1.4676456451416016,-8.214506149291992,34.99365234375,-20.0653076171875,-230.0262451171875,-68.756103515625
11.9899999,-1.5155296325683594,-7.242460250854492,29.168560028076172,-34.423828125,-240.66162109375,-64.0869140625
12.0099999,-1.6352397203445435,-5.310339450836182,20.879833221435547,-38.177490234375,-223.32763671875,-64.6514892578125
12.0299999,-1.4748282432556152,-3.3303346633911133,12.157755851745605,-71.5179443359375,-171.20361328125,-59.75341796875
12.049999900000001,-0.7924807667732239,-1.644816517829895,4.692635536193848,-83.7249755859375,-135.2996826171875,-56.0760498046875
12.069999900000001,0.4692635238170624,-0.40940847992897034,-0.6368576288223267,-58.0596923828125,-112.640380859375,-64.14794921875
12.0899999,2.1284453868865967,0.48602294921875,-3.861847400665283,-32.1197509765625,-96.1761474609375,-58.89892578125
12.1099999,3.84269380569458,1.2497732639312744,-5.434837818145752,-20.8282470703125,-67.291259765625,-41.6107177734375
12.129999900000001,5.339069843292236,1.9105730056762695,-6.095637321472168,-15.93017578125,-31.3262939453125,-17.547607421875
12.149999900000001,6.385335922241211,2.341529369354248,-6.3302693367004395,-4.425048828125,13.5345458984375,1.4495849609375
12.1699999,6.914454460144043,2.5905263423919678,-6.315904140472412,10.3759765625,58.16650390625,8.4228515625
12.1899999,6.854599475860596,2.7006595134735107,-6.155492782592773,14.4805908203125,96.6949462890625,21.0418701171875
12.209999900000001,6.208165168762207,2.736572504043579,-5.803544998168945,12.176513671875,133.3770751953125,49.2706298828125
12.229999900000001,4.946420669555664,2.8347349166870117,-5.310339450836182,40.46630859375,171.417236328125,70.0225830078125
12.2499999,3.095702886581421,2.715024709701538,-4.065354347229004,90.39306640625,223.1292724609375,82.5958251953125
12.2699999,0.9696516990661621,2.3080103397369385,-1.1875240802764893,77.6519775390625,285.858154296875,92.987060546875
12.289999900000002,-1.170764684677124,1.259350061416626,3.4835634231567383,18.6309814453125,279.754638671875,102.0660400390625
12.309999900000001,-2.9927520751953125,-0.2561795711517334,10.54406452178955,53.436279296875,235.4736328125,86.12060546875
12.3299999,-4.055777549743652,-2.31758713722229,19.309236526489258,53.6651611328125,194.9920654296875,64.1937255859375
12.3499999,-4.393360137939453,-4.711789131164551,27.77513313293457,-4.241943359375,60.638427734375,45.5322265625
12.3699999,-4.062960147857666,-6.801927089691162,34.39031219482422,-15.411376953125,-62.713623046875,-3.72314453125
12.389999900000001,-3.354276657104492,-8.123526573181152,37.20349884033203,-18.341064453125,-148.468017578125,-50.7659912109375
12.4099999,-2.7006595134735107,-8.322244644165039,35.31686782836914,-24.0325927734375,-205.780029296875,-65.948486328125
12.4299999,-2.276885747909546,-7.309497833251953,29.680917739868164,-37.9791259765625,-219.90966796875,-68.7255859375
12.4499999,-1.965639591217041,-5.540182590484619,21.787235260009766,-44.4488525390625,-217.529296875,-74.64599609375
12.469999900000001,-1.5490485429763794,-3.6176388263702393,13.369222640991211,-46.661376953125,-203.2470703125,-78.2623291015625
12.4899999,-0.7398083209991455,-1.7693150043487549,5.92325496673584,-48.9349365234375,-163.7115478515625,-80.596923828125
12.5099999,0.4884171485900879,-0.24420857429504395,0.2082955539226532,-38.299560546875,-119.4610595703125,-71.7315673828125
12.5299999,1.9967641830444336,1.1420341730117798,-3.5889084339141846,-25.57373046875,-95.3826904296875,-57.55615234375
12.549999900000001,3.5434184074401855,2.2577321529388428,-5.837063789367676,-13.1988525390625,-72.6165771484375,-35.2935791015625
12.569999900000001,4.881777286529541,3.0334534645080566,-6.962338447570801,0.3204345703125,-29.1748046875,-9.521484375
12.5899999,5.815515995025635,3.423708438873291,-7.3238630294799805,7.232666015625,45.9136962890625,9.765625
12.6099999,6.229712963104248,3.56017804145813,-7.216124057769775,7.99560546875,82.275390625,19.4091796875
12.629999900000001,6.045359134674072,3.514688014984131,-6.562506675720215,14.678955078125,114.1204833984375,44.342041015625
12.649999900000001,5.152322292327881,3.426102638244629,-5.56173038482666,34.1644287109375,153.9764404296875,72.967529296875
12.6699999,3.60566782951355,3.00711727142334,-3.801992416381836,90.6982421875,196.9451904296875,92.8192138671875
12.6899999,1.5921441316604614,2.0805611610412598,-0.646434485912323,111.175537109375,246.246337890625,86.60888671875
12.709999900000001,-0.4812345504760742,0.811634361743927,4.537012100219727,61.1114501953125,261.016845703125,68.695068359375
12.729999900000001,-2.207453966140747,-1.0223240852355957,11.583148002624512,10.345458984375,225.5706787109375,63.018798828125
12.7499999,-3.2752678394317627,-3.141192674636841,19.922151565551758,11.6424560546875,156.8603515625,54.50439453125
12.7699999,-3.56017804145813,-5.147533416748047,27.51177215576172,14.8162841796875,40.9088134765625,10.2691650390625
12.789999900000002,-3.308786630630493,-6.890512466430664,32.75507354736328,-10.43701171875,-67.2607421875,-36.1785888671875
12.809999900000001,-2.7940332889556885,-7.6566572189331055,34.62255096435547,-34.7747802734375,-130.5389404296875,-57.2967529296875
12.8299999,-1.9704279899597168,-6.299144744873047,27.8924503326416,-57.464599609375,-196.6705322265625,-74.798583984375
12.8499999,-1.802833914756775,-4.766855716705322,21.33233642578125,-54.3975830078125,-211.578369140625,-84.5947265625
12.8699999,-1.479616641998291,-3.0310592651367188,13.876792907714844,-56.6253662109375,-218.597412109375,-91.7816162109375
12.889999900000001,-0.790086567401886,-1.2761094570159912,7.0341644287109375,-50.9796142578125,-160.675048828125,-86.7462158203125
12.9099999,0.37828385829925537,0.569819986820221,1.039083480834961,-44.830322265625,-110.198974609375,-66.925048828125
12.9299999,1.9608511924743652,2.188300371170044,-3.380612850189209,-31.1279296875,-89.752197265625,-37.567138671875
12.9499999,3.7158010005950928,3.4835634231567383,-6.13633918762207,-1.77001953125,-53.5125732421875,-11.962890625
12.969999900000001,5.281609058380127,4.2090067863464355,-7.5201873779296875,24.90234375,-0.2593994140625,8.5601806640625
12.9899999,6.3973069190979,4.3622355461120605,-7.903259754180908,38.970947265625,33.599853515625,25.054931640625
13.0099999,6.8593878746032715,4.218583583831787,-7.508216381072998,38.177490234375,71.4569091796875,39.1845703125
13.0299999,6.543353080749512,3.88818359375,-6.62236213684082,53.802490234375,112.8997802734375,60.150146484375
13.049999900000001,5.477933406829834,3.406949043273926,-5.446808815002441,101.3031005859375,144.8974609375,79.7576904296875
13.069999900000001,3.6942532062530518,2.736572504043579,-3.84269380569458,117.12646484375,180.572509765625,83.8470458984375
13.0899999,1.4484920501708984,1.6927006244659424,-1.259350061416626,42.0074462890625,247.1160888671875,79.16259765625
13.1099999,-0.8738836050033569,0.5913678407669067,3.4356794357299805,7.7056884765625,304.168701171875,69.3359375
13.129999900000001,-2.985569477081299,-0.6919242739677429,9.734824180603027,52.215576171875,234.55810546875,59.906005859375
13.149999900000001,-4.441244125366211,-2.403778553009033,17.903841018676758,36.80419921875,170.196533203125,64.7125244140625
13.1699999,-5.128379821777344,-4.050989151000977,26.264392852783203,-6.7291259765625,103.1646728515625,16.7388916015625
13.1899999,-5.013458251953125,-5.750872611999512,32.527626037597656,-27.069091796875,-14.2822265625,-33.4014892578125
13.209999900000001,-4.345476150512695,-6.672640323638916,35.78134536743164,-2.7313232421875,-110.83984375,-60.48583984375
13.229999900000001,-3.4356794357299805,-6.512228488922119,34.62494659423828,-13.3056640625,-181.09130859375,-67.8863525390625
13.2499999,-2.5737667083740234,-5.317522048950195,29.793445587158203,-46.81396484375,-202.2552490234375,-70.12939453125
13.2699999,-1.946485996246338,-3.4979286193847656,22.436063766479492,-52.9632568359375,-199.6002197265625,-66.1468505859375
13.289999900000002,-1.3072341680526733,-1.601720929145813,14.238317489624023,-42.724609375,-189.8193359375,-55.60302734375
13.309999900000001,-0.5027823448181152,-0.021547814831137657,6.885724067687988,-37.5823974609375,-151.06201171875,-41.1529541015625
13.3299999,0.6177040338516235,1.1899182796478271,0.9792284965515137,-40.8172607421875,-121.5057373046875,-39.0625
13.3499999,1.9991583824157715,1.9536685943603516,-2.9759926795959473,-36.468505859375,-91.6900634765625,-28.778076171875
13.3699999,3.469198226928711,2.4229321479797363,-5.12119722366333,-21.78955078125,-46.5240478515625,-6.4239501953125
13.389999900000001,4.752490520477295,2.655169725418091,-5.9088897705078125,-19.073486328125,-6.9732666015625,11.077880859375
13.4099999,5.679046630859375,2.604891538619995,-5.772420406341553,-23.5137939453125,26.6571044921875,23.040771484375
13.4299999,6.076483726501465,2.4181437492370605,-5.145139217376709,-14.3890380859375,61.920166015625,32.7606201171875
13.4499999,5.7987565994262695,2.097320795059204,-4.388571739196777,15.7318115234375,94.0704345703125,49.1790771484375
13.469999900000001,4.912901878356934,1.6974890232086182,-3.2824504375457764,49.37744140625,134.58251953125,62.9119873046875
13.4899999,3.4332852363586426,1.0414776802062988,-1.7190368175506592,61.3250732421875,167.54150390625,68.8629150390625
13.5099999,1.5634137392044067,0.2777273952960968,1.0295066833496094,42.236328125,197.265625,60.36376953125
13.5299999,-0.4118026793003082,-0.950498104095459,5.623979568481445,54.3060302734375,222.59521484375,56.121826171875
13.549999900000001,-2.161964178085327,-2.0374655723571777,12.521675109863281,98.480224609375,200.01220703125,39.276123046875
13.569999900000001,-3.442862033843994,-3.756502389907837,20.446481704711914,40.0390625,97.3968505859375,34.3475341796875
13.5899999,-3.993528366088867,-5.125985622406006,28.419174194335938,-9.3536376953125,-12.298583984375,-9.490966796875
13.6099999,-3.976768970489502,-6.361393928527832,33.41108322143555,-6.317138671875,-103.0120849609375,-49.4537353515625
13.629999900000001,-3.576937437057495,-6.665457725524902,34.70634841918945,-1.3427734375,-169.677734375,-67.9473876953125
13.649999900000001,-3.0334534645080566,-6.01423454284668,31.794998168945312,-24.078369140625,-205.6427001953125,-73.822021484375
13.6699999,-2.5498247146606445,-4.599261283874512,25.914838790893555,-41.2139892578125,-224.639892578125,-72.021484375
13.6899999,-2.1045033931732178,-2.8443117141723633,18.58139991760254,-47.30224609375,-222.4273681640625,-77.5604248046875
13.709999900000001,-1.4484920501708984,-1.137245774269104,10.687716484069824,-49.2401123046875,-221.6644287109375,-78.61328125
13.729999900000001,-0.4429273009300232,0.3711012601852417,3.97916316986084,-40.4815673828125,-158.843994140625,-67.7947998046875
13.7499999,1.01753568649292,1.6065093278884888,-1.5155296325683594,-42.0989990234375,-110.595703125,-49.468994140625
13.7699999,2.8203697204589844,2.6144683361053467,-5.178658485412598,-42.1142578125,-84.259033203125,-34.60693359375
13.789999900000002,4.642356872558594,3.3279404640197754,-7.321468830108643,-27.9541015625,-48.431396484375,-13.36669921875
13.809999900000001,6.150704383850098,3.670311212539673,-8.38688850402832,-15.350341796875,4.4403076171875,12.5274658203125
13.8299999,7.067683219909668,3.6990416049957275,-8.681375503540039,0.4119873046875,56.365966796875,28.7322998046875
13.8499999,7.2352776527404785,3.4380736351013184,-8.38449478149414,13.4124755859375,98.8616943359375,40.863037109375
13.8699999,6.586448669433594,3.043030261993408,-7.572859764099121,26.18408203125,138.18359375,58.6090087890625
13.889999900000001,5.128379821777344,2.6384103298187256,-6.2847795486450195,48.919677734375,173.88916015625,76.47705078125
13.9099999,3.045424461364746,2.140416383743286,-4.02465295791626,71.4111328125,223.2666015625,89.3402099609375
13.9299999,0.6153098344802856,1.1109095811843872,-0.4620809257030487,48.33984375,266.8304443359375,97.35107421875
13.9499999,-1.7932571172714233,-0.019153613597154617,4.704606533050537,26.214599609375,256.317138671875,70.068359375
13.969999900000001,-3.84269380569458,-1.5442601442337036,11.372458457946777,25.4364013671875,221.588134765625,51.9866943359375
13.9899999,-5.130774021148682,-3.2776620388031006,19.156007766723633,-6.927490234375,193.023681640625,57.9986572265625
14.0099999,-5.657498836517334,-4.865017890930176,27.059267044067383,-6.3323974609375,104.67529296875,21.66748046875
14.0299999,-5.348646640777588,-6.361393928527832,32.958580017089844,-18.707275390625,-51.483154296875,-17.7001953125
14.049999900000001,-4.551377296447754,-7.297526836395264,36.02315902709961,-18.463134765625,-134.1094970703125,-53.375244140625
14.069999900000001,-3.5889084339141846,-7.182605266571045,34.787750244140625,-18.9666748046875,-182.891845703125,-76.2481689453125
14.0899999,-2.7676970958709717,-6.260837554931641,29.96343421936035,-39.6575927734375,-204.193115234375,-76.080322265625
14.1099999,-2.2002713680267334,-4.683058738708496,22.962787628173828,-47.5311279296875,-216.7816162109375,-76.23291015625
14.129999900000001,-1.680729627609253,-2.937685489654541,15.071499824523926,-43.02978515625,-226.6693115234375,-85.540771484375
14.149999900000001,-0.993593692779541,-1.1899182796478271,7.441178798675537,-38.2080078125,-203.0487060546875,-86.8377685546875
14.1699999,0.090979665517807,0.44771572947502136,1.1779472827911377,-22.1710205078125,-125.1678466796875,-65.8721923828125
14.1899999,1.534683346748352,1.8794482946395874,-3.5936968326568604,-22.6287841796875,-82.3211669921875,-36.2548828125
14.209999900000001,3.19865345954895,2.894589900970459,-6.31829833984375,-24.627685546875,-47.3785400390625,-13.12255859375
14.229999900000001,4.714183330535889,3.3662476539611816,-7.38132381439209,-21.1944580078125,-4.364013671875,0.0457763671875
14.2499999,5.8203043937683105,3.406949043273926,-7.347805023193359,-16.7083740234375,26.3824462890625,10.9710693359375
14.2699999,6.2847795486450195,3.227383852005005,-6.672640323638916,-3.7994384765625,56.9000244140625,26.275634765625
14.289999900000002,6.030993938446045,3.0813376903533936,-5.643133640289307,11.077880859375,96.527099609375,49.957275390625
14.309999900000001,5.018246650695801,2.7054479122161865,-4.508281707763672,21.881103515625,133.8958740234375,79.0252685546875
14.3299999,3.4835634231567383,2.1715409755706787,-2.535459518432617,65.12451171875,177.9327392578125,89.7369384765625
14.3499999,-0.36152446269989014,-0.021547814831137657,5.317522048950195,10.6658935546875,195.037841796875,99.8382568359375
14.3699999,-1.9632453918457031,-1.968033790588379,11.827356338500977,-53.558349609375,205.657958984375,100.555419921875
14.389999900000001,-2.9496564865112305,-4.469974517822266,18.997989654541016,16.2200927734375,141.0675048828125,63.96484375
14.4099999,-3.2106244564056396,-7.115567684173584,25.58204460144043,32.470703125,25.2532958984375,0.244140625
14.4299999,-2.8203697204589844,-9.208099365234375,30.30341148376465,-15.9759521484375,-45.074462890625,-45.8221435546875
14.4499999,-2.1547815799713135,-10.105925559997559,31.866825103759766,-18.61572265625,-95.03173828125,-74.6002197265625
14.469999900000001,-1.5107412338256836,-9.528923034667969,30.01371192932129,-13.7481689453125,-147.6593017578125,-99.273681640625
14.4899999,-1.0749965906143188,-7.86734676361084,25.687389373779297,-19.866943359375,-159.942626953125,-101.25732421875
14.5099999,-0.7398083209991455,-5.57370138168335,19.706674575805664,-23.8800048828125,-166.0308837890625,-94.1925048828125
14.5299999,-0.33039984107017517,-3.1675288677215576,13.412318229675293,-13.9312744140625,-166.8701171875,-93.5821533203125
14.549999900000001,0.35913026332855225,-0.9696516990661621,7.599195957183838,-8.6212158203125,-146.2554931640625,-87.9364013671875
14.569999900000001,1.3311761617660522,0.8690952062606812,2.779668092727661,-10.1776123046875,-116.241455078125,-69.2138671875
14.5899999,2.5067291259765625,2.3798365592956543,-0.9433154463768005,-5.7525634765625,-93.1396484375,-43.243408203125
14.6099999,3.7014358043670654,3.4763808250427246,-3.5865142345428467,3.631591796875,-57.0831298828125,-16.754150390625
14.629999900000001,4.714183330535889,4.113238334655762,-5.3797712326049805,8.087158203125,-10.0250244140625,8.270263671875
14.649999900000001,5.363011837005615,4.426878929138184,-6.423643112182617,12.3748779296875,36.07177734375,28.778076171875
14.6699999,5.449203014373779,4.3406877517700195,-6.921637058258057,26.4892578125,75.7904052734375,55.0384521484375
14.6899999,4.838681697845459,3.8977603912353516,-6.677428722381592,48.492431640625,123.321533203125,77.3773193359375
14.709999900000001,3.620033025741577,3.1723172664642334,-5.276820659637451,47.454833984375,184.7381591796875,83.282470703125
14.729999900000001,1.9632453918457031,1.7381904125213623,-2.0853497982025146,30.5328369140625,229.6905517578125,94.146728515625
14.7499999,0.23702596127986908,-0.06464344263076782,3.2848446369171143,23.5443115234375,226.9287109375,81.7108154296875
14.7699999,-1.2258312702178955,-2.1380221843719482,10.496180534362793,6.2713623046875,180.0994873046875,53.375244140625
14.789999900000002,-2.2601263523101807,-4.4723687171936035,18.94292449951172,-32.6385498046875,139.5416259765625,45.3338623046875
14.809999900000001,-2.7437551021575928,-6.739677906036377,26.762386322021484,-28.961181640625,44.6929931640625,24.7344970703125
14.8299999,-2.875436305999756,-8.47786808013916,32.08708953857422,-3.35693359375,-92.864990234375,-36.6058349609375
14.8499999,-2.7246015071868896,-9.378087997436523,33.70317840576172,-16.326904296875,-165.8935546875,-75.2105712890625
14.8699999,-2.4660277366638184,-8.96389102935791,31.009700775146484,-23.284912109375,-187.8204345703125,-91.1102294921875
14.889999900000001,-2.0183119773864746,-7.29034423828125,24.930822372436523,-26.1383056640625,-191.7724609375,-90.2862548828125
14.9099999,-1.3551181554794312,-4.8482584953308105,17.26219367980957,-26.7333984375,-177.91748046875,-87.554931640625
14.9299999,-0.3208230137825012,-2.1499931812286377,9.567230224609375,-24.2767333984375,-157.623291015625,-83.740234375
14.9499999,1.0055646896362305,0.35673606395721436,3.1316158771514893,-16.937255859375,-119.903564453125,-66.89453125
14.969999900000001,2.470816135406494,2.3558945655822754,-1.6304513216018677,-13.5498046875,-83.8623046875,-36.529541015625
14.9899999,3.883395195007324,3.778050184249878,-4.759673118591309,-19.22607421875,-53.466796875,-13.36669921875
15.0099999,5.03021764755249,4.474762916564941,-6.485892295837402,-23.1475830078125,-9.1400146484375,7.0037841796875
15.0299999,5.803544998168945,4.58968448638916,-7.208941459655762,-21.6522216796875,43.8385009765625,28.01513671875
15.049999900000001,6.078877925872803,4.369418144226074,-7.15387487411499,-9.2315673828125,87.615966796875,47.54638671875
15.069999900000001,5.770026206970215,3.890577793121338,-6.560112476348877,20.0347900390625,116.943359375,70.49560546875
15.0899999,4.812345504760742,3.2393548488616943,-5.374982833862305,77.8045654296875,147.0794677734375,85.9222412109375
15.1099999,3.1435868740081787,2.365471363067627,-3.550601005554199,103.729248046875,188.0950927734375,91.5374755859375
15.129999900000001,0.9433154463768005,1.0342950820922852,-0.31124621629714966,48.187255859375,242.401123046875,97.015380859375
15.149999900000001,-1.403002142906189,-0.7541735172271729,5.1116204261779785,-3.1280517578125,278.564453125,89.1265869140625
15.1699999,-3.485957622528076,-2.829946517944336,12.919112205505371,10.986328125,235.04638671875,60.791015625
15.1899999,-4.838681697845459,-5.406107425689697,21.76089859008789,3.021240234375,104.1259765625,47.9736328125
15.209999900000001,-5.274426460266113,-7.613561630249023,29.879636764526367,-1.7242431640625,-23.2696533203125,-3.72314453125
15.229999900000001,-4.975151062011719,-9.265560150146484,34.555511474609375,-4.4403076171875,-111.7401123046875,-50.10986328125
15.2499999,-4.211400985717773,-9.59596061706543,34.8691520690918,-19.1497802734375,-168.0755615234375,-81.9549560546875
15.2699999,-3.318363666534424,-8.62630844116211,31.141382217407227,-35.3546142578125,-187.286376953125,-87.0819091796875
15.289999900000002,-2.564189910888672,-6.677428722381592,24.763227462768555,-34.66796875,-193.3135986328125,-82.6416015625
15.309999900000001,-1.922544002532959,-4.343081951141357,17.468095779418945,-30.2581787109375,-203.4454345703125,-88.9129638671875
15.3299999,-1.216254472732544,-2.1978771686553955,10.3549222946167,-32.77587890625,-197.3419189453125,-89.5843505859375
15.3499999,-0.27054479718208313,-0.3926490843296051,4.469974517822266,-26.7333984375,-146.759033203125,-79.5135498046875
15.3699999,0.9864110946655273,1.139639973640442,-0.05506663769483566,-20.3094482421875,-105.04150390625,-64.63623046875
15.389999900000001,2.5330653190612793,2.298433542251587,-3.0526070594787598,-17.6849365234375,-81.7413330078125,-42.0989990234375
15.4099999,4.098873138427734,3.1316158771514893,-4.666299343109131,-9.124755859375,-45.867919921875,-18.8140869140625
15.4299999,5.449203014373779,3.6128504276275635,-5.410895824432373,-6.6986083984375,-6.195068359375,-1.708984375
15.4499999,6.370970726013184,3.708618402481079,-5.52821159362793,-1.4495849609375,32.77587890625,16.6473388671875
15.469999900000001,6.754043102264404,3.6152446269989014,-5.193023681640625,10.040283203125,68.695068359375,33.4320068359375
15.4899999,6.512228488922119,3.35667085647583,-4.630385875701904,28.6407470703125,95.550537109375,53.64990234375
15.5099999,5.671864032745361,3.026270866394043,-3.708618402481079,71.5484619140625,123.4588623046875,70.892333984375
15.5299999,4.211400985717773,2.427720546722412,-2.652775526046753,101.1962890625,152.03857421875,82.33642578125
15.549999900000001,2.252943754196167,1.5275006294250488,-0.8978256583213806,60.1959228515625,200.347900390625,83.4808349609375
15.569999900000001,0.05746084079146385,0.2753331959247589,2.561795711517334,13.7786865234375,259.58251953125,76.263427734375
15.5899999,-1.8818424940109253,-1.048660397529602,8.042123794555664,45.22705078125,245.8038330078125,60.6231689453125
15.6099999,-3.2800562381744385,-2.7317841053009033,15.023615837097168,65.7501220703125,141.143798828125,55.9234619140625
15.629999900000001,-3.7421371936798096,-4.146757125854492,21.825542449951172,46.295166015625,37.0635986328125,34.4390869140625
15.649999900000001,-3.399766445159912,-5.449203014373779,26.764780044555664,-2.0294189453125,8.087158203125,-9.5062255859375
15.6699999,-2.451662540435791,-5.9304375648498535,27.99779510498047,-20.263671875,-40.58837890625,-34.1033935546875
15.6899999,-1.2473790645599365,-5.590460777282715,26.25481605529785,9.1705322265625,-61.8743896484375,-36.2548828125
15.709999900000001,-0.11252748221158981,-4.60165548324585,21.741744995117188,8.97216796875,-79.315185546875,-24.169921875
15.729999900000001,0.7972691655158997,-3.2537200450897217,16.23268699645996,-7.4615478515625,-64.8345947265625,-29.388427734375
15.7499999,1.400607943534851,-2.03507137298584,10.771512985229492,-18.6614990234375,-39.1998291015625,-33.50830078125
15.7699999,1.7932571172714233,-0.8810662031173706,6.473921298980713,-17.9901123046875,-26.9012451171875,-27.5726318359375
15.789999900000002,2.0159177780151367,-0.009576806798577309,3.821146011352539,-5.0506591796875,-13.4735107421875,-10.1776123046875
15.809999900000001,2.142810583114624,0.5626373887062073,2.889801502227783,-0.0457763671875,1.5716552734375,-0.5950927734375
15.8299999,2.2026655673980713,0.8331822156906128,3.3854012489318848,-10.55908203125,14.739990234375,-4.0740966796875
15.8499999,2.2026655673980713,0.7565677165985107,4.843470096588135,-23.0865478515625,17.3797607421875,1.5106201171875
15.869999900000002,2.073378562927246,0.07900865375995636,8.815450668334961,3.692626953125,6.2713623046875,14.7552490234375
15.889999900000001,1.8986018896102905,-0.646434485912323,10.469843864440918,-9.918212890625,1.8463134765625,12.9241943359375
15.9099999,1.6687586307525635,-1.577778935432434,11.78665542602539,-22.1405029296875,4.180908203125,2.777099609375
15.9299999,1.3862427473068237,-2.7030537128448486,12.588712692260742,-16.876220703125,-6.378173828125,-9.3841552734375
15.9499999,1.05105459690094,-4.0964789390563965,12.971784591674805,-11.77978515625,-21.759033203125,-16.66259765625
15.969999900000001,-3.512293815612793,-15.346833229064941,7.814674377441406,32.8521728515625,21.820068359375,-245.330810546875
15.9899999,-3.3039982318878174,-10.299856185913086,7.965508937835693,42.5262451171875,23.86474609375,-245.635986328125
16.0099999,-2.9065608978271484,-5.169081687927246,8.051700592041016,50.3997802734375,18.7835693359375,-223.9990234375
16.0299999,-2.1380221843719482,-0.05746084079146385,8.180987358093262,40.4815673828125,18.7835693359375,-216.6748046875
16.0499999,-0.9097966551780701,4.714183330535889,8.523358345031738,-4.21142578125,39.2608642578125,-193.42041015625
16.0699999,0.8523358106613159,9.550470352172852,9.320627212524414,-37.5213623046875,52.3834228515625,-141.6473388671875
16.089999900000002,2.9544448852539062,14.156914710998535,10.577583312988281,-34.3780517578125,32.745361328125,-60.5010986328125
16.109999900000002,5.058948040008545,17.98524284362793,12.078747749328613,-32.7911376953125,1.953125,31.8756103515625
16.1299999,6.600813865661621,20.099323272705078,13.350069046020508,-43.426513671875,-14.70947265625,101.86767578125
16.1499999,7.156269073486328,19.740192413330078,14.106636047363281,-61.309814453125,-25.604248046875,156.8756103515625
16.1699999,6.813898086547852,17.63568878173828,14.104242324829102,-33.6456298828125,-46.0662841796875,168.5791015625
16.1899999,5.664681434631348,14.216769218444824,13.488932609558105,-3.4027099609375,-65.887451171875,175.84228515625
16.2099999,4.144362926483154,10.467450141906738,12.291831970214844,0.8392333984375,-73.8525390625,212.1124267578125
16.2299999,2.4157495498657227,7.015010833740234,10.821791648864746,-16.2506103515625,-58.6090087890625,222.930908203125
16.249999900000002,0.4908113479614258,3.507505416870117,9.20091724395752,-15.2130126953125,-53.253173828125,231.8572998046875
16.269999900000002,-1.6759412288665771,-0.31124621629714966,7.826645374298096,12.0849609375,-54.1839599609375,234.954833984375
16.2899999,-3.8786067962646484,-4.879383087158203,6.560112476348877,35.58349609375,-49.957275390625,217.71240234375
16.3099999,-5.805939197540283,-10.316615104675293,5.643133640289307,13.9312744140625,-11.1541748046875,166.0919189453125
16.3299999,-7.079654216766357,-16.58224105834961,4.965574264526367,-13.580322265625,24.322509765625,92.2698974609375
16.3499999,-7.436390399932861,-22.213403701782227,4.836287498474121,-6.6680908203125,36.102294921875,-20.32470703125
16.3699999,-7.000645637512207,-26.05609703063965,5.3342814445495605,11.0626220703125,35.1104736328125,-129.608154296875
16.3899999,-6.2201361656188965,-27.389667510986328,6.208165168762207,10.498046875,30.5328369140625,-188.690185546875
16.4099999,-5.363011837005615,-25.258827209472656,7.560888767242432,8.4686279296875,36.5753173828125,-250.5035400390625
16.429999900000002,-4.738125324249268,-21.0881290435791,8.62630844116211,21.759033203125,21.2554931640625,-274.84130859375
16.4499999,-4.309563159942627,-15.425841331481934,9.402029991149902,39.36767578125,5.7525634765625,-280.9295654296875
16.4699999,-3.8091750144958496,-9.002198219299316,9.708487510681152,20.782470703125,15.6402587890625,-298.492431640625
16.4899999,-3.0765492916107178,-2.5929205417633057,9.672574996948242,15.167236328125,22.308349609375,-270.904541015625
16.5099999,-1.8986018896102905,3.4308910369873047,9.464279174804688,15.8843994140625,15.8538818359375,-205.1239013671875
16.5299999,-0.15562310814857483,9.344569206237793,9.514557838439941,-16.3421630859375,19.4854736328125,-163.238525390625
16.5499999,2.0159177780151367,14.731523513793945,9.895236015319824,-25.8636474609375,19.4854736328125,-103.82080078125
16.5699999,4.280832767486572,19.179950714111328,10.556035041809082,-35.3851318359375,3.60107421875,4.5928955078125
16.589999900000002,6.100425720214844,22.103269577026367,11.362881660461426,-55.72509765625,-15.869140625,107.48291015625
16.609999900000002,7.036558628082275,22.59647560119629,12.112266540527344,-50.78125,-32.8369140625,166.5191650390625
16.6299999,6.888118267059326,20.566192626953125,12.394782066345215,-31.4483642578125,-56.243896484375,190.948486328125
16.6499999,5.726930618286133,16.46492576599121,12.160150527954102,-28.6407470703125,-68.145751953125,219.7265625
16.6699999,3.974374771118164,11.279084205627441,11.444284439086914,13.702392578125,-72.8759765625,235.198974609375
16.6899999,1.9584569931030273,6.00226354598999,10.345345497131348,45.806884765625,-76.4007568359375,215.057373046875
16.7099999,-0.08379705995321274,0.9983820915222168,9.033323287963867,59.234619140625,-72.6776123046875,210.723876953125
16.7299999,-1.9297266006469727,-3.5673606395721436,7.778761386871338,62.9730224609375,-56.304931640625,218.3074951171875
16.749999900000002,-3.4739866256713867,-8.003816604614258,6.502651691436768,24.2919921875,-26.7486572265625,211.5478515625
16.769999900000002,-4.541800498962402,-12.550405502319336,5.523423194885254,2.5482177734375,7.50732421875,161.895751953125
16.7899999,-5.073313236236572,-17.238252639770508,4.733336925506592,-7.476806640625,38.2232666015625,74.4171142578125
16.8099999,-4.987122058868408,-20.879833221435547,4.72376012802124,-4.7760009765625,64.3463134765625,-30.2734375
16.8299999,-4.4508209228515625,-22.84786605834961,5.492298603057861,6.3018798828125,65.6585693359375,-101.37939453125
16.8499999,-3.7636849880218506,-22.766464233398438,6.84981107711792,19.8974609375,36.0260009765625,-128.7689208984375
16.8699999,-3.162740468978882,-20.66196060180664,8.456320762634277,29.144287109375,21.3470458984375,-172.6226806640625
16.8899999,-2.8634653091430664,-17.482460021972656,9.703699111938477,27.9693603515625,19.134521484375,-214.4012451171875
16.9099999,-2.8419175148010254,-13.623007774353027,10.321403503417969,24.8565673828125,17.0440673828125,-239.4866943359375
16.929999900000002,-2.873042106628418,-9.279925346374512,10.268731117248535,24.35302734375,8.4381103515625,-247.711181640625
16.9499999,-2.671929121017456,-4.6734819412231445,9.873687744140625,27.008056640625,8.2855224609375,-236.175537109375
16.9699999,-2.032677173614502,-0.038307227194309235,9.136273384094238,-7.1258544921875,25.0396728515625,-207.855224609375
16.9899999,-0.7829039692878723,4.4532151222229,8.80587387084961,-33.8287353515625,48.4771728515625,-171.1883544921875
17.0099999,1.1827356815338135,9.241618156433105,8.983044624328613,-26.55029296875,46.0052490234375,-142.5018310546875
17.0299999,3.60566782951355,13.785813331604004,9.943120002746582,-24.6124267578125,29.083251953125,-70.159912109375
17.0499999,6.030993938446045,17.843984603881836,11.288661003112793,-35.2020263671875,3.936767578125,30.5633544921875
17.0699999,7.802703380584717,20.496761322021484,12.60547161102295,-58.4564208984375,-11.9781494140625,103.5003662109375
17.089999900000002,8.35097599029541,20.812795639038086,13.397953033447266,-74.2950439453125,-29.3121337890625,165.8477783203125
17.109999900000002,7.618350028991699,18.655620574951172,13.512874603271484,-30.1361083984375,-55.908203125,208.1298828125
17.1299999,5.868188381195068,14.690821647644043,12.876016616821289,16.876220703125,-76.5228271484375,202.2247314453125
17.1499999,3.7397429943084717,9.897629737854004,11.729193687438965,23.9105224609375,-79.7119140625,207.244873046875
17.1699999,1.525106430053711,5.142745018005371,10.340557098388672,34.210205078125,-67.7947998046875,212.82958984375
17.1899999,-0.5530605912208557,0.8140285611152649,8.935160636901855,43.182373046875,-62.4237060546875,227.874755859375
17.2099999,-2.3918075561523438,-3.1220390796661377,7.876923561096191,27.3590087890625,-45.684814453125,229.2938232421875
17.2299999,-3.9432501792907715,-7.1921820640563965,6.979097843170166,0.3814697265625,-26.1688232421875,209.8846435546875
17.249999900000002,-5.372588634490967,-15.763423919677734,6.035782337188721,-8.2550048828125,14.5263671875,81.4056396484375
17.269999900000002,-5.231330871582031,-19.37627410888672,5.880159378051758,-5.3863525390625,21.91162109375,-4.7607421875
17.2899999,-4.67827033996582,-21.344308853149414,6.208165168762207,4.852294921875,29.083251953125,-79.071044921875
17.3099999,-4.048594951629639,-21.665130615234375,6.722918510437012,13.5040283203125,22.216796875,-118.499755859375
17.3299999,-3.4835634231567383,-20.16157341003418,7.462726593017578,15.7623291015625,13.73291015625,-156.79931640625
17.3499999,-3.0885202884674072,-17.523162841796875,8.159439086914062,15.9454345703125,14.6942138671875,-199.76806640625
17.3699999,-2.8155810832977295,-13.979743957519531,8.645462036132812,18.8446044921875,10.833740234375,-227.9815673828125
17.3899999,-2.5522189140319824,-9.945513725280762,8.846575736999512,28.076171875,-0.42724609375,-228.9276123046875
17.409999900000003,-2.1571757793426514,-5.784391403198242,8.803479194641113,39.24560546875,-6.6375732421875,-212.1734619140625
17.429999900000002,-1.4939818382263184,-1.6519991159439087,8.525752067565918,24.566650390625,4.5318603515625,-206.0089111328125
17.4499999,-0.3232172429561615,2.5282769203186035,8.394071578979492,-9.979248046875,31.9976806640625,-200.62255859375
17.4699999,1.501164436340332,7.144298076629639,8.655038833618164,-24.139404296875,41.1834716796875,-160.3851318359375
17.4899999,3.8594532012939453,11.779472351074219,9.466673851013184,-16.876220703125,25.8941650390625,-72.6776123046875
17.5099999,6.378153324127197,16.10100555419922,10.60391902923584,-17.913818359375,6.6375732421875,6.53076171875
17.5299999,8.355764389038086,19.122488021850586,11.626243591308594,-34.2559814453125,-5.462646484375,61.2335205078125
17.5499999,9.23682975769043,20.135236740112305,12.112266540527344,-56.9610595703125,-14.7247314453125,132.4462890625
17.5699999,8.755595207214355,18.729839324951172,11.839327812194824,-76.2176513671875,-12.5732421875,201.0345458984375
17.589999900000002,7.225700855255127,15.816096305847168,11.243170738220215,-37.3992919921875,-17.578125,213.836669921875
17.609999900000002,4.98472785949707,11.252747535705566,10.287884712219238,0.457763671875,-39.6575927734375,220.0164794921875
17.6299999,2.5737667083740234,6.4164605140686035,9.481039047241211,25.8026123046875,-48.03466796875,225.830078125
17.6499999,0.26575639843940735,1.656787633895874,8.774748802185059,25.5584716796875,-42.3736572265625,223.1292724609375
17.6699999,-1.7860745191574097,-2.8107926845550537,8.341399192810059,10.9710693359375,-26.8402099609375,217.681884765625
17.6899999,-3.509899616241455,-7.108384609222412,7.936778545379639,-0.8697509765625,-18.1884765625,195.6939697265625
17.7099999,-4.78122091293335,-11.348516464233398,7.5632829666137695,-0.3662109375,-8.819580078125,145.0347900390625
17.7299999,-5.497087001800537,-15.167267799377441,7.146692276000977,-6.0882568359375,10.3302001953125,75.4241943359375
17.749999900000002,-5.6191911697387695,-18.16480827331543,6.900089263916016,-14.4805908203125,27.9541015625,15.899658203125
17.769999900000002,-5.243301868438721,-20.027496337890625,6.689399719238281,-5.79833984375,14.6331787109375,-24.444580078125
17.7899999,-4.596867084503174,-20.374656677246094,6.785167694091797,13.0767822265625,7.62939453125,-77.33154296875
17.8099999,-3.9624037742614746,-19.551050186157227,6.9240312576293945,12.847900390625,14.7857666015625,-125.1983642578125
17.8299999,-3.4955344200134277,-17.587804794311523,7.091625213623047,10.4217529296875,23.13232421875,-162.5518798828125
17.8499999,-3.2609026432037354,-14.939818382263184,7.228095054626465,17.8070068359375,21.0113525390625,-186.1572265625
17.8699999,-3.155557870864868,-11.748347282409668,7.386112213134766,27.4505615234375,20.172119140625,-207.3211669921875
17.8899999,-2.9257144927978516,-8.123526573181152,7.608773231506348,32.318115234375,21.42333984375,-225.1739501953125
17.909999900000003,-2.27209734916687,-4.132391929626465,7.795520782470703,30.3802490234375,22.491455078125,-220.7794189453125
17.929999900000002,-0.8930372595787048,0.47884035110473633,8.185775756835938,3.84521484375,38.360595703125,-195.2667236328125
17.9499999,1.3024457693099976,5.69580602645874,9.064447402954102,-27.4658203125,58.074951171875,-153.5491943359375
17.9699999,4.067748546600342,11.152191162109375,10.338163375854492,-40.46630859375,45.5474853515625,-83.160400390625
17.9899999,6.833051681518555,16.02678680419922,12.023680686950684,-48.492431640625,16.17431640625,11.932373046875
18.0099999,8.743624687194824,18.96686553955078,13.352462768554688,-63.8580322265625,-11.1083984375,104.79736328125
18.0299999,9.318233489990234,18.880674362182617,13.898341178894043,-72.2198486328125,-23.0712890625,172.4090576171875
18.0499999,8.530540466308594,16.122554779052734,13.663708686828613,-39.703369140625,-23.5748291015625,153.6407470703125
18.0699999,6.775590896606445,11.57357120513916,12.689269065856934,-7.6904296875,-44.403076171875,141.1895751953125
18.089999900000002,4.716577529907227,6.67982292175293,11.554417610168457,20.5078125,-61.279296875,158.050537109375
18.109999900000002,2.762908697128296,2.80361008644104,10.390835762023926,24.322509765625,-62.286376953125,165.985107421875
18.1299999,1.0103530883789062,-0.33279404044151306,9.375694274902344,9.21630859375,-46.295166015625,176.9866943359375
18.1499999,-0.5626373887062073,-3.112462282180786,8.473079681396484,6.9580078125,-39.61181640625,184.783935546875
18.1699999,-1.9608511924743652,-6.0190229415893555,7.714118003845215,8.1787109375,-34.210205078125,163.75732421875
18.1899999,-3.1052796840667725,-9.17936897277832,7.0341644287109375,2.410888671875,-21.881103515625,115.997314453125
18.2099999,-3.9049429893493652,-12.404358863830566,6.411672115325928,-4.302978515625,-3.5247802734375,69.3511962890625
18.2299999,-4.326322555541992,-15.30373764038086,5.9088897705078125,-3.60107421875,9.918212890625,29.4647216796875
18.249999900000002,-4.393360137939453,-17.3795108795166,5.74129581451416,7.6904296875,15.716552734375,-22.064208984375
18.269999900000002,-4.230554580688477,-18.45929527282715,5.817910194396973,8.9111328125,15.045166015625,-73.7762451171875
18.2899999,-3.9384617805480957,-18.380287170410156,6.2392897605896,2.1514892578125,19.7906494140625,-110.77880859375
18.3099999,-3.581725835800171,-17.049110412597656,6.782773494720459,3.662109375,22.27783203125,-145.99609375
18.3299999,-3.224989652633667,-14.750677108764648,7.328651428222656,8.5906982421875,19.22607421875,-173.7213134765625
18.3499999,-2.779668092727661,-11.652579307556152,7.860164165496826,13.824462890625,16.9677734375,-192.7337646484375
18.3699999,-2.188300371170044,-8.003816604614258,8.200140953063965,19.04296875,14.1143798828125,-201.7822265625
18.3899999,-1.359906554222107,-4.235342979431152,8.389283180236816,20.843505859375,15.411376953125,-190.643310546875
18.409999900000003,-0.17956513166427612,-0.45489832758903503,8.47547435760498,5.279541015625,33.63037109375,-175.323486328125
18.429999900000002,1.4676456451416016,3.4404678344726562,8.789113998413086,-26.885986328125,54.7332763671875,-159.912109375
18.4499999,3.5913026332855225,7.553706169128418,9.615114212036133,-47.0428466796875,61.3555908203125,-119.5220947265625
18.4699999,5.872976779937744,11.525687217712402,10.896012306213379,-45.47119140625,35.2783203125,-32.40966796875
18.4899999,7.850587368011475,14.676456451416016,12.440272331237793,-31.4788818359375,0.9765625,54.3670654296875
18.5099999,8.968679428100586,16.364368438720703,13.52005672454834,-41.8548583984375,-25.4974365234375,103.9581298828125
18.5299999,8.89445972442627,15.773000717163086,13.85763931274414,-43.0908203125,-36.3311767578125,150.8636474609375
18.5499999,7.738059997558594,13.582305908203125,13.2710599899292,-18.6309814453125,-45.2423095703125,171.417236328125
18.5699999,5.815515995025635,9.959878921508789,12.109871864318848,-9.6588134765625,-50.9185791015625,197.845458984375
18.589999900000002,3.514688014984131,5.9519853591918945,10.83855152130127,-2.3040771484375,-45.83740234375,198.4100341796875
18.609999900000002,1.1324573755264282,1.5538369417190552,9.59835433959961,11.53564453125,-57.6171875,203.521728515625
18.6299999,-1.0797849893569946,-2.7030537128448486,8.506598472595215,23.651123046875,-62.19482421875,194.091796875
18.6499999,-2.985569477081299,-6.92881965637207,7.316680431365967,1.922607421875,-43.182373046875,167.6788330078125
18.6699999,-4.441244125366211,-11.161767959594727,6.119579315185547,-8.8043212890625,-6.9732666015625,128.2501220703125
18.6899999,-5.382165431976318,-15.12417221069336,4.965574264526367,-1.3885498046875,15.1214599609375,67.9168701171875
18.7099999,-5.801150798797607,-18.34197998046875,4.151545524597168,4.638671875,25.9246826171875,-3.7078857421875
18.7299999,-5.760449409484863,-20.396203994750977,3.890577793121338,9.21630859375,36.9415283203125,-64.7430419921875
18.749999900000002,-5.406107425689697,-20.939687728881836,4.098873138427734,13.2293701171875,49.3011474609375,-118.499755859375
18.769999900000002,-4.955997467041016,-20.123266220092773,4.6471452713012695,16.1285400390625,56.70166015625,-168.121337890625
18.7899999,-4.220977783203125,-14.958971977233887,6.531382083892822,29.449462890625,73.8525390625,-268.4326171875
18.8099999,-3.8067808151245117,-10.936713218688965,7.615955829620361,24.8565673828125,56.9000244140625,-265.3350830078125
18.8299999,-3.0382418632507324,-6.045359134674072,8.884882926940918,37.9486083984375,37.109375,-236.297607421875
18.8499999,-1.7597382068634033,-0.7182605266571045,9.998186111450195,26.153564453125,43.4722900390625,-217.3309326171875
18.8699999,0.11971008777618408,4.72376012802124,11.137825965881348,-14.5111083984375,55.084228515625,-174.163818359375
18.8899999,2.4133553504943848,10.034099578857422,12.54561710357666,-37.506103515625,51.544189453125,-99.5330810546875
18.909999900000003,4.63517427444458,14.324508666992188,13.919888496398926,-33.4930419921875,4.8675537109375,1.434326171875
18.929999900000002,6.337451934814453,17.144878387451172,15.164873123168945,-38.8946533203125,-29.35791015625,75.7293701171875
18.9499999,7.058106422424316,17.726669311523438,15.655684471130371,-39.0777587890625,-45.5474853515625,120.1934814453125
18.9699999,6.708553314208984,16.326061248779297,15.138537406921387,-32.71484375,-65.2313232421875,155.3802490234375
18.9899999,5.489904403686523,13.12501335144043,13.831303596496582,-14.892578125,-76.23291015625,197.1588134765625
19.0099999,3.794809579849243,9.105149269104004,12.1194486618042,15.7012939453125,-76.8280029296875,207.1380615234375
19.0299999,1.8746598958969116,4.606443881988525,10.17296314239502,15.3961181640625,-80.74951171875,204.6051025390625
19.0499999,-0.016759412363171577,0.1149216815829277,8.489839553833008,3.387451171875,-70.281982421875,209.625244140625
19.0699999,-1.7597382068634033,-4.2090067863464355,7.0317702293396,-9.246826171875,-49.530029296875,204.4219970703125
19.089999900000002,-3.201047658920288,-8.406042098999023,5.935225963592529,-1.3885498046875,-31.9671630859375,171.4630126953125
19.109999900000002,-4.220977783203125,-12.373234748840332,5.04218864440918,-0.732421875,-19.805908203125,111.968994140625
19.1299999,-4.73573112487793,-15.923835754394531,4.343081951141357,-3.2958984375,1.007080078125,54.0008544921875
19.1499999,-4.774038314819336,-18.59815788269043,4.019864559173584,4.57763671875,29.2816162109375,-3.143310546875
19.1699999,-4.534617900848389,-20.135236740112305,4.079719543457031,15.3045654296875,38.9556884765625,-59.844970703125
19.1899999,-4.225766181945801,-20.448877334594727,4.553771495819092,25.87890625,29.7698974609375,-110.7940673828125
19.2099999,-3.9815573692321777,-19.421764373779297,5.305551052093506,34.8663330078125,30.1055908203125,-155.517578125
19.2299999,-3.885789394378662,-17.405845642089844,6.150704383850098,38.8031005859375,38.9251708984375,-182.4951171875
19.249999900000002,-3.8355112075805664,-14.372392654418945,6.916848659515381,37.5518798828125,38.6505126953125,-204.16259765625
19.269999900000002,-3.689464807510376,-10.790667533874512,7.654263019561768,29.052734375,30.1971435546875,-215.6219482421875
19.2899999,-3.24414324760437,-6.825869083404541,8.418013572692871,35.3240966796875,22.857666015625,-212.0513916015625
19.3099999,-2.296039342880249,-2.513911724090576,9.090784072875977,22.979736328125,17.669677734375,-199.920654296875
19.3299999,-0.5746083855628967,2.322375535964966,10.122684478759766,-38.543701171875,36.8194580078125,-174.4232177734375
19.3499999,1.8076223134994507,7.47230339050293,11.209651947021484,-81.11572265625,38.51318359375,-115.0665283203125
19.3699999,4.548983097076416,12.253523826599121,12.842497825622559,-55.2978515625,23.2086181640625,-25.0396728515625
19.3899999,6.964732646942139,15.828067779541016,14.173673629760742,-58.16650390625,4.425048828125,45.1507568359375
19.409999900000003,8.398859977722168,17.235858917236328,15.119383811950684,-74.493408203125,-27.5421142578125,98.876953125
19.429999900000002,8.5903959274292,16.2278995513916,15.195998191833496,-47.1038818359375,-46.112060546875,137.7105712890625
19.4499999,7.659051418304443,13.656526565551758,14.259865760803223,-18.8446044921875,-68.5272216796875,146.7132568359375
19.4699999,6.028599739074707,10.019734382629395,12.63899040222168,-2.3956298828125,-77.94189453125,172.1038818359375
19.4899999,4.125209331512451,6.430825710296631,10.704475402832031,8.72802734375,-70.7244873046875,187.9119873046875
19.5099999,2.1092917919158936,2.8227639198303223,8.7484130859375,12.298583984375,-70.709228515625,207.7484130859375
19.5299999,0.12449848651885986,-0.768538773059845,7.184999465942383,14.3585205078125,-56.793212890625,215.6219482421875
19.5499999,-1.7597382068634033,-4.41969633102417,6.028599739074707,5.462646484375,-38.8641357421875,192.3370361328125
19.5699999,-3.4356794357299805,-8.451532363891602,5.243301868438721,-13.4124755859375,-16.4794921875,160.9649658203125
19.589999900000002,-4.697423934936523,-12.39957046508789,4.831499099731445,-21.575927734375,6.256103515625,112.9608154296875
19.609999900000002,-5.451597213745117,-15.969325065612793,4.654327869415283,-12.054443359375,16.4337158203125,49.713134765625
19.6299999,-5.702988624572754,-18.70829200744629,4.6734819412231445,5.5084228515625,17.578125,-10.7574462890625
19.6499999,-5.556941986083984,-20.247764587402344,4.8722004890441895,18.98193359375,20.44677734375,-62.9425048828125
19.6699999,-5.216965675354004,-20.434511184692383,5.097255229949951,21.4996337890625,26.85546875,-112.518310546875
19.6899999,-4.831499099731445,-19.37388038635254,5.336675643920898,24.0325927734375,34.97314453125,-154.1748046875
19.7099999,-4.436455726623535,-17.094600677490234,5.657498836517334,27.923583984375,44.281005859375,-189.94140625
19.7299999,-4.022258758544922,-13.994109153747559,6.00226354598999,32.318115234375,44.9676513671875,-206.5887451171875
19.749999900000002,-3.56017804145813,-10.500968933105469,6.406883716583252,48.7518310546875,37.53662109375,-208.4503173828125
19.769999900000002,-2.8778305053710938,-6.48828649520874,6.952761650085449,54.50439453125,39.0625,-218.505859375
19.7899999,-1.9033904075622559,-2.3056161403656006,7.527369976043701,13.427734375,51.5289306640625,-202.4078369140625
19.8099999,-0.5913678407669067,1.6663644313812256,8.439560890197754,-4.3792724609375,59.5855712890625,-144.4854736328125
19.8299999,1.170764684677124,5.51624059677124,9.334992408752441,-9.0789794921875,49.4537353515625,-105.1788330078125
19.8499999,3.3255462646484375,9.14345645904541,10.888829231262207,-40.6646728515625,67.07763671875,-80.56640625
19.8699999,5.523423194885254,11.966219902038574,12.617443084716797,-51.361083984375,59.1278076171875,-9.5977783203125
19.8899999,7.352593421936035,13.680468559265137,14.463372230529785,-34.759521484375,6.8511962890625,74.371337890625
19.909999900000003,8.394071578979492,14.211980819702148,15.969325065612793,1.2054443359375,-33.99658203125,101.37939453125
19.929999900000002,8.305485725402832,12.959814071655273,16.34282112121582,8.11767578125,-68.8934326171875,119.781494140625
19.9499999,7.2113356590271,10.699687004089355,15.605406761169434,-3.5858154296875,-67.8863525390625,154.510498046875
19.9699999,5.360617637634277,7.65186882019043,13.994109153747559,-12.20703125,-58.2427978515625,184.7076416015625
19.9899999,3.1531636714935303,4.19224739074707,11.987768173217773,-0.4425048828125,-64.1632080078125,191.0247802734375
20.0099999,0.912190854549408,0.40701428055763245,9.998186111450195,11.871337890625,-70.159912109375,177.1240234375
20.0299999,-1.1324573755264282,-3.332728862762451,8.106766700744629,11.932373046875,-61.6455078125,155.3955078125
20.0499999,-2.7988216876983643,-6.861782073974609,6.476315498352051,1.0223388671875,-31.6162109375,131.805419921875
20.0699999,-3.9887399673461914,-10.108319282531738,5.1116204261779785,3.96728515625,-8.4381103515625,103.33251953125
20.089999900000002,-4.613626480102539,-12.916718482971191,4.23773717880249,28.4271240234375,5.218505859375,52.215576171875
20.109999900000002,-4.642356872558594,-15.023615837097168,3.885789394378662,36.468505859375,19.317626953125,-8.9263916015625
20.1299999,-4.082113742828369,-15.89271068572998,4.194641590118408,28.74755859375,38.26904296875,-52.6275634765625
20.1499999,-3.179499864578247,-15.720328330993652,4.90571928024292,32.3486328125,41.748046875,-68.4967041015625
20.1699999,-2.190694570541382,-14.415488243103027,5.827486991882324,56.1676025390625,36.468505859375,-97.259521484375
20.1899999,-1.3742717504501343,-12.60307788848877,6.768408298492432,65.7501220703125,47.119140625,-133.2550048828125
20.2099999,-0.6799532771110535,-9.804255485534668,7.8960771560668945,45.3338623046875,63.04931640625,-152.6031494140625
20.2299999,-0.26815059781074524,-7.462726593017578,8.571242332458496,36.590576171875,37.9791259765625,-108.8714599609375
20.249999900000002,-0.009576806798577309,-5.166687488555908,9.351752281188965,80.26123046875,20.8740234375,-101.13525390625
20.269999900000002,0.035913024097681046,-3.8786067962646484,9.473855972290039,89.9810791015625,17.4102783203125,-137.1612548828125
20.2899999,-0.15801730751991272,-3.5027170181274414,9.198522567749023,70.770263671875,33.4625244140625,-167.6177978515625
20.3099999,-1.0438719987869263,-3.471592426300049,8.585607528686523,107.11669921875,65.97900390625,-233.70361328125
20.3299999,-1.4317326545715332,-2.6815059185028076,8.96389102935791,125.213623046875,45.5322265625,-251.800537109375
20.3499999,-1.6879122257232666,-1.5059528350830078,9.627084732055664,135.467529296875,0.701904296875,-230.438232421875
20.3699999,-1.7190368175506592,0.17956513166427612,10.290278434753418,160.1409912109375,-12.0697021484375,-247.894287109375
20.3899999,-1.5322890281677246,3.0837318897247314,10.292673110961914,150.360107421875,-20.477294921875,-273.3612060546875
