# Time (seconds),Accel_X,Accel_Y,Accel_Z,Gyro_X,Gyro_Y,Gyro_Z
0.0099999,0.9600749015808105,-9.93593692779541,-0.2944868206977844,2.50244140625,0.2288818359375,-1.251220703125
0.029999900000000003,0.9193734526634216,-10.101137161254883,-0.28730419278144836,3.936767578125,-0.91552734375,-4.8065185546875
0.0499999,0.8786720037460327,-10.335768699645996,-0.35673606395721436,8.0413818359375,-1.0223388671875,-11.016845703125
0.0699999,0.8212111592292786,-10.666168212890625,-0.3663128614425659,16.41845703125,3.692626953125,-19.8974609375
0.08999990000000001,0.7829039692878723,-11.065999984741211,-0.4381389021873474,25.054931640625,1.739501953125,-30.9295654296875
0.10999990000000001,0.7469909191131592,-11.42752456665039,-0.4165911078453064,31.341552734375,-0.0152587890625,-46.844482421875
0.1299999,0.7469909191131592,-11.741165161132812,-0.272938996553421,41.1376953125,-1.64794921875,-59.08203125
0.14999990000000002,0.8044517636299133,-11.707646369934082,-0.033518824726343155,47.5921630859375,-10.3912353515625,-68.8018798828125
0.1699999,0.9720458984375,-11.27190113067627,0.28969839215278625,44.61669921875,-19.4854736328125,-72.296142578125
0.1899999,1.2306196689605713,-10.467450141906738,0.6751648783683777,35.919189453125,-22.9644775390625,-60.577392578125
0.20999990000000002,1.5921441316604614,-9.368511199951172,0.950498104095459,27.34375,-27.2674560546875,-48.8433837890625
0.2299999,2.0231003761291504,-8.20732307434082,1.1037269830703735,19.927978515625,-27.740478515625,-38.299560546875
0.2499999,2.494758129119873,-7.161057472229004,1.0797849893569946,10.1165771484375,-23.13232421875,-21.881103515625
0.2699999,3.026270866394043,-5.772420406341553,1.1252747774124146,-6.5155029296875,-12.9241943359375,-0.6561279296875
0.28999990000000003,3.4332852363586426,-4.240131378173828,1.2832920551300049,-43.5333251953125,-15.3656005859375,46.8597412109375
0.3099999,3.7445313930511475,-2.2002713680267334,1.2210428714752197,-94.17724609375,-38.8641357421875,122.13134765625
0.3299999,3.620033025741577,0.011971008032560349,0.6512228846549988,-145.6451416015625,-35.9039306640625,198.1658935546875
0.34999990000000003,0.8906430602073669,-2.849100112915039,-2.5450363159179688,-158.14208984375,45.501708984375,303.8330078125
0.3699999,-1.1971008777618408,-7.666234016418457,-3.8307228088378906,-57.1136474609375,39.0167236328125,86.7156982421875
0.3899999,-3.0861260890960693,-14.48970890045166,-4.378994941711426,-16.4642333984375,-7.843017578125,5.9356689453125
0.40999990000000003,-4.235342979431152,-19.74737548828125,-3.883395195007324,24.8260498046875,-12.6800537109375,23.92578125
0.4299999,-4.654327869415283,-22.12242317199707,-3.361459255218506,61.09619140625,-20.1873779296875,-40.0543212890625
0.4499999,-4.532223701477051,-22.18706703186035,-2.8634653091430664,79.40673828125,-17.486572265625,-107.8338623046875
0.4699999,-4.079719543457031,-20.671537399291992,-2.6431987285614014,88.3331298828125,-10.9710693359375,-141.9677734375
0.4899999,-3.2968156337738037,-17.492036819458008,-2.4205379486083984,104.9652099609375,4.1351318359375,-181.45751953125
0.5099999,-2.3104045391082764,-13.965378761291504,-1.9943699836730957,106.0333251953125,9.46044921875,-176.9256591796875
0.5299999,-1.1851298809051514,-10.467450141906738,-1.2856862545013428,88.80615234375,-3.570556640625,-134.368896484375
0.5499999,-0.0071826050989329815,-7.522581577301025,-0.2944868206977844,63.568115234375,-18.98193359375,-118.5455322265625
0.5699999,1.1037269830703735,-5.420472621917725,0.6488286852836609,35.8734130859375,-25.0396728515625,-108.6578369140625
0.5899998999999999,2.1068975925445557,-4.091690540313721,1.259350061416626,13.427734375,-26.2908935546875,-84.16748046875
0.6099998999999999,2.985569477081299,-3.272873640060425,1.3934253454208374,-6.5765380859375,-23.6053466796875,-44.921875
0.6299999,3.801992416381836,-2.4803929328918457,1.1468225717544556,-26.85546875,-13.3209228515625,-11.9781494140625
0.6499999,4.503493309020996,-1.1061211824417114,0.8451532125473022,-47.1954345703125,0.274658203125,29.96826171875
0.6699999,4.8482584953308105,1.1109095811843872,0.28969839215278625,-100.7843017578125,-6.8817138671875,133.0413818359375
0.6899999,4.335899353027344,3.490746021270752,-0.8762778043746948,-187.164306640625,-10.3912353515625,291.80908203125
0.7099999,2.341529369354248,2.719813108444214,-2.7916390895843506,-231.9793701171875,29.6478271484375,417.48046875
0.7299998999999999,-0.45489832758903503,-2.63362193107605,-4.333505153656006,-139.9383544921875,78.033447265625,369.44580078125
0.7499998999999999,-3.5721490383148193,-9.96945571899414,-5.398924827575684,4.8675537109375,50.6134033203125,45.47119140625
0.7699999,-5.872976779937744,-19.02432632446289,-5.216965675354004,56.9610595703125,-26.123046875,-20.6756591796875
0.7899999,-6.89530086517334,-24.507047653198242,-4.177882194519043,93.7957763671875,-40.8172607421875,15.228271484375
0.8099999,-6.88332986831665,-26.324247360229492,-3.423708438873291,135.101318359375,-35.4766845703125,-89.5843505859375
0.8299999,-6.289567947387695,-25.268404006958008,-3.1196448802948,128.1280517578125,-15.777587890625,-183.3343505859375
0.8499998999999999,-5.331887245178223,-21.794418334960938,-2.719813108444214,121.7193603515625,16.0675048828125,-237.6861572265625
0.8699998999999999,-4.098873138427734,-16.88630485534668,-2.2457611560821533,114.1510009765625,3.9825439453125,-229.3701171875
0.8899999,-2.698265314102173,-11.81299114227295,-1.1683704853057861,96.0693359375,-14.7552490234375,-180.4046630859375
0.9099999,-1.1085153818130493,-7.072471618652344,0.10055647045373917,81.7413330078125,-25.4364013671875,-157.470703125
0.9299999,0.5315127968788147,-3.536235809326172,1.3192051649093628,50.2166748046875,-27.496337890625,-123.8861083984375
0.9499999,2.011129379272461,-1.3934253454208374,2.183511972427368,4.5166015625,-24.261474609375,-64.7125244140625
0.9699998999999999,3.3303346633911133,-0.11252748221158981,2.4684219360351562,-31.890869140625,-23.2696533203125,-32.501220703125
0.9899998999999999,4.398148536682129,0.9074024558067322,2.4181437492370605,-61.9049072265625,-13.671875,-11.749267578125
1.0099999,5.130774021148682,2.1787235736846924,1.9608511924743652,-98.7548828125,-11.199951171875,73.638916015625
1.0299999,5.200206279754639,4.170699596405029,0.8140285611152649,-165.0390625,-23.6663818359375,213.31787109375
1.0499999,4.110844135284424,5.307945251464844,-1.3192051649093628,-245.17822265625,-8.819580078125,369.2474365234375
1.0699999,1.4532804489135742,2.296039342880249,-4.039018154144287,-237.762451171875,52.2003173828125,441.986083984375
1.0899999,-1.7286136150360107,-4.829104900360107,-5.882553577423096,-72.021484375,85.235595703125,323.211669921875
1.1099999,-4.821922302246094,-12.344504356384277,-6.947973251342773,55.23681640625,28.62548828125,-8.1939697265625
1.1299999,-6.787561893463135,-20.877439498901367,-6.265625953674316,55.450439453125,-25.421142578125,40.3900146484375
1.1499999,-7.465120792388916,-24.90927505493164,-5.07570743560791,79.681396484375,-13.946533203125,72.08251953125
1.1699998999999999,-7.3454108238220215,-26.029760360717773,-4.1611223220825195,119.4915771484375,-2.8533935546875,-104.461669921875
1.1899998999999999,-6.809109687805176,-25.052927017211914,-3.5242648124694824,125.7476806640625,6.866455078125,-209.9609375
1.2099999,-5.906495571136475,-21.75611114501953,-2.978386878967285,129.7607421875,13.031005859375,-231.231689453125
1.2299999,-4.666299343109131,-16.95094871520996,-2.3032219409942627,125.8392333984375,15.4876708984375,-209.0301513671875
1.2499999,-3.1962592601776123,-11.932701110839844,-1.3934253454208374,97.7325439453125,10.9710693359375,-175.7659912109375
1.2699999,-1.5610195398330688,-7.630321025848389,-0.6153098344802856,65.91796875,7.6446533203125,-163.26904296875
1.2899999,-0.011971008032560349,-4.967968463897705,-0.011971008032560349,26.55029296875,30.303955078125,-143.310546875
1.3099999,1.4197616577148438,-2.896984100341797,0.7589619159698486,31.951904296875,74.5086669921875,-144.04296875
1.3299999,2.6862943172454834,-1.4389152526855469,1.4221558570861816,35.4766845703125,53.7567138671875,-94.1925048828125
1.3499999,3.7469255924224854,0.11013327538967133,2.1547815799713135,-10.955810546875,11.1846923828125,4.150390625
1.3699999,4.517858505249023,1.7142484188079834,2.738966703414917,-72.3724365234375,19.95849609375,78.9947509765625
1.3899999,4.857835292816162,3.184288263320923,2.6815059185028076,-136.7645263671875,24.2156982421875,146.7437744140625
1.4099999,4.24970817565918,4.309563159942627,2.1045033931732178,-182.5714111328125,13.4124755859375,235.870361328125
1.4299998999999999,2.52109432220459,2.252943754196167,0.7829039692878723,-222.3358154296875,-23.6053466796875,363.1134033203125
1.4499999,0.2082955539226532,-1.4963760375976562,-0.7852981686592102,-136.0931396484375,-28.5491943359375,300.35400390625
1.4699999,-2.4181437492370605,-8.561665534973145,-2.8131868839263916,-61.8743896484375,-21.820068359375,149.5819091796875
1.4899999,-4.5825018882751465,-16.390705108642578,-4.211400985717773,-4.5928955078125,6.53076171875,57.6934814453125
1.5099999,-5.9974751472473145,-23.2117862701416,-5.193023681640625,43.39599609375,-1.068115234375,-36.07177734375
1.5299999,-6.703764915466309,-27.059267044067383,-5.427655220031738,90.576171875,-16.2811279296875,-132.8277587890625
1.5499999,-6.689399719238281,-27.492618560791016,-5.264849662780762,138.4429931640625,-11.0626220703125,-203.9794921875
1.5699999,-6.004657745361328,-24.636335372924805,-4.683058738708496,147.76611328125,8.48388671875,-220.39794921875
1.5899999,-4.793191909790039,-19.433734893798828,-3.5936968326568604,116.0888671875,6.04248046875,-215.63720703125
1.6099999,-3.1747114658355713,-13.263877868652344,-2.0877439975738525,91.1407470703125,-24.1546630859375,-200.9735107421875
1.6299999,-1.37906014919281,-7.750030994415283,-0.48602294921875,54.901123046875,-46.5850830078125,-154.3426513671875
1.6499999,0.48602294921875,-3.2992098331451416,0.8690952062606812,19.59228515625,-29.8309326171875,-109.8480224609375
1.6699999,2.1763293743133545,-0.5482721924781799,1.7693150043487549,-3.6773681640625,-9.979248046875,-68.817138671875
1.6899998999999999,3.581725835800171,0.9624691009521484,2.3487119674682617,-17.1966552734375,-12.3443603515625,-29.2510986328125
1.7099999,4.611232280731201,2.1380221843719482,2.9017724990844727,-27.40478515625,-23.86474609375,13.4735107421875
1.7299999,5.142745018005371,3.4596214294433594,3.181894063949585,-81.60400390625,-40.95458984375,107.208251953125
1.7499999,5.006275653839111,4.948814868927002,2.38462495803833,-166.290283203125,-65.673828125,240.203857421875
1.7699999,3.646369218826294,4.584896087646484,0.2801215946674347,-232.666015625,-29.6783447265625,349.9603271484375
1.7899999,1.4460978507995605,-0.1867477297782898,-2.315192937850952,-190.399169921875,33.6761474609375,357.177734375
1.8099999,-1.0869675874710083,-5.748478412628174,-4.766855716705322,-20.5841064453125,31.9976806640625,115.9820556640625
1.8299999,-3.335123062133789,-13.687650680541992,-6.169857978820801,40.8477783203125,-9.063720703125,64.14794921875
1.8499999,-4.888959884643555,-20.271705627441406,-6.232107162475586,43.9605712890625,-3.814697265625,110.1226806640625
1.8699999,-6.133944988250732,-26.015396118164062,-5.1810526847839355,115.9820556640625,13.97705078125,-176.81884765625
1.8899999,-6.009446144104004,-25.019407272338867,-4.213795185089111,142.547607421875,7.568359375,-198.3184814453125
1.9099999,-5.178658485412598,-20.877439498901367,-3.028665065765381,134.7808837890625,-14.0533447265625,-175.9033203125
1.9299998999999999,-3.799597978591919,-15.152902603149414,-1.6041151285171509,92.22412109375,-18.0511474609375,-147.552490234375
1.9499999,-2.0661959648132324,-9.409213066101074,-0.22744916379451752,56.45751953125,-16.90673828125,-120.330810546875
1.9699999,-0.30885201692581177,-4.829104900360107,0.9792284965515137,24.5361328125,-22.0489501953125,-81.8939208984375
1.9899999,1.314416766166687,-1.647210717201233,1.9919757843017578,0.274658203125,-24.627685546875,-46.112060546875
2.0099999,2.734178304672241,0.6560112833976746,2.7437551021575928,-25.2685546875,-28.472900390625,-9.1400146484375
2.0299999,3.7205893993377686,2.2026655673980713,3.00711727142334,-73.3642578125,-32.562255859375,67.535400390625
2.0499999,4.0533833503723145,2.9161376953125,2.6839001178741455,-130.0506591796875,-34.759521484375,168.1060791015625
2.0699999,3.550601005554199,1.922544002532959,1.4628572463989258,-153.106689453125,-31.18896484375,217.6513671875
2.0899999,2.432508945465088,-0.7733271718025208,-0.37828385829925537,-146.4385986328125,-12.0391845703125,187.591552734375
2.1099999,1.0007762908935547,-4.110844135284424,-2.52109432220459,-124.298095703125,24.200439453125,125.3204345703125
2.1299999,-0.5506663918495178,-8.248024940490723,-4.812345504760742,-108.4136962890625,39.36767578125,165.22216796875
2.1499999,-2.075772762298584,-13.230358123779297,-6.358999729156494,-41.2139892578125,64.8040771484375,184.5550537109375
2.1699999,-3.4356794357299805,-17.113754272460938,-7.261613845825195,50.1861572265625,74.462890625,16.3421630859375
2.1899999,-4.5825018882751465,-20.635623931884766,-6.94079065322876,77.423095703125,66.650390625,-90.3472900390625
2.2099999,-5.1810526847839355,-21.981164932250977,-5.746084213256836,66.6046142578125,43.9453125,-60.8673095703125
2.2299999,-5.185841083526611,-20.870256423950195,-4.223371982574463,80.38330078125,6.3018798828125,-86.944580078125
2.2499999,-4.809951305389404,-18.744205474853516,-2.8778305053710938,98.3428955078125,5.9051513671875,-142.76123046875
2.2699999,-4.0749311447143555,-15.95017147064209,-2.0661959648132324,117.7825927734375,16.9677734375,-194.7784423828125
2.2899999,-3.064578056335449,-12.811373710632324,-1.4676456451416016,123.71826171875,21.575927734375,-185.7147216796875
2.3099999,-1.86508309841156,-9.555258750915527,-0.7541735172271729,100.616455078125,13.6260986328125,-130.3863525390625
2.3299999,-0.5626373887062073,-6.5050458908081055,0.22505496442317963,73.0438232421875,-3.7078857421875,-89.35546875
2.3499999,0.6560112833976746,-4.156333923339844,1.2976573705673218,48.1414794921875,-20.4315185546875,-70.9228515625
2.3699999,1.7334020137786865,-2.669534921646118,2.2002713680267334,24.23095703125,-29.7088623046875,-38.2080078125
2.3899999,2.693476915359497,-1.113303780555725,2.9305028915405273,0.91552734375,-29.205322265625,-4.302978515625
2.4099999,3.3686418533325195,0.912190854549408,3.6583402156829834,-56.1370849609375,-33.6456298828125,55.328369140625
2.4299999,3.622427225112915,2.9735984802246094,3.287238836288452,-148.0255126953125,-86.24267578125,177.24609375
2.4499999,2.9257144927978516,3.3423056602478027,1.845929503440857,-217.1173095703125,-90.8203125,281.0821533203125
2.4699999,1.479616641998291,-0.2513911724090576,-0.6392518281936646,-160.369873046875,-27.099609375,274.0325927734375
2.4899999,-0.4189853072166443,-5.669469833374023,-3.28963303565979,-29.8919677734375,5.5694580078125,78.1707763671875
2.5099999,-2.315192937850952,-12.926295280456543,-5.439626216888428,53.16162109375,-20.44677734375,29.9072265625
2.5299999,-3.890577793121338,-20.305225372314453,-6.212953567504883,77.392578125,-21.6064453125,97.198486328125
2.5499999,-4.809951305389404,-23.831884384155273,-6.5265936851501465,103.2562255859375,-3.9215087890625,-62.56103515625
2.5699999,-5.272032260894775,-25.613170623779297,-6.150704383850098,115.2496337890625,27.7252197265625,-188.232421875
2.5899999,-5.0254292488098145,-23.57331085205078,-5.25527286529541,129.0283203125,36.07177734375,-183.89892578125
2.6099999,-4.062960147857666,-18.696321487426758,-3.7684733867645264,116.302490234375,11.8408203125,-152.2216796875
2.6299999,-2.6360161304473877,-12.780248641967773,-1.9249382019042969,67.2149658203125,-5.0201416015625,-109.5123291015625
2.6499999,-0.9983820915222168,-7.398083209991455,-0.08858546614646912,29.5257568359375,4.7454833984375,-84.1827392578125
2.6699999,0.5315127968788147,-3.4955344200134277,1.3862427473068237,6.5155029296875,8.2550048828125,-59.661865234375
2.6899999,1.9129672050476074,-0.7805097699165344,2.3487119674682617,-12.87841796875,7.14111328125,-28.6407470703125
2.7099999,3.0095114707946777,1.1635819673538208,2.75812029838562,-59.9517822265625,24.261474609375,28.9154052734375
2.7299999,3.6607344150543213,2.7293899059295654,2.499546527862549,-129.547119140625,51.8341064453125,114.3798828125
2.7499999,3.488351821899414,3.84269380569458,1.8148049116134644,-188.65966796875,70.37353515625,200.9735107421875
2.7699999,2.2577321529388428,3.711012601852417,0.7757213711738586,-227.325439453125,56.0150146484375,278.7628173828125
2.7899999,0,1.2880805730819702,-0.4118026793003082,-230.865478515625,23.040771484375,312.6220703125
2.8099999,-2.7437551021575928,-4.182670593261719,-1.9512743949890137,-172.637939453125,-13.5040283203125,272.76611328125
2.8299999,-5.288791656494141,-11.896788597106934,-3.8379054069519043,-66.2078857421875,-25.4364013671875,132.5225830078125
2.8499999,-7.1490864753723145,-19.20628547668457,-5.588066577911377,35.9039306640625,1.0986328125,-41.2139892578125
2.8699999,-8.133103370666504,-25.718515396118164,-7.096413612365723,57.1441650390625,5.4168701171875,-80.13916015625
2.8899999,-8.283937454223633,-27.538108825683594,-7.690176010131836,101.01318359375,-2.593994140625,-167.999267578125
2.9099999,-7.783549785614014,-26.266786575317383,-7.316680431365967,163.4979248046875,-6.0272216796875,-236.2213134765625
2.9299999,-6.718130111694336,-22.05059814453125,-6.423643112182617,164.0625,-22.735595703125,-220.9625244140625
2.9499999,-5.188235282897949,-16.057910919189453,-5.003881454467773,140.716552734375,-21.484375,-208.2977294921875
2.9699999,-3.3949780464172363,-10.20887565612793,-3.464409828186035,98.9837646484375,-15.716552734375,-170.8221435546875
2.9899999,-1.5538369417190552,-5.406107425689697,-1.8770540952682495,68.4661865234375,-15.594482421875,-128.1585693359375
3.0099999,0.19871874153614044,-1.9105730056762695,-0.33997663855552673,55.9539794921875,-22.4761962890625,-94.17724609375
3.0299999,1.6855180263519287,0.023942016065120697,0.9145850539207458,39.703369140625,-21.78955078125,-40.8172607421875
3.0499999,2.9161376953125,1.2401964664459229,1.8291701078414917,17.7001953125,-15.4876708984375,7.843017578125
3.0699999,3.7277719974517822,2.078166961669922,2.4899697303771973,-22.8118896484375,-2.8839111328125,58.28857421875
3.0899999,4.060565948486328,3.028665065765381,2.631227731704712,-88.9129638671875,-17.120361328125,139.4500732421875
3.1099999,3.7038300037384033,4.108449935913086,1.5155296325683594,-171.7681884765625,-35.1409912109375,237.4267578125
3.1299999,2.185906171798706,4.0964789390563965,-0.5985504388809204,-232.147216796875,24.658203125,347.259521484375
3.1499999,-0.395043283700943,0.23942017555236816,-3.0310592651367188,-211.5325927734375,86.42578125,407.562255859375
3.1699999,-3.3949780464172363,-6.110002517700195,-5.70777702331543,-68.4356689453125,41.9158935546875,250.518798828125
3.1899999,-6.27280855178833,-13.917494773864746,-7.046135425567627,43.1060791015625,17.8985595703125,43.731689453125
3.2099999,-8.355764389038086,-21.835119247436523,-7.218518257141113,29.35791015625,57.3883056640625,28.50341796875
3.2299999,-9.188945770263672,-25.742456436157227,-7.0317702293396,50.048828125,31.341552734375,-41.534423828125
3.2499999,-9.198522567749023,-26.829423904418945,-6.279991149902344,128.7078857421875,5.4473876953125,-152.6031494140625
3.2699999,-8.528146743774414,-25.117570877075195,-5.609614372253418,165.3900146484375,15.7623291015625,-182.7392578125
3.2899999,-7.386112213134766,-21.210233688354492,-4.790797710418701,160.1104736328125,26.7791748046875,-205.56640625
3.3099999,-6.1052141189575195,-16.505626678466797,-3.6822822093963623,144.5465087890625,18.7835693359375,-215.9271240234375
3.3299999000000002,-4.687847137451172,-11.441889762878418,-2.205059766769409,120.2392578125,-11.6119384765625,-220.306396484375
3.3499999,-3.220201253890991,-7.079654216766357,-0.5099649429321289,78.3233642578125,-23.193359375,-183.3343505859375
3.3699999,-1.659181833267212,-3.5386300086975098,1.0965443849563599,32.623291015625,-22.15576171875,-126.40380859375
3.3899999,1.5466543436050415,0.9193734526634216,3.205836057662964,-8.7127685546875,-26.214599609375,-52.6275634765625
3.4099999,2.9089550971984863,2.935291290283203,4.122815132141113,-37.6739501953125,-22.674560546875,9.5367431640625
3.4299999,3.7493197917938232,4.982333660125732,4.158728122711182,-137.725830078125,-64.88037109375,128.7994384765625
3.4499999,3.6511576175689697,6.40927791595459,3.0166940689086914,-220.428466796875,-98.6480712890625,278.7933349609375
3.4699999,2.3702597618103027,3.8163576126098633,0.6392518281936646,-196.1517333984375,-44.219970703125,360.8551025390625
3.4899999,0.4572925269603729,-0.8906430602073669,-2.559401512145996,-65.765380859375,5.5694580078125,230.1025390625
3.5099999,-1.867477297782898,-8.56645393371582,-5.3127336502075195,17.4560546875,16.3726806640625,78.4454345703125
3.5299999,-4.050989151000977,-16.934188842773438,-6.818686485290527,36.7584228515625,23.0560302734375,65.826416015625
3.5499999,-5.829881191253662,-23.913286209106445,-7.5201873779296875,98.968505859375,5.92041015625,-27.3895263671875
3.5699999,-7.151480674743652,-28.450298309326172,-8.032546997070312,183.013916015625,10.3607177734375,-209.2742919921875
3.5899999,-7.862558364868164,-30.037654876708984,-7.970297336578369,222.71728515625,72.7386474609375,-297.5921630859375
3.6099999,-7.539340972900391,-26.886884689331055,-7.228095054626465,198.3795166015625,80.74951171875,-307.1746826171875
3.6299999,-6.339846134185791,-20.456058502197266,-5.092466831207275,141.66259765625,38.1011962890625,-239.6087646484375
3.6499999,-4.426878929138184,-12.203246116638184,-2.0374655723571777,88.531494140625,-13.641357421875,-177.9327392578125
3.6699999,-2.2697031497955322,-4.606443881988525,1.0749965906143188,50.445556640625,-30.9600830078125,-142.9290771484375
3.6899999,-0.24181437492370605,0.7709329724311829,3.620033025741577,28.717041015625,-22.3846435546875,-104.1717529296875
3.7099999,1.53707754611969,3.97916316986084,5.214571475982666,15.6097412109375,-29.72412109375,-71.1669921875
3.7299999,2.959233283996582,5.22175407409668,6.2416839599609375,-16.8914794921875,-43.304443359375,-32.6690673828125
3.7499999,3.955221176147461,5.805939197540283,6.964732646942139,-78.79638671875,-53.9703369140625,24.8870849609375
3.7699999,4.426878929138184,6.538564682006836,7.060500621795654,-168.51806640625,-103.912353515625,122.7264404296875
3.7899999,3.9671921730041504,7.934384346008301,5.542576789855957,-271.820068359375,-170.196533203125,237.6861572265625
3.8099999,2.1068975925445557,8.525752067565918,1.9512743949890137,-332.6568603515625,-144.195556640625,402.740478515625
3.8299999000000002,-1.0319008827209473,5.899312973022461,-3.7636849880218506,-308.868408203125,-48.431396484375,499.9847412109375
3.8499999,-4.944026470184326,-2.188300371170044,-9.332598686218262,-157.8826904296875,35.5224609375,480.926513671875
3.8699999,-8.49941635131836,-12.279860496520996,-13.194445610046387,31.0516357421875,47.637939453125,177.2613525390625
3.8899999,-11.077971458435059,-24.870967864990234,-14.743494033813477,31.9061279296875,-24.96337890625,-12.0697021484375
3.9099999,-12.148179054260254,-32.6162109375,-13.543998718261719,66.5130615234375,-9.3841552734375,-106.689453125
3.9299999,-11.975796699523926,-35.187583923339844,-11.884817123413086,139.9993896484375,10.2081298828125,-272.7203369140625
3.9499999,-11.243170738220215,-33.1046257019043,-9.852140426635742,166.9921875,26.5960693359375,-296.0205078125
3.9699999,-9.873687744140625,-26.283546447753906,-7.46033239364624,226.6693115234375,54.6112060546875,-350.2960205078125
3.9899999,-7.915230751037598,-17.173608779907227,-4.881777286529541,226.01318359375,26.18408203125,-359.8480224609375
4.0099999,-5.418078422546387,-7.929595947265625,-2.099714994430542,111.26708984375,-18.5546875,-231.9488525390625
4.029999900000001,-2.434903144836426,0.3711012601852417,0.7398083209991455,32.1044921875,-16.66259765625,-121.8414306640625
4.0499999,0.7637503147125244,6.562506675720215,3.1316158771514893,-6.53076171875,-15.31982421875,-82.794189453125
4.069999900000001,3.4955344200134277,11.077971458435059,5.149928092956543,-51.9256591796875,-31.18896484375,-18.98193359375
4.0899999000000005,5.233725070953369,14.439430236816406,5.523423194885254,-152.923583984375,-106.7352294921875,162.353515625
4.1099999,5.015852451324463,16.062698364257812,3.8307228088378906,-230.65185546875,-126.5106201171875,401.5960693359375
4.1299999000000005,2.695871114730835,11.580753326416016,0.40462008118629456,-172.0428466796875,-20.2178955078125,499.9847412109375
4.1499999,-0.9792284965515137,2.2409727573394775,-3.2537200450897217,-5.218505859375,43.27392578125,393.9208984375
4.1699999000000005,-4.759673118591309,-9.327810287475586,-6.471527099609375,55.877685546875,4.913330078125,10.986328125
4.1899999,-7.692570209503174,-21.971588134765625,-7.663839817047119,18.4478759765625,-7.598876953125,3.1890869140625
4.209999900000001,-9.215282440185547,-29.781475067138672,-7.975085735321045,32.1807861328125,24.139404296875,-28.472900390625
4.2299999,-9.59596061706543,-32.340877532958984,-7.6782050132751465,104.55322265625,38.0859375,-244.781494140625
4.249999900000001,-9.239224433898926,-31.22757339477539,-6.672640323638916,136.383056640625,47.7142333984375,-310.211181640625
4.2699999,-8.018181800842285,-25.70175552368164,-5.0876784324646,119.842529296875,18.9666748046875,-284.912109375
4.289999900000001,-5.990292549133301,-17.56625747680664,-3.0597896575927734,88.775634765625,-11.9476318359375,-255.5389404296875
4.3099999,-3.4979286193847656,-9.289502143859863,-1.039083480834961,48.5382080078125,-17.303466796875,-192.3828125
4.329999900000001,-0.8044517636299133,-2.315192937850952,0.5410895943641663,18.00537109375,-16.693115234375,-116.2261962890625
4.3499999,1.8339585065841675,2.717418909072876,1.6352397203445435,7.537841796875,-10.711669921875,-54.473876953125
4.369999900000001,4.158728122711182,6.476315498352051,2.319981336593628,-13.6871337890625,2.3193359375,11.5966796875
4.3899999,5.6670756340026855,9.44991397857666,2.8634653091430664,-62.6068115234375,10.2081298828125,140.9912109375
4.409999900000001,5.5760955810546875,11.604695320129395,2.4660277366638184,-151.8402099609375,-27.3590087890625,330.810546875
4.4299999,3.35667085647583,8.959102630615234,1.381454348564148,-204.6051025390625,-57.7392578125,499.9847412109375
4.449999900000001,0.12928688526153564,2.6240451335906982,-0.28969839215278625,-37.6434326171875,-47.9278564453125,411.2091064453125
4.4699999,-3.4308910369873047,-6.007051944732666,-2.5450363159179688,78.6895751953125,-42.6788330078125,91.5985107421875
4.489999900000001,-6.021417140960693,-15.088258743286133,-3.866635799407959,55.8013916015625,2.1209716796875,94.4366455078125
4.5099999,-7.532158374786377,-21.763294219970703,-4.630385875701904,24.8260498046875,17.4407958984375,129.241943359375
4.529999900000001,-8.355764389038086,-25.426422119140625,-4.752490520477295,78.7200927734375,0,-22.5372314453125
4.5499999,-8.815450668334961,-27.39924430847168,-4.410119533538818,117.73681640625,1.77001953125,-198.3642578125
4.569999900000001,-8.638279914855957,-26.412832260131836,-3.5625722408294678,117.584228515625,8.6517333984375,-253.448486328125
4.5899999000000005,-7.682993412017822,-22.572534561157227,-2.298433542251587,61.03515625,-19.3939208984375,-212.371826171875
4.609999900000001,-5.995080947875977,-16.486473083496094,-0.5434837937355042,20.782470703125,-53.5125732421875,-187.1185302734375
4.6299999000000005,-3.840299606323242,-10.055646896362305,1.4173674583435059,-1.983642578125,-76.6143798828125,-170.5780029296875
4.6499999,-1.2832920551300049,-3.758896589279175,2.7054479122161865,-29.388427734375,-103.4088134765625,-149.139404296875
4.6699999000000005,1.3263877630233765,2.2816741466522217,3.4548330307006836,-86.456298828125,-101.6693115234375,-83.648681640625
4.6899999,3.3854012489318848,8.224082946777344,3.2992098331451416,-129.974365234375,-76.385498046875,50.96435546875
4.709999900000001,3.9887399673461914,12.196063041687012,1.556231141090393,-222.2137451171875,-98.052978515625,290.771484375
4.7299999,2.6144683361053467,10.797849655151367,-1.290474772453308,-225.341796875,-74.2645263671875,480.1025390625
4.749999900000001,-0.3519476354122162,3.5410242080688477,-4.448426723480225,-74.2950439453125,0.6866455078125,370.6512451171875
4.7699999,-3.8307228088378906,-6.67982292175293,-7.094019412994385,29.876708984375,38.7725830078125,34.24072265625
4.789999900000001,-6.830657482147217,-18.588581085205078,-8.851364135742188,35.8428955078125,-15.594482421875,-17.059326171875
4.8099999,-8.643068313598633,-26.80069351196289,-8.87291145324707,90.1031494140625,6.805419921875,-11.23046875
4.829999900000001,-9.205705642700195,-29.599515914916992,-8.274360656738281,166.9464111328125,35.4766845703125,-202.8656005859375
4.8499999,-8.738836288452148,-28.32819366455078,-6.445190906524658,176.300048828125,34.3170166015625,-256.683349609375
4.869999900000001,-7.357381820678711,-22.73055076599121,-3.9384617805480957,118.011474609375,-16.3726806640625,-210.723876953125
4.8899999,-5.245696067810059,-14.911087989807129,-1.259350061416626,43.4112548828125,-62.8814697265625,-161.1785888671875
4.909999900000001,0.0071826050989329815,0.3064578175544739,1.8507179021835327,-53.131103515625,-34.1644287109375,-75.01220703125
4.9299999,2.4157495498657227,6.042964935302734,1.9177556037902832,-107.23876953125,-8.758544921875,42.5262451171875
4.949999900000001,3.93367338180542,10.340557098388672,1.115697979927063,-131.378173828125,17.2882080078125,178.558349609375
4.9699999,3.6966474056243896,11.104307174682617,-0.5339069962501526,-191.0552978515625,12.4969482421875,343.4600830078125
4.989999900000001,1.6711528301239014,6.607996463775635,-2.011129379272461,-143.8140869140625,41.32080078125,416.80908203125
5.0099999,-1.5083470344543457,-1.048660397529602,-2.9688100814819336,-11.0321044921875,40.3289794921875,224.6246337890625
5.029999900000001,-4.786009311676025,-10.41956615447998,-3.713406801223755,38.055419921875,-34.210205078125,47.1954345703125
5.0499999,-7.283161640167236,-18.183961868286133,-3.6607344150543213,44.5709228515625,-46.7376708984375,75.3326416015625
5.069999900000001,-8.406042098999023,-21.957223892211914,-3.555389642715454,39.9932861328125,8.1939697265625,4.33349609375
5.0899999000000005,-8.662221908569336,-23.0322208404541,-3.576937437057495,7.4920654296875,-3.1890869140625,-46.3409423828125
5.109999900000001,-8.08043098449707,-21.655553817749023,-3.265691041946411,17.88330078125,-11.53564453125,-145.7366943359375
5.1299999000000005,-7.122750282287598,-19.179950714111328,-3.308786630630493,11.993408203125,-41.7938232421875,-160.5377197265625
5.1499999,-6.349422931671143,-17.24782943725586,-3.4380736351013184,26.2603759765625,-15.9759521484375,-130.1116943359375
5.1699999000000005,-6.028599739074707,-16.309301376342773,-3.7900211811065674,35.7513427734375,19.5770263671875,-196.22802734375
5.1899999,-6.1267619132995605,-16.385915756225586,-3.9624037742614746,64.0411376953125,11.6729736328125,-316.3909912109375
5.209999900000001,-6.560112476348877,-17.726669311523438,-3.993528366088867,88.7451171875,-24.3682861328125,-329.04052734375
5.2299999,-6.631938934326172,-17.69075584411621,-3.9408559799194336,78.216552734375,-25.3143310546875,-345.27587890625
5.249999900000001,-6.021417140960693,-16.610971450805664,-4.127603530883789,52.337646484375,1.52587890625,-376.7852783203125
5.2699999,-4.592078685760498,-13.682862281799316,-4.228160381317139,63.1256103515625,33.538818359375,-367.1417236328125
5.289999900000001,-2.4636335372924805,-9.612719535827637,-3.9240965843200684,91.9342041015625,33.5540771484375,-296.112060546875
5.3099999,-0.014365210197865963,-5.370194435119629,-3.162740468978882,88.0126953125,20.660400390625,-207.3822021484375
5.329999900000001,2.343923568725586,-1.6352397203445435,-2.075772762298584,62.591552734375,20.294189453125,-185.7757568359375
5.3499999,4.266467571258545,0.9888052940368652,-1.0630255937576294,60.1806640625,30.8380126953125,-174.224853515625
5.369999900000001,5.609614372253418,2.7772738933563232,-0.29209262132644653,63.8427734375,34.3780517578125,-121.2005615234375
5.3899999,6.428431510925293,4.19224739074707,0.26815059781074524,62.6220703125,39.1845703125,-57.9376220703125
5.409999900000001,6.737283706665039,5.106832027435303,0.7709329724311829,42.6788330078125,46.5240478515625,-5.0506591796875
5.4299999,6.528987884521484,5.386953830718994,1.400607943534851,17.08984375,46.600341796875,29.35791015625
5.449999900000001,5.9735331535339355,5.195417881011963,2.1140801906585693,0.8697509765625,22.52197265625,50.323486328125
5.4699999,5.363011837005615,5.631162166595459,2.9281086921691895,-9.8114013671875,-5.340576171875,66.8182373046875
5.489999900000001,4.759673118591309,7.311892032623291,3.687070608139038,-34.393310546875,-21.8048095703125,142.8070068359375
5.5099999,3.8977603912353516,10.038887977600098,3.8738183975219727,-85.540771484375,-52.154541015625,307.159423828125
5.529999900000001,2.432508945465088,13.06515884399414,3.40216064453125,-152.5421142578125,-64.5904541015625,465.33203125
5.5499999,-0.40462008118629456,15.294160842895508,2.013523578643799,-198.6083984375,-42.6788330078125,499.9847412109375
5.569999900000001,-4.469974517822266,13.077129364013672,-0.5339069962501526,-277.34375,-45.4559326171875,499.9847412109375
5.5899999000000005,-8.973467826843262,7.824251174926758,-2.853888511657715,-273.98681640625,-2.50244140625,499.9847412109375
5.609999900000001,-13.792996406555176,-1.0821791887283325,-5.2049946784973145,-157.16552734375,1.64794921875,439.4378662109375
5.6299999000000005,-17.764976501464844,-12.828132629394531,-7.548917770385742,-69.4580078125,-61.7523193359375,378.4637451171875
5.6499999,-20.451271057128906,-21.595699310302734,-8.461109161376953,-73.9593505859375,4.150390625,128.4332275390625
5.6699999000000005,-21.119253158569336,-26.96828842163086,-9.406818389892578,-43.6248779296875,98.57177734375,-261.4593505859375
5.6899999,-20.123266220092773,-29.987377166748047,-9.660603523254395,8.056640625,-34.1033935546875,44.4488525390625
5.709999900000001,-17.544710159301758,-29.822175979614258,-9.521739959716797,103.33251953125,-38.8946533203125,58.1817626953125
5.7299999,-14.683638572692871,-28.49339485168457,-9.131484985351562,125.091552734375,60.5926513671875,-294.4488525390625
5.749999900000001,-12.303802490234375,-27.265169143676758,-8.288725852966309,108.795166015625,62.255859375,-332.09228515625
5.7699999,-10.563218116760254,-23.846248626708984,-7.026981830596924,104.9652099609375,8.72802734375,-332.9620361328125
5.789999900000001,-9.121908187866211,-19.395427703857422,-6.258443355560303,82.9620361328125,-30.8074951171875,-389.129638671875
5.8099999,-7.738059997558594,-14.446613311767578,-5.731719017028809,82.5042724609375,43.5791015625,-395.4925537109375
5.829999900000001,-6.332663536071777,-10.08437728881836,-5.947196960449219,114.044189453125,104.00390625,-351.593017578125
5.8499999,-4.855441093444824,-5.5545477867126465,-5.4444146156311035,167.510986328125,103.1494140625,-347.2747802734375
5.869999900000001,-3.292027235031128,-1.525106430053711,-4.127603530883789,182.5408935546875,50.567626953125,-325.653076171875
5.8899999,-1.7334020137786865,1.6400281190872192,-2.4181437492370605,137.14599609375,1.9683837890625,-225.6317138671875
5.909999900000001,-0.1412578970193863,4.1180267333984375,-0.6033388376235962,56.5643310546875,28.5186767578125,-173.5076904296875
5.9299999,1.3982137441635132,5.896918773651123,0.7757213711738586,2.7618408203125,54.7027587890625,-187.530517578125
5.949999900000001,2.6862943172454834,7.529764175415039,2.1571757793426514,-0.946044921875,31.2652587890625,-150.9857177734375
5.9699999,3.8498764038085938,10.105925559997559,3.1651346683502197,10.55908203125,-33.99658203125,-25.3143310546875
5.989999900000001,4.745307922363281,13.445837020874023,3.4524388313293457,-16.326904296875,-70.465087890625,150.7568359375
6.0099999,5.04218864440918,16.95334243774414,3.1220390796661377,-80.2459716796875,-32.3333740234375,318.9697265625
6.029999900000001,3.928884983062744,18.521543502807617,1.194706678390503,-177.1392822265625,-27.52685546875,455.841064453125
6.0499999,1.256955862045288,14.437036514282227,-0.7182605266571045,-217.8802490234375,-15.777587890625,499.9847412109375
6.069999900000001,-2.0159177780151367,7.939172744750977,-2.5665841102600098,-129.57763671875,-9.8724365234375,412.4603271484375
6.0899999000000005,-5.228936672210693,-0.6248866319656372,-4.141968727111816,-53.89404296875,-54.351806640625,287.2772216796875
6.109999900000001,-7.795520782470703,-9.255983352661133,-5.78678560256958,-57.159423828125,-35.1715087890625,403.0914306640625
6.1299999000000005,-9.81143856048584,-17.652448654174805,-7.2783732414245605,-133.056640625,69.061279296875,436.21826171875
6.149999900000001,-11.57596492767334,-24.406492233276367,-7.513004779815674,-124.725341796875,155.3497314453125,176.0101318359375
6.1699999000000005,-13.026851654052734,-31.52445411682129,-7.3454108238220215,-27.5421142578125,34.5916748046875,3.0364990234375
6.1899999,-13.620613098144531,-36.056678771972656,-6.038176536560059,108.6883544921875,-56.671142578125,-15.899658203125
6.209999900000001,-13.414711952209473,-37.387855529785156,-4.683058738708496,123.779296875,-5.2032470703125,-111.846923828125
6.2299999,-12.801796913146973,-36.52593994140625,-4.271255970001221,86.5020751953125,32.8369140625,-237.7777099609375
6.249999900000001,-12.030863761901855,-32.99688720703125,-3.993528366088867,108.856201171875,19.6380615234375,-366.8975830078125
6.2699999,-11.101913452148438,-27.607540130615234,-4.0294413566589355,154.11376953125,-18.829345703125,-402.069091796875
6.289999900000001,-9.80904483795166,-20.398597717285156,-3.864241600036621,165.252685546875,-22.0489501953125,-369.049072265625
6.3099999,-7.94635534286499,-12.36605167388916,-3.5410242080688477,132.6141357421875,-2.5482177734375,-347.8240966796875
6.329999900000001,-5.6455278396606445,-4.747702121734619,-2.9759926795959473,98.4954833984375,-6.6986083984375,-320.953369140625
6.3499999,-2.9257144927978516,2.626439332962036,-2.073378562927246,70.1141357421875,-7.0953369140625,-284.3017578125
6.369999900000001,-0.05027823522686958,9.806650161743164,-0.33518823981285095,25.1922607421875,29.3731689453125,-196.1517333984375
6.3899999,2.7222073078155518,16.03875732421875,1.4437036514282227,-33.2183837890625,5.828857421875,-7.75146484375
6.409999900000001,5.035006046295166,21.294029235839844,2.604891538619995,-108.6883544921875,-72.357177734375,156.7230224609375
6.4299999,5.262455463409424,24.85660171508789,0.9552865028381348,-265.3350830078125,19.3023681640625,408.69140625
6.449999900000001,2.2673089504241943,21.08094596862793,-1.5969325304031372,-320.098876953125,37.872314453125,499.9847412109375
6.4699999,-1.9728221893310547,13.584700584411621,-3.77565598487854,-249.9847412109375,-8.544921875,499.9847412109375
6.489999900000001,-6.636727333068848,4.422090530395508,-5.556941986083984,-127.8076171875,-61.614990234375,349.8687744140625
6.5099999,-10.778696060180664,-6.524199485778809,-7.91283655166626,-83.0535888671875,-85.662841796875,320.9381103515625
6.529999900000001,-13.883975982666016,-17.343597412109375,-10.539276123046875,-131.0272216796875,5.7220458984375,314.3768310546875
6.5499999,-15.931017875671387,-26.041732788085938,-12.576741218566895,-94.6807861328125,119.7509765625,82.611083984375
6.569999900000001,-16.8216609954834,-33.0687141418457,-14.334085464477539,46.295166015625,41.68701171875,-105.072021484375
6.5899999000000005,-16.673221588134766,-38.1085090637207,-14.585476875305176,155.45654296875,-38.848876953125,-100.4638671875
6.609999900000001,-15.629348754882812,-38.601715087890625,-13.939042091369629,185.2569580078125,12.7105712890625,-238.5711669921875
6.6299999000000005,-14.104242324829102,-36.23145294189453,-12.99812126159668,189.422607421875,34.393310546875,-394.4244384765625
6.649999900000001,-12.552799224853516,-31.371225357055664,-11.779472351074219,219.7113037109375,2.105712890625,-406.158447265625
6.6699999000000005,-11.027692794799805,-24.459163665771484,-10.271124839782715,265.5029296875,-8.9111328125,-402.862548828125
6.6899999,-9.327810287475586,-15.842432975769043,-8.157045364379883,283.4930419921875,18.157958984375,-439.8193359375
6.709999900000001,-7.489062786102295,-7.51779317855835,-5.566518783569336,253.0517578125,-16.4642333984375,-386.1846923828125
6.7299999,-5.307945251464844,0.15322890877723694,-2.8634653091430664,222.10693359375,-109.375,-281.3720703125
6.749999900000001,-2.674323320388794,6.7277069091796875,-0.8212111592292786,180.9844970703125,-160.6903076171875,-252.655029296875
6.7699999,0.2825157940387726,12.78503704071045,0.3878606855869293,134.552001953125,-95.794677734375,-243.804931640625
6.789999900000001,3.248931646347046,17.66681480407715,-0.06703764945268631,93.170166015625,-54.9774169921875,-77.7740478515625
6.8099999,5.542576789855957,22.380996704101562,-1.0103530883789062,45.3643798828125,-17.333984375,130.584716796875
6.829999900000001,6.301538944244385,25.311500549316406,-1.5969325304031372,-9.918212890625,54.01611328125,279.6173095703125
6.8499999,5.008669853210449,24.71773910522461,-1.941697597503662,-85.052490234375,70.953369140625,415.496826171875
6.869999900000001,1.9608511924743652,20.240581512451172,-1.778891921043396,-168.27392578125,42.1295166015625,450.164794921875
6.8899999,-2.0685901641845703,13.886369705200195,-1.7764976024627686,-222.3968505859375,19.287109375,396.392822265625
6.909999900000001,-6.856993675231934,4.891354084014893,-2.894589900970459,-216.1102294921875,27.34375,462.34130859375
6.9299999,-11.561599731445312,-7.623138427734375,-3.469198226928711,-163.8641357421875,104.00390625,499.9847412109375
6.949999900000001,-15.090653419494629,-18.96925926208496,-4.165910720825195,-131.7596435546875,84.1522216796875,259.3841552734375
6.9699999,-17.061080932617188,-30.791828155517578,-4.869806289672852,-71.7010498046875,-43.8232421875,-10.223388671875
6.989999900000001,-16.77377700805664,-39.583335876464844,-4.69024133682251,48.614501953125,-8.0718994140625,20.4925537109375
7.0099999,-14.61660099029541,-42.33906173706055,-4.881777286529541,76.324462890625,39.9169921875,-108.642578125
7.029999900000001,-11.997344970703125,-41.93683624267578,-4.651933670043945,82.70263671875,16.2811279296875,-219.6197509765625
7.0499999,-9.658209800720215,-38.180335998535156,-3.7014358043670654,106.9488525390625,-19.34814453125,-283.26416015625
7.069999900000001,-7.709329605102539,-31.986534118652344,-2.896984100341797,132.50732421875,-44.3115234375,-327.0721435546875
7.0899999000000005,-6.155492782592773,-24.696189880371094,-2.248155355453491,144.59228515625,-28.564453125,-326.1260986328125
7.109999900000001,-4.757278919219971,-17.0203800201416,-1.7932571172714233,134.307861328125,-10.7421875,-305.8624267578125
7.1299999000000005,-3.3686418533325195,-9.962273597717285,-1.6304513216018677,94.6197509765625,-35.33935546875,-284.5001220703125
7.149999900000001,-2.011129379272461,-4.019864559173584,-1.2761094570159912,50.537109375,-28.839111328125,-260.589599609375
7.1699999000000005,-0.6584054827690125,0.6823474764823914,-0.9289502501487732,35.919189453125,4.57763671875,-231.38427734375
7.1899999,0.6560112833976746,4.307168960571289,-0.2968810200691223,55.84716796875,10.2996826171875,-176.788330078125
7.209999900000001,1.9177556037902832,7.1921820640563965,0.4572925269603729,52.7801513671875,-26.3214111328125,-119.44580078125
7.2299999,3.069366693496704,9.366117477416992,1.292868971824646,0.67138671875,-51.422119140625,-54.3975830078125
7.249999900000001,4.077325344085693,11.140220642089844,1.8555063009262085,-70.80078125,-30.8685302734375,-0.54931640625
7.2699999,4.824316501617432,12.744335174560547,2.078166961669922,-124.4049072265625,-22.125244140625,64.7430419921875
7.289999900000001,5.049371242523193,14.329297065734863,1.9177556037902832,-136.0931396484375,-49.530029296875,166.93115234375
7.3099999,4.3622355461120605,14.82968521118164,1.5179238319396973,-115.8294677734375,-74.371337890625,304.7332763671875
7.329999900000001,2.937685489654541,13.905523300170898,0.5530605912208557,-109.2376708984375,-73.5626220703125,378.4637451171875
7.3499999,0.7876923680305481,11.868058204650879,-0.7876923680305481,-155.517578125,-52.5665283203125,361.5570068359375
7.369999900000001,-2.10210919380188,8.056488990783691,-3.3279404640197754,-180.1605224609375,-44.49462890625,425.201416015625
7.3899999,-6.102819919586182,0.10534487664699554,-5.207388877868652,-167.7703857421875,20.751953125,499.9847412109375
7.409999900000001,-10.091560363769531,-9.739612579345703,-6.445190906524658,-147.003173828125,44.4793701171875,350.3875732421875
7.4299999,-13.532028198242188,-21.09291648864746,-7.647080421447754,-68.8018798828125,-61.7218017578125,64.94140625
7.449999900000001,-15.140931129455566,-31.572338104248047,-7.716512203216553,59.0362548828125,-73.4405517578125,51.1322021484375
7.4699999,-14.247894287109375,-36.50918197631836,-8.525752067565918,74.9969482421875,-29.3121337890625,0.152587890625
7.489999900000001,-11.841721534729004,-37.36391067504883,-9.193734169006348,39.6575927734375,4.119873046875,-53.9093017578125
7.5099999,-9.033323287963867,-34.96492004394531,-9.126696586608887,37.4603271484375,44.61669921875,-102.3712158203125
7.529999900000001,-6.665457725524902,-30.99533462524414,-8.779537200927734,59.5245361328125,38.4979248046875,-166.7633056640625
7.5499999,-5.336675643920898,-26.79351043701172,-7.6997528076171875,101.07421875,55.8013916015625,-217.132568359375
7.569999900000001,-4.8267107009887695,-22.567745208740234,-6.514622688293457,131.5765380859375,79.833984375,-267.27294921875
7.5899999000000005,-4.836287498474121,-18.681955337524414,-5.477933406829834,135.19287109375,59.967041015625,-292.0074462890625
7.609999900000001,-4.924872875213623,-14.654908180236816,-4.175487995147705,130.401611328125,55.3741455078125,-312.1337890625
7.6299999000000005,-4.616020679473877,-10.20648193359375,-3.021482467651367,126.9073486328125,52.55126953125,-317.0166015625
7.649999900000001,-3.7900211811065674,-5.604825973510742,-1.920149803161621,113.2965087890625,47.1038818359375,-268.9361572265625
7.6699999000000005,-2.4803929328918457,-0.8355764150619507,-0.6320692300796509,101.043701171875,49.8504638671875,-214.508056640625
7.6899999,-0.8068459630012512,3.6176388263702393,0.6392518281936646,76.6143798828125,31.8450927734375,-170.47119140625
7.709999900000001,0.9576807022094727,7.692570209503174,2.279279947280884,14.617919921875,12.8173828125,-119.4000244140625
7.7299999,2.765302896499634,11.868058204650879,3.6128504276275635,-70.892333984375,-12.603759765625,-55.145263671875
7.749999900000001,4.311957359313965,15.777789115905762,3.936067581176758,-140.7470703125,-62.1490478515625,72.75390625
7.7699999,5.0685248374938965,18.382680892944336,2.985569477081299,-134.27734375,-54.4281005859375,226.1505126953125
7.789999900000001,4.778826713562012,18.962078094482422,1.2497732639312744,-75.3173828125,-4.2572021484375,324.554443359375
7.8099999,3.2585084438323975,17.60935401916504,-1.0342950820922852,-57.31201171875,3.2958984375,349.0753173828125
7.829999900000001,0.2082955539226532,12.588712692260742,-2.9305028915405273,-123.5198974609375,2.3193359375,423.40087890625
7.8499999,-3.445256233215332,5.3127336502075195,-3.177105665206909,-193.2830810546875,54.290771484375,425.9796142578125
7.869999900000001,-7.280767440795898,-3.8522706031799316,-3.203441858291626,-213.470458984375,8.2550048828125,291.3665771484375
7.8899999,-10.491392135620117,-15.049951553344727,-3.1914708614349365,-91.7205810546875,-90.4083251953125,254.8675537109375
7.909999900000001,-12.435483932495117,-25.658658981323242,-3.734954595565796,1.9378662109375,-58.2275390625,161.224365234375
7.9299999,-12.854469299316406,-34.03118133544922,-5.542576789855957,-27.9693603515625,3.814697265625,-8.85009765625
7.949999900000001,-10.350133895874023,-40.0142936706543,-9.670180320739746,21.17919921875,47.4853515625,-175.323486328125
7.9699999,-8.307879447937012,-36.94013977050781,-10.60391902923584,84.8541259765625,51.6510009765625,-216.278076171875
7.989999900000001,-6.449979305267334,-31.426292419433594,-10.47702693939209,120.7122802734375,47.149658203125,-239.1357421875
8.0099999,-4.98472785949707,-24.612394332885742,-9.299078941345215,127.44140625,54.443359375,-273.0712890625
8.0299999,-3.931279182434082,-17.86553382873535,-7.4770917892456055,129.0740966796875,55.5419921875,-280.364990234375
8.049999900000001,-3.1459810733795166,-11.614272117614746,-5.0876784324646,132.5225830078125,55.96923828125,-261.962890625
8.069999900000001,-2.38462495803833,-6.143521785736084,-2.6575639247894287,126.861572265625,37.261962890625,-241.2109375
8.0899999,-1.5825673341751099,-1.8507179021835327,-0.3998316824436188,114.288330078125,13.4124755859375,-212.493896484375
8.1099999,-0.6320692300796509,1.5155296325683594,1.3215993642807007,90.7745361328125,5.1116943359375,-181.884765625
8.129999900000001,0.45489832758903503,3.976768970489502,2.585737943649292,60.0128173828125,7.50732421875,-145.6146240234375
8.149999900000001,1.6352397203445435,5.889736175537109,3.251325845718384,42.8009033203125,-8.6669921875,-100.15869140625
8.1699999,2.875436305999756,7.668628215789795,3.464409828186035,40.5120849609375,-32.8521728515625,-49.407958984375
8.1899999,4.0533833503723145,9.59596061706543,3.380612850189209,32.4554443359375,-33.5235595703125,14.923095703125
8.2099999,4.9368438720703125,12.081141471862793,3.0526070594787598,19.22607421875,-34.5306396484375,112.2894287109375
8.229999900000001,5.097255229949951,13.986926078796387,2.477998733520508,-30.6549072265625,-43.0755615234375,252.105712890625
8.2499999,4.1395745277404785,14.94460678100586,1.5083470344543457,-172.6837158203125,-46.7529296875,354.4921875
8.2699999,2.3080103397369385,13.309367179870605,0.10534487664699554,-274.2462158203125,-34.210205078125,391.4031982421875
8.2899999,-0.3902548849582672,10.982203483581543,-2.123656988143921,-261.7645263671875,-41.6717529296875,374.114990234375
8.309999900000001,-3.9911341667175293,4.920084476470947,-4.431667327880859,-137.7105712890625,-16.9525146484375,495.574951171875
8.3299999,-7.915230751037598,-3.751713991165161,-6.150704383850098,-91.7205810546875,19.4244384765625,485.53466796875
8.3499999,-11.712434768676758,-13.105859756469727,-6.809109687805176,-145.56884765625,9.674072265625,209.65576171875
8.3699999,-14.709975242614746,-24.48550033569336,-7.565677165985107,-57.2662353515625,-77.0416259765625,89.7674560546875
8.389999900000001,-16.146495819091797,-34.01921081542969,-8.128314971923828,117.7520751953125,-82.977294921875,85.3729248046875
8.4099999,-15.844826698303223,-39.55460739135742,-9.490615844726562,98.663330078125,17.9595947265625,-95.1385498046875
8.4299999,-14.45858383178711,-41.97514343261719,-10.488997459411621,50.10986328125,73.9898681640625,-215.9271240234375
8.4499999,-12.447454452514648,-39.99753189086914,-10.431536674499512,79.8492431640625,70.6939697265625,-257.4462890625
8.469999900000001,-10.218452453613281,-34.51241683959961,-9.435548782348633,113.9068603515625,34.3017578125,-298.1109619140625
8.4899999,-8.188169479370117,-27.119123458862305,-7.400477409362793,141.7694091796875,44.4488525390625,-315.7501220703125
8.5099999,-6.452373504638672,-19.31402587890625,-5.372588634490967,146.820068359375,47.05810546875,-306.2591552734375
8.5299999,-5.020640850067139,-12.083536148071289,-3.2537200450897217,122.772216796875,29.84619140625,-298.2330322265625
8.549999900000001,-3.7397429943084717,-5.896918773651123,-1.4317326545715332,91.5679931640625,18.096923828125,-294.7998046875
8.569999900000001,-2.4660277366638184,-0.7350199222564697,0.011971008032560349,69.15283203125,17.3797607421875,-270.6298828125
8.5899999,-1.1492167711257935,3.3901896476745605,1.1468225717544556,67.8253173828125,20.782470703125,-207.7178955078125
8.6099999,0.2825157940387726,6.777985095977783,1.8962076902389526,58.4564208984375,2.197265625,-145.7977294921875
8.629999900000001,1.7525556087493896,9.6989107131958,2.3965959548950195,38.1317138671875,-16.3421630859375,-92.7581787109375
8.649999900000001,3.0885202884674072,12.267889976501465,2.63362193107605,16.204833984375,-13.519287109375,-9.3994140625
8.6699999,4.046200752258301,14.45858383178711,2.557007312774658,-32.1197509765625,-11.77978515625,108.673095703125
8.6899999,4.302380561828613,16.242263793945312,2.410961151123047,-91.094970703125,-27.0538330078125,214.874267578125
8.709999900000001,3.552995204925537,15.873557090759277,1.455674648284912,-145.0042724609375,-66.4825439453125,308.0596923828125
8.729999900000001,2.0661959648132324,14.142549514770508,0.5410895943641663,-168.6248779296875,-48.614501953125,328.9031982421875
8.7499999,-0.06224924325942993,10.951078414916992,-1.3287819623947144,-173.126220703125,-44.158935546875,327.6214599609375
8.7699999,-2.82515811920166,4.565742492675781,-3.3925838470458984,-141.3726806640625,-57.31201171875,403.3050537109375
8.7899999,-5.547365188598633,-2.7964274883270264,-4.953603267669678,-51.2542724609375,-15.1824951171875,325.37841796875
8.809999900000001,-8.066065788269043,-11.552022933959961,-6.514622688293457,26.3824462890625,-44.952392578125,178.4820556640625
8.8299999,-9.888052940368652,-21.483171463012695,-7.6566572189331055,119.537353515625,-35.3240966796875,166.595458984375
8.8499999,-10.60391902923584,-29.6569766998291,-7.934384346008301,124.481201171875,46.0662841796875,82.4737548828125
8.8699999,-10.441113471984863,-36.355953216552734,-7.299921035766602,66.9403076171875,98.5870361328125,-56.70166015625
8.889999900000001,-9.62947940826416,-40.35187530517578,-5.640739440917969,42.2210693359375,69.488525390625,-157.5775146484375
8.9099999,-8.42040729522705,-40.76128387451172,-3.2345664501190186,73.3489990234375,35.308837890625,-236.328125
8.9299999,-7.026981830596924,-37.69670486450195,-0.8451532125473022,93.32275390625,32.1807861328125,-269.775390625
8.9499999,-5.655104637145996,-31.809364318847656,0.8547300100326538,82.9010009765625,19.83642578125,-284.3017578125
8.969999900000001,-4.400542736053467,-24.229320526123047,1.6496049165725708,69.488525390625,-3.8299560546875,-296.539306640625
8.9899999,-3.3423056602478027,-16.421829223632812,1.7741034030914307,65.1702880859375,-8.0718994140625,-286.6363525390625
9.0099999,-2.4205379486083984,-9.186552047729492,1.3479355573654175,75.3631591796875,1.739501953125,-259.4451904296875
9.0299999,-1.5442601442337036,-3.050212860107422,0.6919242739677429,79.16259765625,-1.312255859375,-231.6741943359375
9.049999900000001,-0.6703764796257019,1.764526605606079,0.15322890877723694,69.976806640625,-5.92041015625,-195.465087890625
9.069999900000001,0.2585737705230713,5.355829238891602,-0.15801730751991272,51.3153076171875,-2.197265625,-146.514892578125
9.0899999,1.2521674633026123,8.188169479370117,-0.12210428714752197,33.660888671875,7.62939453125,-98.9227294921875
9.1099999,2.1978771686553955,10.398017883300781,0.19632454216480255,13.6871337890625,6.805419921875,-37.353515625
9.129999900000001,2.937685489654541,12.112266540527344,0.8427590131759644,-23.01025390625,-3.1280517578125,40.0238037109375
9.149999900000001,3.308786630630493,13.33809757232666,1.7334020137786865,-64.1326904296875,-18.2647705078125,108.7799072265625
9.1699999,3.2345664501190186,13.874399185180664,2.382230758666992,-105.8197021484375,-50.079345703125,179.5806884765625
9.1899999,2.669534921646118,13.814543724060059,2.470816135406494,-131.4849853515625,-75.714111328125,253.021240234375
9.209999900000001,1.1563993692398071,10.759542465209961,1.7190368175506592,-175.9796142578125,-74.249267578125,340.14892578125
9.229999900000001,-0.828393816947937,4.663905143737793,0.9313444495201111,-162.1246337890625,-44.7540283203125,313.201904296875
9.2499999,-2.7988216876983643,-3.2417490482330322,-0.47884035110473633,-74.981689453125,-94.3756103515625,155.94482421875
9.2699999,-4.314351558685303,-13.862427711486816,-2.075772762298584,2.50244140625,-118.8507080078125,153.564453125
9.2899999,-4.63517427444458,-22.637176513671875,-3.248931646347046,-32.40966796875,-43.701171875,99.2431640625
9.309999900000001,-3.7397429943084717,-28.756755828857422,-5.288791656494141,-76.019287109375,-42.999267578125,-22.8271484375
9.3299999,-2.0829553604125977,-31.4215030670166,-6.715735912322998,-3.8299560546875,-43.0145263671875,-44.25048828125
9.3499999,-0.004788403399288654,-29.757532119750977,-7.390900611877441,73.6846923828125,1.953125,-43.0450439453125
9.3699999,2.0231003761291504,-24.90209197998047,-7.29034423828125,85.5712890625,12.4969482421875,-35.5682373046875
9.389999900000001,3.4763808250427246,-18.612524032592773,-6.057330131530762,49.3316650390625,8.11767578125,-21.17919921875
9.4099999,4.153939723968506,-12.569559097290039,-4.230554580688477,8.7738037109375,10.833740234375,-10.162353515625
9.4299999,4.091690540313721,-8.056488990783691,-2.513911724090576,-7.5225830078125,12.87841796875,-2.105712890625
9.4499999,3.514688014984131,-5.456385612487793,-1.213860273361206,-1.9683837890625,17.9595947265625,3.143310546875
9.469999900000001,2.7102363109588623,-4.60165548324585,-0.42856210470199585,6.7138671875,20.6451416015625,9.2620849609375
9.4899999,1.1803414821624756,-6.232107162475586,0.31364041566848755,-6.927490234375,14.6484375,14.5263671875
9.5099999,0.6799532771110535,-7.692570209503174,0.5315127968788147,-16.1285400390625,5.5999755859375,6.378173828125
9.5299999,0.44532153010368347,-9.040505409240723,0.5410895943641663,-13.8702392578125,-6.7596435546875,2.3651123046875
9.549999900000001,0.4572925269603729,-10.055646896362305,0.3734954595565796,-8.209228515625,-6.6375732421875,1.0986328125
9.569999900000001,0.6871358752250671,-10.615890502929688,-0.07422025501728058,-7.75146484375,-3.96728515625,-2.6397705078125
9.5899999,1.0342950820922852,-10.797849655151367,-0.6512228846549988,-10.4522705078125,-3.0364990234375,-5.37109375
9.6099999,1.3934253454208374,-10.675745010375977,-1.194706678390503,-11.8865966796875,-0.152587890625,-3.35693359375
9.629999900000001,1.6879122257232666,-10.436325073242188,-1.5705963373184204,-6.1798095703125,2.3345947265625,2.2125244140625
9.649999900000001,1.8555063009262085,-10.247182846069336,-1.7477672100067139,-1.495361328125,1.6021728515625,5.2642822265625
9.6699999,1.8842366933822632,-10.144232749938965,-1.6424223184585571,-2.6397705078125,3.997802734375,-0.9918212890625
9.6899999,1.8171991109848022,-10.093954086303711,-1.4221558570861816,-2.166748046875,1.2359619140625,-6.561279296875
9.709999900000001,1.7070658206939697,-10.036493301391602,-1.1468225717544556,-0.8544921875,-0.701904296875,-3.936767578125
9.729999900000001,1.6328455209732056,-9.816226959228516,-0.950498104095459,-0.4119873046875,-1.0986328125,-1.9989013671875
9.7499999,1.6041151285171509,-9.57201862335205,-0.9265560507774353,-0.7476806640625,-1.708984375,0.946044921875
9.7699999,1.580173134803772,-9.44991397857666,-0.8954314589500427,0.2593994140625,2.0294189453125,2.9754638671875
9.7899999,1.5753847360610962,-9.375694274902344,-0.9193734526634216,-0.79345703125,-1.1444091796875,-2.1820068359375
9.809999900000001,1.5753847360610962,-9.459490776062012,-0.9217676520347595,-7.415771484375,-6.0577392578125,-5.157470703125
9.8299999,1.623268723487854,-9.461885452270508,-1.015141487121582,-9.063720703125,-6.28662109375,-3.47900390625
9.8499999,1.6950948238372803,-9.457097053527832,-1.213860273361206,-3.265380859375,-0.7781982421875,3.2196044921875
9.8699999,1.7477672100067139,-9.509769439697266,-1.455674648284912,0.3662109375,4.1656494140625,6.0577392578125
9.889999900000001,1.7693150043487549,-9.576807022094727,-1.647210717201233,-1.434326171875,3.5400390625,-0.9918212890625
9.9099999,1.742978811264038,-9.6989107131958,-1.699883222579956,-3.5247802734375,1.6021728515625,-4.5318603515625
9.9299999,1.7190368175506592,-9.737217903137207,-1.6160861253738403,-0.091552734375,1.953125,-0.54931640625
9.9499999,1.7190368175506592,-9.670180320739746,-1.4389152526855469,3.8604736328125,1.15966796875,4.1656494140625
9.969999900000001,1.7142484188079834,-9.591172218322754,-1.213860273361206,0.4425048828125,-0.9307861328125,5.31005859375
9.9899999,1.6759412288665771,-9.622296333312988,-1.0295066833496094,-5.7373046875,-2.655029296875,1.9683837890625
10.0099999,1.6400281190872192,-9.660603523254395,-0.9624691009521484,-6.744384765625,-1.617431640625,-4.8065185546875
10.0299999,1.6184803247451782,-9.703699111938477,-1.0534487962722778,-3.5400390625,0.457763671875,-4.7607421875
10.049999900000001,1.6328455209732056,-9.641449928283691,-1.194706678390503,0.67138671875,3.60107421875,1.8463134765625
10.069999900000001,1.678335428237915,-9.495404243469238,-1.3479355573654175,2.7313232421875,2.6397705078125,6.6070556640625
10.0899999,1.7046716213226318,-9.363722801208496,-1.3934253454208374,-0.2288818359375,0.946044921875,7.9803466796875
10.1099999,1.6855180263519287,-9.375694274902344,-1.359906554222107,-1.800537109375,0.9002685546875,6.9580078125
10.129999900000001,1.656787633895874,-9.363722801208496,-1.2689268589019775,-1.1138916015625,-0.0457763671875,2.532958984375
10.149999900000001,1.6208745241165161,-9.440337181091309,-1.1851298809051514,-0.2288818359375,-1.8463134765625,6.3018798828125
10.1699999,1.6112977266311646,-9.41639518737793,-1.1300631761550903,-2.4871826171875,-2.777099609375,11.5509033203125
10.1899999,1.6041151285171509,-9.404424667358398,-1.1420341730117798,-4.8065185546875,-2.5787353515625,14.190673828125
10.209999900000001,1.5753847360610962,-9.481039047241211,-1.2066776752471924,-6.40869140625,-1.7547607421875,14.34326171875
10.229999900000001,1.5418659448623657,-9.41639518737793,-1.194706678390503,-6.04248046875,1.9378662109375,7.2021484375
10.2499999,1.4724340438842773,-9.3828763961792,-1.1300631761550903,-6.8206787109375,-2.960205078125,15.2740478515625
10.2699999,1.4053963422775269,-9.255983352661133,-1.0654197931289673,-16.845703125,-11.65771484375,25.7415771484375
10.2899999,1.3096283674240112,-9.272743225097656,-1.05105459690094,-25.634765625,-11.2152099609375,25.6805419921875
10.309999900000001,1.2210428714752197,-9.342175483703613,-1.173158884048462,-23.4222412109375,-6.6070556640625,16.54052734375
10.3299999,1.1563993692398071,-9.442731857299805,-1.3838485479354858,-15.7012939453125,-4.1961669921875,13.6260986328125
10.3499999,1.1109095811843872,-9.514557838439941,-1.5873557329177856,-12.969970703125,-4.1046142578125,23.651123046875
10.3699999,1.0462661981582642,-9.576807022094727,-1.702277421951294,-16.845703125,-0.457763671875,26.9775390625
10.389999900000001,0.9696516990661621,-9.653421401977539,-1.7812861204147339,-19.287109375,-1.007080078125,18.157958984375
10.4099999,0.8571242094039917,-9.837775230407715,-1.8507179021835327,-17.4407958984375,-2.2430419921875,11.65771484375
10.4299999,0.7445967197418213,-9.976638793945312,-1.900996208190918,-11.5966796875,-0.1983642578125,13.153076171875
10.4499999,0.667982280254364,-10.06043529510498,-1.9728221893310547,-9.0484619140625,-0.579833984375,13.671875
10.469999900000001,0.608127236366272,-10.091560363769531,-2.0231003761291504,-12.0391845703125,-1.2359619140625,10.1318359375
10.4899999,0.5722141861915588,-10.072406768798828,-2.0398597717285156,-12.8631591796875,-0.91552734375,5.5694580078125
10.5099999,0.5770025849342346,-9.959878921508789,-2.097320795059204,-7.9498291015625,-3.11279296875,4.364013671875
10.5299999,0.5985504388809204,-9.794678688049316,-2.1475989818573,-1.4190673828125,-3.3416748046875,10.162353515625
10.549999900000001,0.629675030708313,-9.63187313079834,-2.209848165512085,-1.0223388671875,-1.373291015625,13.641357421875
10.569999900000001,0.6536170840263367,-9.50498104095459,-2.2649147510528564,-4.852294921875,-0.9613037109375,11.0626220703125
10.5899999,0.6344634294509888,-9.50737476348877,-2.2840683460235596,-5.7220458984375,0.79345703125,9.58251953125
10.6099999,0.5961562395095825,-9.490615844726562,-2.2409727573394775,-2.3193359375,2.0904541015625,7.9193115234375
10.629999900000001,0.5219359993934631,-9.586383819580078,-2.2026655673980713,-1.5716552734375,-0.2593994140625,8.9874267578125
10.649999900000001,0.43095630407333374,-9.674968719482422,-2.126051187515259,-5.401611328125,-0.0457763671875,8.30078125
10.6699999,0.3447650372982025,-9.84495735168457,-2.126051187515259,-7.537841796875,-0.2899169921875,4.4403076171875
10.6899999,0.2825157940387726,-9.986215591430664,-2.169146776199341,-4.608154296875,0.732421875,1.9989013671875
10.709999900000001,0.2561795711517334,-10.034099578857422,-2.190694570541382,-0.0762939453125,3.021240234375,2.166748046875
10.729999900000001,0.2537853717803955,-10.038887977600098,-2.209848165512085,1.28173828125,0.579833984375,3.6468505859375
10.7499999,0.2777273952960968,-9.90241813659668,-2.164358377456665,-1.861572265625,-1.4801025390625,0.42724609375
10.7699999,0.2944868206977844,-9.785101890563965,-2.1164743900299072,-3.5552978515625,-0.701904296875,-0.18310546875
10.7899999,0.3232172429561615,-9.653421401977539,-2.1332337856292725,-2.288818359375,-0.335693359375,1.6632080078125
10.809999900000001,0.3423708379268646,-9.548076629638672,-2.1715409755706787,-2.410888671875,1.64794921875,1.89208984375
10.8299999,0.3447650372982025,-9.50498104095459,-2.2002713680267334,-0.91552734375,2.9754638671875,1.495361328125
10.8499999,0.33758243918418884,-9.548076629638672,-2.2218191623687744,-0.18310546875,0.579833984375,1.03759765625
10.8699999,0.3256114423274994,-9.5624418258667,-2.1787235736846924,-1.373291015625,-0.152587890625,-1.2054443359375
10.889999900000001,0.31842881441116333,-9.648633003234863,-2.1787235736846924,-0.4730224609375,-0.6103515625,1.4190673828125
10.9099999,0.3208230137825012,-9.68933391571045,-2.1787235736846924,-0.7476806640625,0.5035400390625,2.471923828125
10.9299999,0.3256114423274994,-9.72285270690918,-2.2146365642547607,-1.5716552734375,2.1820068359375,-0.885009765625
10.9499999,0.3232172429561615,-9.751583099365234,-2.233790159225464,0.1678466796875,1.556396484375,-1.7547607421875
10.969999900000001,0.3256114423274994,-9.730035781860352,-2.2409727573394775,1.495361328125,0.6103515625,-1.9378662109375
10.9899999,0.3280056416988373,-9.696516990661621,-2.248155355453491,0.8087158203125,0.5035400390625,-0.5950927734375
11.0099999,0.3519476354122162,-9.591172218322754,-2.27209734916687,-0.823974609375,3.326416015625,-0.91552734375
11.0299999,0.35434186458587646,-9.57201862335205,-2.250549554824829,0.2288818359375,3.387451171875,-0.5645751953125
11.049999900000001,0.3519476354122162,-9.57441234588623,-2.207453966140747,1.89208984375,1.953125,-1.007080078125
11.069999900000001,0.3447650372982025,-9.57441234588623,-2.1595699787139893,1.3580322265625,0.091552734375,-2.01416015625
11.0899999,0.3256114423274994,-9.624691009521484,-2.1308395862579346,1.190185546875,1.312255859375,-0.2899169921875
11.1099999,0.2992752194404602,-9.66299819946289,-2.0925323963165283,-2.166748046875,4.180908203125,-1.6937255859375
11.129999900000001,0.2753331959247589,-9.703699111938477,-2.0829553604125977,-4.7607421875,2.3651123046875,-4.7454833984375
11.149999900000001,0.2801215946674347,-9.6989107131958,-2.0853497982025146,-2.8228759765625,-1.46484375,-4.6234130859375
11.1699999,0.31124621629714966,-9.651026725769043,-2.1045033931732178,-0.5340576171875,-0.7171630859375,-2.1514892578125
11.1899999,0.3711012601852417,-9.569623947143555,-2.1475989818573,1.129150390625,1.2664794921875,0.18310546875
11.209999900000001,0.42616790533065796,-9.512163162231445,-2.1715409755706787,1.0833740234375,0.5950927734375,-0.457763671875
11.229999900000001,0.4572925269603729,-9.481039047241211,-2.1715409755706787,0.274658203125,-0.823974609375,-1.6632080078125
11.2499999,0.4620809257030487,-9.50737476348877,-2.1523873805999756,-0.42724609375,-0.8392333984375,-0.885009765625
11.2699999,0.4596867263317108,-9.521739959716797,-2.1571757793426514,-1.251220703125,-0.3509521484375,-0.7171630859375
11.2899999,0.44771572947502136,-9.581595420837402,-2.1930887699127197,-0.030517578125,-0.396728515625,0
11.309999900000001,0.4429273009300232,-9.619902610778809,-2.231395959854126,0.640869140625,0.1983642578125,-0.7171630859375
11.3299999,0.4357447028160095,-9.660603523254395,-2.274491548538208,-0.2899169921875,0.7171630859375,-1.678466796875
11.3499999,0.43335050344467163,-9.655815124511719,-2.2816741466522217,-0.7171630859375,1.1444091796875,-1.617431640625
11.3699999,0.42856210470199585,-9.643844604492188,-2.2697031497955322,0.0457763671875,0.6866455078125,-0.3662109375
11.389999900000001,0.42377370595932007,-9.603142738342285,-2.2385785579681396,0.2593994140625,0.274658203125,-0.7171630859375
11.4099999,0.4141969084739685,-9.593565940856934,-2.207453966140747,0.4119873046875,0.274658203125,-1.0833740234375
11.4299999,0.40701428055763245,-9.600749015808105,-2.1930887699127197,0.42724609375,0,-1.3580322265625
11.4499999,0.4118026793003082,-9.588777542114258,-2.188300371170044,-0.3814697265625,0.5645751953125,-2.1820068359375
11.469999900000001,0.4213795065879822,-9.622296333312988,-2.1930887699127197,0.701904296875,0.9002685546875,-0.335693359375
11.4899999,0.4357447028160095,-9.600749015808105,-2.1811177730560303,-0.0152587890625,1.220703125,-1.2054443359375
11.5099999,0.44532153010368347,-9.607931137084961,-2.1763293743133545,-0.946044921875,0.335693359375,-1.4190673828125
11.5299999,0.44771572947502136,-9.59835433959961,-2.169146776199341,-0.7781982421875,0.244140625,-1.1138916015625
11.549999900000001,0.45010992884635925,-9.593565940856934,-2.1811177730560303,-0.6256103515625,0.48828125,-1.373291015625
11.569999900000001,0.45489832758903503,-9.581595420837402,-2.212242364883423,-0.0152587890625,0.9002685546875,-1.068115234375
11.5899999,0.4692635238170624,-9.564835548400879,-2.2361843585968018,0.396728515625,1.77001953125,-0.244140625
11.6099999,0.4812345504760742,-9.536105155944824,-2.22660756111145,0.6256103515625,1.7547607421875,0.885009765625
11.629999900000001,0.4812345504760742,-9.524134635925293,-2.205059766769409,0.6256103515625,0.8392333984375,1.007080078125
11.649999900000001,0.4644751250743866,-9.552865028381348,-2.161964178085327,-0.6561279296875,0.335693359375,0.4425048828125
11.6699999,0.44771572947502136,-9.57441234588623,-2.145204782485962,-1.6937255859375,0.4425048828125,-1.64794921875
11.6899999,0.43095630407333374,-9.646238327026367,-2.161964178085327,0.274658203125,0.5340576171875,-0.6256103515625
11.709999900000001,0.43095630407333374,-9.655815124511719,-2.169146776199341,0.5645751953125,1.9073486328125,-0.42724609375
11.729999900000001,0.4429273009300232,-9.658209800720215,-2.190694570541382,-0.7171630859375,1.1444091796875,-0.5645751953125
11.7499999,0.45489832758903503,-9.634267807006836,-2.1739351749420166,-0.6561279296875,0.9002685546875,0.030517578125
11.7699999,0.4596867263317108,-9.610325813293457,-2.1571757793426514,-0.42724609375,0.3662109375,-0.6561279296875
11.7899999,0.4620809257030487,-9.57201862335205,-2.142810583114624,-0.5340576171875,-0.3662109375,-1.6021728515625
11.809999900000001,0.4668693244457245,-9.560047149658203,-2.1715409755706787,-0.579833984375,-0.5950927734375,-0.091552734375
11.8299999,0.47165772318840027,-9.557653427124023,-2.2026655673980713,-0.3662109375,1.4495849609375,0.946044921875
11.8499999,0.4812345504760742,-9.567230224609375,-2.248155355453491,-0.5645751953125,1.983642578125,-0.18310546875
11.8699999,0.47884035110473633,-9.59596061706543,-2.2625205516815186,0.9307861328125,1.861572265625,-0.396728515625
11.889999900000001,0.47165772318840027,-9.617507934570312,-2.2361843585968018,0.9307861328125,1.15966796875,-0.7171630859375
11.9099999,0.4596867263317108,-9.622296333312988,-2.190694570541382,-0.06103515625,0.244140625,-1.2969970703125
11.9299999,0.44771572947502136,-9.634267807006836,-2.164358377456665,-1.15966796875,0,-0.518798828125
11.9499999,0.44532153010368347,-9.627084732055664,-2.161964178085327,-1.434326171875,0.7171630859375,-0.9002685546875
11.969999900000001,0.45489832758903503,-9.627084732055664,-2.188300371170044,-0.1678466796875,1.0986328125,-0.823974609375
11.9899999,0.4692635238170624,-9.617507934570312,-2.212242364883423,0.6256103515625,1.52587890625,-0.5950927734375
12.0099999,0.4812345504760742,-9.607931137084961,-2.2218191623687744,0.0152587890625,0.7781982421875,-1.007080078125
12.0299999,0.49320554733276367,-9.591172218322754,-2.2194249629974365,-0.4119873046875,0.5035400390625,-1.28173828125
12.049999900000001,0.5003881454467773,-9.579200744628906,-2.207453966140747,-0.579833984375,1.2054443359375,-0.8697509765625
12.069999900000001,0.5051765441894531,-9.57441234588623,-2.205059766769409,-0.5340576171875,1.8463134765625,-0.2593994140625
12.0899999,0.5027823448181152,-9.567230224609375,-2.183511972427368,0.0762939453125,1.89208984375,-0.2899169921875
12.1099999,0.4884171485900879,-9.586383819580078,-2.1547815799713135,0.1373291015625,0.823974609375,-0.2288818359375
12.129999900000001,0.47884035110473633,-9.600749015808105,-2.1284453868865967,0.1068115234375,-0.30517578125,-1.1749267578125
12.149999900000001,0.4812345504760742,-9.605537414550781,-2.1332337856292725,-1.2054443359375,-0.1373291015625,-1.5411376953125
12.1699999,0.4908113479614258,-9.607931137084961,-2.1523873805999756,-1.861572265625,1.40380859375,-0.152587890625
12.1899999,0.5051765441894531,-9.605537414550781,-2.1978771686553955,-0.6866455078125,1.3885498046875,0.1983642578125
12.209999900000001,0.5147533416748047,-9.603142738342285,-2.2385785579681396,-0.5645751953125,1.0986328125,-1.2359619140625
12.229999900000001,0.5195417404174805,-9.605537414550781,-2.250549554824829,-0.244140625,1.739501953125,-1.5106201171875
12.2499999,0.5267243981361389,-9.593565940856934,-2.2625205516815186,0.0762939453125,1.46484375,-0.7781982421875
12.2699999,0.5291185975074768,-9.593565940856934,-2.2361843585968018,0.06103515625,2.1820068359375,0.3204345703125
12.289999900000002,0.5267243981361389,-9.588777542114258,-2.209848165512085,0.640869140625,1.7242431640625,0.1068115234375
12.309999900000001,0.5099649429321289,-9.617507934570312,-2.169146776199341,0.7171630859375,0.701904296875,-0.3662109375
12.3299999,0.49320554733276367,-9.639056205749512,-2.145204782485962,-0.030517578125,0.213623046875,-1.46484375
12.3499999,0.48602294921875,-9.634267807006836,-2.140416383743286,-0.6256103515625,0.4425048828125,-2.74658203125
12.3699999,0.49559974670410156,-9.615114212036133,-2.1763293743133545,-1.373291015625,0.732421875,-1.312255859375
12.389999900000001,0.5171475410461426,-9.586383819580078,-2.212242364883423,-0.9307861328125,1.64794921875,-0.457763671875
12.4099999,0.5363011956214905,-9.569623947143555,-2.2218191623687744,0.335693359375,1.739501953125,-0.7476806640625
12.4299999,0.5554547905921936,-9.57201862335205,-2.229001760482788,0.2899169921875,-0.0762939453125,-1.7547607421875
12.4499999,0.5746083855628967,-9.550470352172852,-2.209848165512085,-1.0986328125,-0.030517578125,-2.044677734375
12.469999900000001,0.586579442024231,-9.531316757202148,-2.2002713680267334,-1.1749267578125,1.190185546875,0.18310546875
12.4899999,0.5937620401382446,-9.485827445983887,-2.188300371170044,-1.6021728515625,1.953125,0.9002685546875
12.5099999,0.5817909836769104,-9.48343276977539,-2.1739351749420166,-1.434326171875,0.7781982421875,1.1749267578125
12.5299999,0.545877993106842,-9.53849983215332,-2.164358377456665,-2.44140625,-0.9002685546875,-0.0152587890625
12.549999900000001,0.5386953949928284,-9.586383819580078,-2.205059766769409,-1.9989013671875,0.48828125,0.48828125
12.569999900000001,0.5339069962501526,-9.636661529541016,-2.2457611560821533,-1.15966796875,1.89208984375,0.54931640625
12.5899999,0.5219359993934631,-9.691728591918945,-2.276885747909546,0.1068115234375,1.3427734375,-0.9613037109375
12.6099999,0.5123591423034668,-9.72285270690918,-2.2816741466522217,0.48828125,0.2899169921875,-2.44140625
12.629999900000001,0.5099649429321289,-9.718064308166504,-2.2673089504241943,0.7781982421875,0.4730224609375,-2.3040771484375
12.649999900000001,0.5171475410461426,-9.679757118225098,-2.2385785579681396,0.67138671875,1.068115234375,-0.4425048828125
12.6699999,0.5291185975074768,-9.63187313079834,-2.22660756111145,-0.1220703125,0.06103515625,-0.1678466796875
12.6899999,0.5410895943641663,-9.59596061706543,-2.2170307636260986,-0.6866455078125,-0.0152587890625,-1.77001953125
12.709999900000001,0.5530605912208557,-9.579200744628906,-2.2146365642547607,0.0152587890625,0.518798828125,-2.716064453125
12.729999900000001,0.569819986820221,-9.57201862335205,-2.248155355453491,0.335693359375,0.18310546875,-1.5869140625
12.7499999,0.5841852426528931,-9.543288230895996,-2.2409727573394775,0.732421875,1.861572265625,-1.007080078125
12.7699999,0.5985504388809204,-9.531316757202148,-2.255337953567505,0.6866455078125,1.007080078125,-0.213623046875
12.789999900000002,0.5985504388809204,-9.519346237182617,-2.229001760482788,-0.396728515625,1.03759765625,-0.3204345703125
12.809999900000001,0.5937620401382446,-9.531316757202148,-2.2170307636260986,-1.0528564453125,1.03759765625,-0.7476806640625
12.8299999,0.5913678407669067,-9.543288230895996,-2.212242364883423,-0.8087158203125,0.5950927734375,-0.946044921875
12.8499999,0.5913678407669067,-9.557653427124023,-2.209848165512085,0.1678466796875,1.373291015625,-0.2899169921875
12.8699999,0.5913678407669067,-9.579200744628906,-2.207453966140747,0.762939453125,1.373291015625,0.1220703125
12.889999900000001,0.5937620401382446,-9.586383819580078,-2.1954829692840576,0.3509521484375,0.732421875,-0.4425048828125
12.9099999,0.5961562395095825,-9.579200744628906,-2.1978771686553955,0,-0.18310546875,-1.068115234375
12.9299999,0.5913678407669067,-9.581595420837402,-2.1930887699127197,-1.1138916015625,1.0833740234375,0.152587890625
12.9499999,0.5913678407669067,-9.560047149658203,-2.212242364883423,-2.105712890625,1.5716552734375,-0.152587890625
12.969999900000001,0.5913678407669067,-9.567230224609375,-2.22660756111145,-1.2054443359375,0.54931640625,-0.7476806640625
12.9899999,0.5913678407669067,-9.579200744628906,-2.2385785579681396,0.2899169921875,0.3204345703125,-0.30517578125
13.0099999,0.6033388376235962,-9.59596061706543,-2.255337953567505,-0.5340576171875,0.640869140625,-0.701904296875
13.0299999,0.6129156351089478,-9.607931137084961,-2.2577321529388428,-1.0528564453125,1.5411376953125,-0.6103515625
13.049999900000001,0.6248866319656372,-9.593565940856934,-2.2625205516815186,0.0762939453125,1.5716552734375,-0.42724609375
13.069999900000001,0.6272808313369751,-9.579200744628906,-2.255337953567505,-0.0152587890625,1.220703125,0.091552734375
13.0899999,0.6200982332229614,-9.564835548400879,-2.229001760482788,-0.213623046875,1.739501953125,0.2593994140625
13.1099999,0.6129156351089478,-9.552865028381348,-2.2170307636260986,-0.701904296875,0.8544921875,-0.732421875
13.129999900000001,0.6033388376235962,-9.569623947143555,-2.2026655673980713,-0.091552734375,0.732421875,-0.1678466796875
13.149999900000001,0.5961562395095825,-9.581595420837402,-2.2002713680267334,-0.457763671875,0.9765625,-0.3204345703125
13.1699999,0.5937620401382446,-9.600749015808105,-2.2170307636260986,-0.396728515625,0.91552734375,-0.4425048828125
13.1899999,0.5961562395095825,-9.605537414550781,-2.233790159225464,0.1678466796875,1.007080078125,-0.946044921875
13.209999900000001,0.6033388376235962,-9.600749015808105,-2.2409727573394775,0.2593994140625,1.129150390625,-1.0833740234375
13.229999900000001,0.6129156351089478,-9.569623947143555,-2.2409727573394775,-0.5340576171875,0.91552734375,-0.7171630859375
13.2499999,0.629675030708313,-9.548076629638672,-2.233790159225464,-1.0528564453125,0.9002685546875,0.3662109375
13.2699999,0.6416460275650024,-9.531316757202148,-2.231395959854126,-1.03759765625,1.52587890625,0.5340576171875
13.289999900000002,0.6488286852836609,-9.533711433410645,-2.2385785579681396,-0.5035400390625,1.9989013671875,-0.0152587890625
13.309999900000001,0.6440402865409851,-9.567230224609375,-2.2457611560821533,0.3204345703125,1.2054443359375,-0.0457763671875
13.3299999,0.6392518281936646,-9.588777542114258,-2.2577321529388428,-0.0152587890625,0.3814697265625,-0.8544921875
13.3499999,0.629675030708313,-9.607931137084961,-2.250549554824829,0.335693359375,1.28173828125,-0.5950927734375
13.3699999,0.6248866319656372,-9.610325813293457,-2.250549554824829,0.701904296875,1.6021728515625,0.274658203125
13.389999900000001,0.6153098344802856,-9.622296333312988,-2.233790159225464,0.48828125,1.5106201171875,0.48828125
13.4099999,0.6105214357376099,-9.615114212036133,-2.22660756111145,-0.213623046875,0.732421875,-1.7547607421875
13.4299999,0.6105214357376099,-9.615114212036133,-2.2194249629974365,0.2288818359375,0.732421875,-2.0751953125
13.4499999,0.6177040338516235,-9.59835433959961,-2.2170307636260986,0.823974609375,1.2359619140625,-0.274658203125
13.469999900000001,0.629675030708313,-9.579200744628906,-2.229001760482788,0.5340576171875,1.068115234375,0.244140625
13.4899999,0.6392518281936646,-9.564835548400879,-2.2194249629974365,-0.8087158203125,1.220703125,-0.2899169921875
13.5099999,0.6416460275650024,-9.57201862335205,-2.2218191623687744,-1.1138916015625,0.8544921875,-0.91552734375
13.5299999,0.6416460275650024,-9.579200744628906,-2.2218191623687744,0.18310546875,0.6866455078125,-1.2664794921875
13.549999900000001,0.646434485912323,-9.581595420837402,-2.2194249629974365,1.52587890625,0.640869140625,-0.6866455078125
13.569999900000001,0.6536170840263367,-9.57441234588623,-2.2242133617401123,1.373291015625,0.7781982421875,0.1983642578125
13.5899999,0.6536170840263367,-9.576807022094727,-2.2194249629974365,-0.06103515625,1.1444091796875,0.42724609375
13.6099999,0.6512228846549988,-9.579200744628906,-2.2146365642547607,-1.4190673828125,1.1749267578125,-0.8392333984375
13.629999900000001,0.6416460275650024,-9.603142738342285,-2.209848165512085,-0.640869140625,1.007080078125,-1.9073486328125
13.649999900000001,0.6368576288223267,-9.607931137084961,-2.209848165512085,0.18310546875,0.4730224609375,-1.495361328125
13.6699999,0.6416460275650024,-9.605537414550781,-2.2146365642547607,0.91552734375,0.9307861328125,-0.5645751953125
13.6899999,0.6560112833976746,-9.57201862335205,-2.2170307636260986,0.7171630859375,1.0528564453125,0.152587890625
13.709999900000001,0.667982280254364,-9.536105155944824,-2.2146365642547607,-0.244140625,1.2664794921875,0.2288818359375
13.729999900000001,0.6751648783683777,-9.497797966003418,-2.183511972427368,-0.6256103515625,1.434326171875,0.0762939453125
13.7499999,0.6823474764823914,-9.469067573547363,-2.1787235736846924,-1.495361328125,-0.030517578125,-0.0762939453125
13.7699999,0.6775590777397156,-9.466673851013184,-2.1571757793426514,-1.251220703125,0.6866455078125,0.9613037109375
13.789999900000002,0.6655880808830261,-9.502586364746094,-2.164358377456665,-1.4495849609375,1.3275146484375,1.40380859375
13.809999900000001,0.646434485912323,-9.564835548400879,-2.1739351749420166,-1.068115234375,0.42724609375,-0.030517578125
13.8299999,0.6248866319656372,-9.651026725769043,-2.1930887699127197,-0.0152587890625,-0.6256103515625,-0.5950927734375
13.8499999,0.6153098344802856,-9.694122314453125,-2.2194249629974365,-0.274658203125,-0.18310546875,-1.03759765625
13.8699999,0.629675030708313,-9.703699111938477,-2.27209734916687,0.518798828125,-0.0762939453125,-0.5950927734375
13.889999900000001,0.6631938815116882,-9.641449928283691,-2.319981336593628,0.091552734375,1.007080078125,-0.0152587890625
13.9099999,0.6847416758537292,-9.591172218322754,-2.33913516998291,0,2.44140625,1.068115234375
13.9299999,0.6919242739677429,-9.545681953430176,-2.3319525718688965,0.0457763671875,1.3885498046875,0.4119873046875
13.9499999,0.6799532771110535,-9.543288230895996,-2.279279947280884,0.518798828125,0.54931640625,-0.4730224609375
13.969999900000001,0.6560112833976746,-9.588777542114258,-2.2242133617401123,0.18310546875,0.3662109375,-0.4425048828125
13.9899999,0.6392518281936646,-9.62947940826416,-2.188300371170044,0.030517578125,0.7171630859375,-1.15966796875
14.0099999,0.6344634294509888,-9.643844604492188,-2.1715409755706787,-0.2593994140625,0.9765625,-1.617431640625
14.0299999,0.6344634294509888,-9.643844604492188,-2.1595699787139893,0.335693359375,1.190185546875,-0.6561279296875
14.049999900000001,0.6488286852836609,-9.600749015808105,-2.1763293743133545,0.67138671875,-0.579833984375,-0.6561279296875
14.069999900000001,0.6799532771110535,-9.536105155944824,-2.22660756111145,0.0457763671875,1.3885498046875,0.5950927734375
14.0899999,0.6919242739677429,-9.526528358459473,-2.2601263523101807,-0.2899169921875,1.6632080078125,0.213623046875
14.1099999,0.689530074596405,-9.555258750915527,-2.255337953567505,-0.1373291015625,1.4801025390625,-0.5035400390625
14.129999900000001,0.6775590777397156,-9.591172218322754,-2.2242133617401123,0.42724609375,0.8392333984375,-1.0986328125
14.149999900000001,0.667982280254364,-9.610325813293457,-2.1954829692840576,0.5340576171875,-0.18310546875,-1.46484375
14.1699999,0.6631938815116882,-9.607931137084961,-2.1595699787139893,-0.4425048828125,0.4119873046875,-1.5716552734375
14.1899999,0.6655880808830261,-9.600749015808105,-2.1595699787139893,-0.91552734375,0.335693359375,-0.9002685546875
14.209999900000001,0.6751648783683777,-9.581595420837402,-2.164358377456665,0.1678466796875,0.2899169921875,-1.007080078125
14.229999900000001,0.6871358752250671,-9.57441234588623,-2.188300371170044,1.708984375,-0.4119873046875,-1.251220703125
14.2499999,0.6991068720817566,-9.569623947143555,-2.2146365642547607,0.579833984375,0.091552734375,-1.556396484375
14.2699999,0.7182605266571045,-9.557653427124023,-2.2457611560821533,-0.06103515625,0.30517578125,-1.1749267578125
14.289999900000002,0.7350199222564697,-9.526528358459473,-2.2673089504241943,0.3204345703125,1.2969970703125,0.2899169921875
14.309999900000001,0.7422025203704834,-9.509769439697266,-2.2697031497955322,0.6561279296875,1.5869140625,1.15966796875
14.3299999,0.730231523513794,-9.514557838439941,-2.2457611560821533,0.67138671875,1.617431640625,1.3885498046875
14.3499999,0.7086837291717529,-9.548076629638672,-2.2146365642547607,0.6866455078125,0.640869140625,-0.2593994140625
14.3699999,0.6823474764823914,-9.607931137084961,-2.1763293743133545,0.9918212890625,0.2899169921875,-0.762939453125
14.389999900000001,0.6703764796257019,-9.653421401977539,-2.161964178085327,-0.152587890625,0.67138671875,-0.946044921875
14.4099999,0.6751648783683777,-9.653421401977539,-2.1595699787139893,-0.54931640625,0.91552734375,-0.9918212890625
14.4299999,0.6871358752250671,-9.636661529541016,-2.169146776199341,0,1.2969970703125,0.48828125
14.4499999,0.7038952708244324,-9.586383819580078,-2.1763293743133545,-0.335693359375,1.2054443359375,0.0762939453125
14.469999900000001,0.7038952708244324,-9.581595420837402,-2.166752576828003,-0.4425048828125,0.8087158203125,-0.274658203125
14.4899999,0.6943184733390808,-9.59596061706543,-2.1571757793426514,-0.9613037109375,0.1678466796875,-2.0904541015625
14.5099999,0.6751648783683777,-9.658209800720215,-2.145204782485962,-0.91552734375,-0.1983642578125,-3.631591796875
14.5299999,0.6536170840263367,-9.710882186889648,-2.1164743900299072,0.7781982421875,-0.701904296875,-5.3253173828125
14.549999900000001,0.6560112833976746,-9.734824180603027,-2.10210919380188,1.0223388671875,-2.3651123046875,-5.889892578125
14.569999900000001,0.6847416758537292,-9.684545516967773,-2.0877439975738525,-0.0152587890625,-3.570556640625,-5.706787109375
14.5899999,0.727837324142456,-9.617507934570312,-2.1116859912872314,-0.54931640625,-2.471923828125,-1.7547607421875
14.6099999,0.7805097699165344,-9.50737476348877,-2.161964178085327,-1.953125,-0.4730224609375,-1.3275146484375
14.629999900000001,0.8188169598579407,-9.440337181091309,-2.2242133617401123,-1.007080078125,0.091552734375,-1.068115234375
14.649999900000001,0.8355764150619507,-9.418789863586426,-2.276885747909546,1.1444091796875,0.1983642578125,-0.1220703125
14.6699999,0.8355764150619507,-9.442731857299805,-2.293645143508911,1.2359619140625,0.335693359375,-0.1068115234375
14.6899999,0.8355764150619507,-9.485827445983887,-2.3056161403656006,0.67138671875,-0.0762939453125,-0.8697509765625
14.709999900000001,0.828393816947937,-9.552865028381348,-2.2912509441375732,0.6256103515625,1.190185546875,0.18310546875
14.729999900000001,0.8188169598579407,-9.591172218322754,-2.2816741466522217,0.640869140625,1.7547607421875,0.396728515625
14.7499999,0.8020575642585754,-9.617507934570312,-2.2385785579681396,0.3509521484375,1.617431640625,-0.244140625
14.7699999,0.7852981686592102,-9.603142738342285,-2.212242364883423,-0.2288818359375,0.335693359375,-1.15966796875
14.789999900000002,0.7661445140838623,-9.593565940856934,-2.169146776199341,0.0152587890625,0.8697509765625,0.091552734375
14.809999900000001,0.7565677165985107,-9.564835548400879,-2.1380221843719482,0.4730224609375,1.5106201171875,0.244140625
14.8299999,0.7469909191131592,-9.57441234588623,-2.123656988143921,0.244140625,0.67138671875,-0.1220703125
14.8499999,0.7398083209991455,-9.591172218322754,-2.099714994430542,-0.7476806640625,0.213623046875,-1.46484375
14.8699999,0.7398083209991455,-9.610325813293457,-2.099714994430542,-1.2359619140625,-0.7476806640625,-2.44140625
14.889999900000001,0.7637503147125244,-9.593565940856934,-2.123656988143921,-0.274658203125,-0.54931640625,-1.6326904296875
14.9099999,0.7876923680305481,-9.583989143371582,-2.1475989818573,0.9918212890625,0.1220703125,0.1373291015625
14.9299999,0.8140285611152649,-9.53849983215332,-2.161964178085327,2.1820068359375,-0.0152587890625,0.1678466796875
14.9499999,0.8236053586006165,-9.531316757202148,-2.161964178085327,2.3956298828125,-1.007080078125,0.30517578125
14.969999900000001,0.8212111592292786,-9.524134635925293,-2.1380221843719482,2.1514892578125,-0.91552734375,0.3204345703125
14.9899999,0.8140285611152649,-9.536105155944824,-2.1308395862579346,2.13623046875,-1.2664794921875,0.274658203125
15.0099999,0.8020575642585754,-9.569623947143555,-2.126051187515259,1.0223388671875,-0.79345703125,-0.3204345703125
15.0299999,0.7924807667732239,-9.607931137084961,-2.145204782485962,1.4190673828125,-1.708984375,-1.190185546875
15.049999900000001,0.790086567401886,-9.655815124511719,-2.166752576828003,2.9754638671875,-1.983642578125,-1.3885498046875
15.069999900000001,0.7948749661445618,-9.677363395690918,-2.1978771686553955,3.7841796875,-1.2969970703125,-1.4801025390625
15.0899999,0.8140285611152649,-9.670180320739746,-2.2361843585968018,3.5247802734375,-0.6866455078125,-1.9989013671875
15.1099999,0.8427590131759644,-9.62947940826416,-2.2649147510528564,2.0751953125,-0.0457763671875,-1.739501953125
15.129999900000001,0.8762778043746948,-9.560047149658203,-2.293645143508911,4.119873046875,-0.30517578125,-0.4425048828125
15.149999900000001,0.9217676520347595,-9.519346237182617,-2.3750481605529785,14.3280029296875,-2.38037109375,2.5482177734375
15.1699999,0.9768342971801758,-9.490615844726562,-2.449268341064453,26.153564453125,-1.617431640625,4.9591064453125
15.1899999,1.0558429956436157,-9.53849983215332,-2.604891538619995,29.9530029296875,-1.0223388671875,5.401611328125
15.209999900000001,1.1420341730117798,-9.59835433959961,-2.6815059185028076,27.9998779296875,2.6397705078125,3.90625
15.229999900000001,1.216254472732544,-9.715670585632324,-2.715024709701538,27.435302734375,6.04248046875,4.0740966796875
15.2499999,1.2617442607879639,-9.792284965515137,-2.6815059185028076,26.67236328125,6.439208984375,2.2430419921875
15.2699999,1.259350061416626,-9.799467086791992,-2.5689783096313477,24.3072509765625,9.8724365234375,1.2969970703125
15.289999900000002,1.2114660739898682,-9.720458984375,-2.473210334777832,28.167724609375,10.07080078125,5.9051513671875
15.309999900000001,1.1109095811843872,-9.617507934570312,-2.3918075561523438,38.26904296875,11.0626220703125,12.5885009765625
15.3299999,0.9864110946655273,-9.485827445983887,-2.31758713722229,47.607421875,16.0369873046875,13.9007568359375
15.3499999,0.8475474119186401,-9.406818389892578,-2.229001760482788,54.351806640625,21.17919921875,13.9007568359375
15.3699999,0.7326257228851318,-9.311050415039062,-2.0638017654418945,53.0853271484375,26.123046875,16.11328125
15.389999900000001,0.6536170840263367,-9.17936897277832,-1.8411411046981812,52.154541015625,28.076171875,19.22607421875
15.4099999,0.5770025849342346,-9.100360870361328,-1.5490485429763794,62.469482421875,29.11376953125,26.947021484375
15.4299999,0.49559974670410156,-9.0859956741333,-1.2689268589019775,72.540283203125,32.6995849609375,29.7698974609375
15.4499999,0.3711012601852417,-9.198522567749023,-0.9457096457481384,68.5272216796875,37.3382568359375,27.77099609375
15.469999900000001,0.181959331035614,-9.411606788635254,-0.5027823448181152,54.7943115234375,44.8150634765625,23.162841796875
15.4899999,-0.11971008777618408,-9.732429504394531,0.24420857429504395,45.806884765625,45.0897216796875,20.7977294921875
15.5099999,-0.6200982332229614,-10.26394271850586,1.5514427423477173,44.769287109375,39.1693115234375,18.6767578125
15.5299999,-1.3551181554794312,-11.018115997314453,3.471592426300049,35.94970703125,17.486572265625,6.65283203125
15.549999900000001,-2.3127987384796143,-11.856086730957031,6.052541732788086,-0.1678466796875,-9.521484375,-18.707275390625
15.569999900000001,-3.35667085647583,-12.610260009765625,8.700529098510742,-49.6368408203125,-56.8389892578125,-42.6788330078125
15.5899999,-4.987122058868408,-12.586318016052246,11.954249382019043,-131.011962890625,-138.214111328125,-85.1593017578125
15.6099999,-5.272032260894775,-11.745953559875488,11.568782806396484,-139.8773193359375,-166.2750244140625,-94.390869140625
15.629999900000001,-5.166687488555908,-10.548852920532227,9.818621635437012,-122.0550537109375,-191.162109375,-96.8017578125
15.649999900000001,-4.661510944366455,-9.248801231384277,7.0341644287109375,-72.8759765625,-211.334228515625,-89.630126953125
15.6699999,-3.892971992492676,-8.039729118347168,3.6846764087677,-18.00537109375,-222.9156494140625,-75.439453125
15.6899999,-3.00711727142334,-7.347805023193359,0.26575639843940735,-12.7105712890625,-216.400146484375,-63.3087158203125
15.709999900000001,-2.049436569213867,-6.914454460144043,-3.043030261993408,-68.29833984375,-203.1097412109375,-80.596923828125
15.729999900000001,-0.9888052940368652,-6.730101108551025,-6.48828649520874,-98.052978515625,-193.359375,-91.85791015625
15.7499999,0.26815059781074524,-6.2392897605896,-9.940725326538086,-60.546875,-156.73828125,-77.08740234375
15.7699999,1.7525556087493896,-5.458779811859131,-13.582305908203125,-16.7083740234375,-105.4840087890625,-41.8243408203125
15.789999900000002,3.339911460876465,-4.309563159942627,-16.66364288330078,-9.185791015625,-35.400390625,-15.228271484375
15.809999900000001,4.711789131164551,-3.272873640060425,-18.83279037475586,-5.9661865234375,20.904541015625,10.2081298828125
15.8299999,5.580883979797363,-2.655169725418091,-19.778499603271484,7.080078125,62.6068115234375,40.1458740234375
15.8499999,5.793968200683594,-2.5234885215759277,-19.491195678710938,5.096435546875,108.5052490234375,62.255859375
15.869999900000002,5.327098846435547,-2.940079689025879,-18.452112197875977,-4.791259765625,150.57373046875,77.392578125
15.889999900000001,4.264073371887207,-3.6320040225982666,-16.99883270263672,3.662109375,179.19921875,94.5281982421875
15.9099999,2.7222073078155518,-4.316745758056641,-15.193603515625,42.8924560546875,215.606689453125,112.274169921875
15.9299999,0.7996633648872375,-4.900930881500244,-13.005303382873535,74.0814208984375,246.8414306640625,131.34765625
15.9499999,-1.400607943534851,-5.504269599914551,-10.488997459411621,63.446044921875,253.662109375,141.2811279296875
15.969999900000001,-3.73016619682312,-6.337451934814453,-6.981492042541504,51.0101318359375,267.974853515625,134.063720703125
15.9899999,-5.827486991882324,-7.4986395835876465,-3.246537446975708,52.2613525390625,249.1912841796875,117.4774169921875
16.0099999,-7.582436561584473,-9.026140213012695,0.9624691009521484,49.0875244140625,217.926025390625,99.4873046875
16.0299999,-8.99740982055664,-11.30063247680664,5.8873419761657715,61.4166259765625,212.0513916015625,97.320556640625
16.0499999,-9.983820915222168,-13.919888496398926,11.183316230773926,66.0400390625,150.32958984375,62.7593994140625
16.0699999,-10.575188636779785,-16.53914451599121,16.247053146362305,39.55078125,16.693115234375,-1.800537109375
16.089999900000002,-10.6709566116333,-18.373104095458984,20.42254066467285,12.9547119140625,-68.359375,-52.459716796875
16.109999900000002,-10.196905136108398,-18.507179260253906,22.34508514404297,-6.805419921875,-133.1024169921875,-81.4971923828125
16.1299999,-9.301473617553711,-16.924612045288086,21.744140625,-23.9715576171875,-195.2972412109375,-94.7723388671875
16.1499999,-8.226476669311523,-13.922283172607422,18.880674362182617,-27.313232421875,-245.9564208984375,-97.503662109375
16.1699999,-7.285555839538574,-10.666168212890625,14.494497299194336,-12.75634765625,-272.88818359375,-80.38330078125
16.1899999,-6.502651691436768,-7.766790390014648,9.141061782836914,-20.4315185546875,-285.1409912109375,-68.878173828125
16.2099999,-5.765237808227539,-5.57370138168335,3.5242648124694824,-63.0035400390625,-288.1927490234375,-73.5321044921875
16.2299999,-5.018246650695801,-4.6734819412231445,-1.9847931861877441,-60.302734375,-274.6429443359375,-58.7615966796875
16.249999900000002,-4.122815132141113,-4.5394062995910645,-6.89530086517334,-24.871826171875,-233.70361328125,-35.614013671875
16.269999900000002,-2.9520506858825684,-5.12119722366333,-11.44907283782959,-79.559326171875,-193.0389404296875,-50.3692626953125
16.2899999,-1.4317326545715332,-5.559336185455322,-15.990873336791992,-183.868408203125,-161.0870361328125,-75.042724609375
16.3099999,0.35673606395721436,-5.762843608856201,-20.458454132080078,-125.5950927734375,-83.9080810546875,-47.18017578125
16.3299999,2.2457611560821533,-5.473145008087158,-24.19101333618164,36.9415283203125,15.6097412109375,9.6893310546875
16.3499999,3.8714241981506348,-4.908113479614258,-26.458322525024414,86.2579345703125,89.447021484375,34.11865234375
16.3699999,4.707000732421875,-4.637568473815918,-26.276363372802734,60.9588623046875,137.87841796875,48.6602783203125
16.3899999,4.63517427444458,-4.532223701477051,-23.863008499145508,50.7659912109375,181.732177734375,59.5703125
16.4099999,3.665522813796997,-4.807557106018066,-20.185514450073242,56.884765625,210.3271484375,70.3582763671875
16.429999900000002,2.0159177780151367,-4.989516258239746,-15.878345489501953,73.3489990234375,242.8436279296875,75.8514404296875
16.4499999,-0.016759412363171577,-5.1595048904418945,-11.669339179992676,88.470458984375,265.777587890625,84.228515625
16.4699999,-2.2242133617401123,-5.16429328918457,-7.527369976043701,67.9473876953125,277.130126953125,93.4295654296875
16.4899999,-4.446032524108887,-5.293580055236816,-3.469198226928711,39.7491455078125,284.66796875,98.8922119140625
16.5099999,-6.627150535583496,-6.248866558074951,1.1827356815338135,55.7098388671875,275.543212890625,111.3739013671875
16.5299999,-8.482656478881836,-8.008605003356934,6.143521785736084,81.7413330078125,219.940185546875,90.057373046875
16.5499999,-9.952696800231934,-10.66137981414795,11.686098098754883,56.6253662109375,146.0723876953125,53.0242919921875
16.5699999,-10.862493515014648,-13.685256958007812,17.274166107177734,7.6446533203125,84.075927734375,23.773193359375
16.589999900000002,-11.128249168395996,-16.254236221313477,21.717803955078125,-28.3203125,-27.40478515625,-22.430419921875
16.609999900000002,-10.824186325073242,-17.597381591796875,24.265233993530273,-47.4700927734375,-130.2490234375,-82.3516845703125
16.6299999,-10.096348762512207,-17.331626892089844,24.12158203125,-68.3746337890625,-195.465087890625,-111.846923828125
16.6499999,-9.160215377807617,-15.600618362426758,21.121646881103516,-79.9560546875,-239.2120361328125,-108.3984375
16.6699999,-8.224082946777344,-12.935872077941895,15.990873336791992,-74.798583984375,-267.3187255859375,-108.2916259765625
16.6899999,-7.285555839538574,-10.012551307678223,9.607931137084961,-74.737548828125,-286.62109375,-124.267578125
16.7099999,-6.289567947387695,-7.333439826965332,2.8371291160583496,-71.990966796875,-292.4957275390625,-119.2779541015625
16.7299999,-5.073313236236572,-5.207388877868652,-3.3063924312591553,-32.745361328125,-253.9520263671875,-89.263916015625
16.749999900000002,-3.5745432376861572,-3.533841609954834,-8.695740699768066,-45.3948974609375,-223.846435546875,-71.2738037109375
16.769999900000002,-1.8315643072128296,-2.585737943649292,-13.342885971069336,-95.6268310546875,-202.08740234375,-60.2569580078125
16.7899999,0.05985504388809204,-2.0374655723571777,-17.532739639282227,-100.4180908203125,-147.186279296875,-42.17529296875
16.8099999,1.9249382019042969,-2.075772762298584,-21.286848068237305,-48.8433837890625,-56.1981201171875,-3.72314453125
16.8299999,3.555389642715454,-2.389413356781006,-24.281993865966797,5.950927734375,19.866943359375,29.7088623046875
16.8499999,4.663905143737793,-2.959233283996582,-25.629928588867188,34.5458984375,86.85302734375,45.2423095703125
16.8699999,5.008669853210449,-3.6176388263702393,-25.09602165222168,51.971435546875,136.199951171875,63.5223388671875
16.8899999,4.5394062995910645,-4.146757125854492,-22.692243576049805,47.5616455078125,180.11474609375,78.8116455078125
16.9099999,3.359065055847168,-4.400542736053467,-19.19192123413086,47.119140625,207.427978515625,90.88134765625
16.929999900000002,1.6639702320098877,-4.326322555541992,-15.22472858428955,73.6846923828125,225.5859375,101.7913818359375
16.9499999,-0.31603461503982544,-4.060565948486328,-11.597513198852539,102.4932861328125,238.250732421875,123.687744140625
16.9699999,-2.3965959548950195,-3.5673606395721436,-8.200140953063965,101.5625,269.6380615234375,137.39013671875
16.9899999,-4.683058738708496,-3.5266590118408203,-4.896142482757568,94.7113037109375,284.6527099609375,154.7088623046875
17.0099999,-7.16584587097168,-4.757278919219971,-0.2992752194404602,142.913818359375,294.5556640625,176.6510009765625
17.0299999,-9.524134635925293,-7.321468830108643,4.99669885635376,145.9197998046875,227.4322509765625,137.7716064453125
17.0499999,-11.599906921386719,-11.077971458435059,11.453861236572266,50.7354736328125,147.247314453125,71.8536376953125
17.0699999,-12.995726585388184,-15.397110939025879,17.73385238647461,-6.1492919921875,87.5701904296875,24.322509765625
17.089999900000002,-13.472172737121582,-18.59337043762207,22.438457489013672,-25.726318359375,-31.9976806640625,-44.49462890625
17.109999900000002,-12.102689743041992,-19.208681106567383,24.267627716064453,-72.4639892578125,-186.1114501953125,-125.0152587890625
17.1299999,-10.723628997802734,-16.488866806030273,21.059398651123047,-82.916259765625,-222.83935546875,-126.2664794921875
17.1499999,-9.318233489990234,-12.842497825622559,15.978901863098145,-84.7930908203125,-259.8724365234375,-127.105712890625
17.1699999,-8.04930591583252,-9.184157371520996,10.129867553710938,-82.8399658203125,-279.3121337890625,-124.8931884765625
17.1899999,-6.830657482147217,-6.030993938446045,3.971980571746826,-90.4083251953125,-294.9066162109375,-118.8201904296875
17.2099999,-5.497087001800537,-3.8355112075805664,-1.745373010635376,-63.6749267578125,-274.0631103515625,-98.4649658203125
17.2299999,-3.9480385780334473,-2.31758713722229,-7.0126166343688965,-51.177978515625,-250.7781982421875,-79.833984375
17.249999900000002,-2.161964178085327,-1.4772224426269531,-11.556811332702637,-53.2989501953125,-207.916259765625,-62.3321533203125
17.269999900000002,-0.2801215946674347,-1.1109095811843872,-15.98129653930664,-70.2362060546875,-174.5452880859375,-33.4014892578125
17.2899999,1.4628572463989258,-1.41257905960083,-20.11847686767578,-69.64111328125,-95.245361328125,5.0506591796875
17.3099999,2.896984100341797,-2.229001760482788,-23.681049346923828,-23.681640625,9.9334716796875,28.076171875
17.3299999,3.8163576126098633,-3.555389642715454,-26.05609703063965,44.7540283203125,81.9244384765625,36.5142822265625
17.3499999,4.098873138427734,-4.924872875213623,-26.269180297851562,99.9755859375,135.7421875,46.7529296875
17.3699999,3.778050184249878,-5.810727596282959,-24.53577995300293,131.2103271484375,177.6123046875,50.1708984375
17.3899999,2.8347349166870117,-6.009446144104004,-21.121646881103516,153.6712646484375,219.696044921875,58.1817626953125
17.409999900000003,1.400607943534851,-5.65031623840332,-16.613365173339844,185.85205078125,261.962890625,74.6612548828125
17.429999900000002,-0.43335050344467163,-5.044582843780518,-12.224793434143066,163.818359375,254.730224609375,85.5712890625
17.4499999,-2.47560453414917,-4.24970817565918,-7.558494567871094,135.9100341796875,277.8472900390625,79.2083740234375
17.4699999,-4.726154327392578,-4.144362926483154,-3.2417490482330322,127.4261474609375,287.841796875,103.0731201171875
17.4899999,-6.983886241912842,-4.874594688415527,1.5059528350830078,139.0533447265625,287.2467041015625,114.654541015625
17.5099999,-9.040505409240723,-6.555324077606201,6.2416839599609375,84.4573974609375,235.2447509765625,76.2481689453125
17.5299999,-10.84094524383545,-9.14585018157959,11.619060516357422,6.256103515625,192.352294921875,38.3453369140625
17.5499999,-12.179304122924805,-12.337321281433105,16.845603942871094,15.44189453125,125.732421875,30.3192138671875
17.5699999,-12.921506881713867,-15.049951553344727,21.437681198120117,18.035888671875,2.777099609375,-21.7132568359375
17.589999900000002,-12.988544464111328,-16.740259170532227,24.382549285888672,-34.1339111328125,-100.7232666015625,-90.9881591796875
17.609999900000002,-12.413935661315918,-16.77617073059082,25.141511917114258,-103.1494140625,-156.4178466796875,-125.274658203125
17.6299999,-11.298237800598145,-15.052346229553223,23.242910385131836,-131.439208984375,-200.9735107421875,-130.828857421875
17.6499999,-9.895236015319824,-11.923124313354492,19.232622146606445,-126.708984375,-250.946044921875,-135.040283203125
17.6699999,-8.559270858764648,-8.544905662536621,14.080300331115723,-101.1962890625,-283.935546875,-120.4376220703125
17.6899999,-7.287950038909912,-5.600037574768066,8.446743965148926,-81.268310546875,-300.23193359375,-99.365234375
17.7099999,-6.076483726501465,-3.442862033843994,3.0861260890960693,-83.038330078125,-309.3109130859375,-93.1243896484375
17.7299999,-4.771644115447998,-2.185906171798706,-2.185906171798706,-80.8258056640625,-305.4046630859375,-84.686279296875
17.749999900000002,-3.35667085647583,-1.5945383310317993,-7.041347026824951,-60.943603515625,-279.8309326171875,-55.96923828125
17.769999900000002,-1.900996208190918,-1.6496049165725708,-11.66455078125,-42.9534912109375,-216.5985107421875,-20.32470703125
17.7899999,-0.38307225704193115,-2.073378562927246,-16.237476348876953,-91.9342041015625,-169.8760986328125,-7.293701171875
17.8099999,1.01753568649292,-3.1004912853240967,-20.499155044555664,-118.438720703125,-99.0142822265625,4.302978515625
17.8299999,2.3271639347076416,-4.292803764343262,-24.147918701171875,-41.9921875,-11.7950439453125,21.91162109375
17.8499999,3.3901896476745605,-5.434837818145752,-26.49423599243164,67.108154296875,63.78173828125,38.848876953125
17.8699999,3.952826976776123,-6.387730121612549,-26.92758560180664,103.118896484375,128.5858154296875,57.1136474609375
17.8899999,3.818751811981201,-6.868964672088623,-25.14630126953125,83.7249755859375,177.6123046875,60.72998046875
17.909999900000003,2.9305028915405273,-7.089231014251709,-21.768081665039062,69.6258544921875,214.0655517578125,62.4542236328125
17.929999900000002,1.45806884765625,-6.682217121124268,-17.544710159301758,75.042724609375,243.9727783203125,61.6912841796875
17.9499999,-0.43095630407333374,-5.971138954162598,-13.306973457336426,85.44921875,265.7318115234375,77.6519775390625
17.9699999,-2.5234885215759277,-5.066130638122559,-9.095572471618652,90.728759765625,290.6951904296875,102.7984619140625
17.9899999,-4.7189717292785645,-4.436455726623535,-5.094861030578613,75.0885009765625,293.121337890625,112.548828125
18.0099999,-7.038952827453613,-4.843470096588135,-0.4692635238170624,70.281982421875,289.093017578125,116.8975830078125
18.0299999,-9.29189682006836,-6.538564682006836,4.821922302246094,94.4061279296875,251.9378662109375,106.4605712890625
18.0499999,-11.32457447052002,-9.653421401977539,10.953473091125488,108.489990234375,170.22705078125,80.50537109375
18.0699999,-12.744335174560547,-13.345280647277832,17.38429832458496,74.64599609375,82.763671875,21.8048095703125
18.089999900000002,-13.249512672424316,-16.419435501098633,22.761674880981445,-1.6937255859375,-19.0887451171875,-55.2520751953125
18.109999900000002,-12.780248641967773,-17.810466766357422,26.070463180541992,-62.8509521484375,-105.1788330078125,-100.6927490234375
18.1299999,-11.535264015197754,-17.0012264251709,26.398468017578125,-93.8568115234375,-173.9044189453125,-115.1885986328125
18.1499999,-9.943120002746582,-14.341268539428711,23.736116409301758,-95.9625244140625,-229.6142578125,-116.912841796875
18.1699999,-8.456320762634277,-10.90558910369873,18.923770904541016,-99.9755859375,-260.8795166015625,-110.3363037109375
18.1899999,-7.297526836395264,-7.623138427734375,12.804190635681152,-122.25341796875,-277.89306640625,-107.60498046875
18.2099999,-6.366182327270508,-5.152322292327881,6.268020153045654,-121.856689453125,-297.5006103515625,-106.109619140625
18.2299999,-5.47075080871582,-3.579331636428833,-0.11971008777618408,-82.489013671875,-299.285888671875,-95.0469970703125
18.249999900000002,-4.422090530395508,-2.913743495941162,-5.963956356048584,-60.1348876953125,-253.47900390625,-76.4312744140625
18.269999900000002,-3.220201253890991,-2.832340717315674,-11.314997673034668,-111.602783203125,-213.8824462890625,-68.0084228515625
18.2899999,-1.800439715385437,-3.2632968425750732,-16.385915756225586,-133.758544921875,-178.863525390625,-56.976318359375
18.3099999,-0.0454898327589035,-3.292027235031128,-21.485565185546875,-74.981689453125,-118.5455322265625,-55.6488037109375
18.3299999,1.8076223134994507,-3.0621838569641113,-25.7496395111084,10.6048583984375,-6.561279296875,-15.411376953125
18.3499999,3.576937437057495,-2.5665841102600098,-28.56282615661621,58.990478515625,95.9014892578125,48.9959716796875
18.3699999,4.812345504760742,-1.8315643072128296,-28.78788185119629,59.7686767578125,146.6217041015625,69.1680908203125
18.3899999,5.044582843780518,-1.699883222579956,-26.43438148498535,53.28369140625,186.4166259765625,86.6851806640625
18.409999900000003,4.280832767486572,-1.987187385559082,-22.41212272644043,36.3922119140625,218.8720703125,107.6812744140625
18.429999900000002,2.674323320388794,-2.387019157409668,-17.707515716552734,27.7862548828125,251.7547607421875,120.2392578125
18.4499999,0.44532153010368347,-2.8993782997131348,-13.218387603759766,41.5802001953125,268.9666748046875,139.8773193359375
18.4699999,-2.1547815799713135,-3.318363666534424,-8.851364135742188,82.33642578125,277.4658203125,157.8826904296875
18.4899999,-4.8051629066467285,-3.9671921730041504,-4.881777286529541,102.4017333984375,267.578125,169.86083984375
18.5099999,-7.386112213134766,-4.721365928649902,-1.0582371950149536,78.125,248.9166259765625,157.5164794921875
18.5299999,-9.988609313964844,-7.058106422424316,3.4979286193847656,85.0830078125,259.94873046875,178.9398193359375
18.5499999,-12.33013916015625,-10.51054573059082,8.702922821044922,88.2415771484375,213.43994140625,155.6549072265625
18.5699999,-14.209587097167969,-14.803349494934082,14.202404022216797,68.023681640625,78.460693359375,55.206298828125
18.589999900000002,-15.227123260498047,-19.108123779296875,19.515138626098633,42.1142578125,-20.751953125,-17.3797607421875
18.609999900000002,-15.01164436340332,-21.306001663208008,22.977153778076172,-11.566162109375,-93.1243896484375,-84.89990234375
18.6299999,-11.932701110839844,-18.17438507080078,22.2948055267334,-98.5260009765625,-229.461669921875,-142.9290771484375
18.6499999,-9.986215591430664,-13.826515197753906,18.375497817993164,-98.9532470703125,-267.8375244140625,-141.845703125
18.6699999,-8.31985092163086,-9.222464561462402,12.97657299041748,-64.75830078125,-290.1458740234375,-124.6185302734375
18.6899999,-6.993463039398193,-5.5760955810546875,6.967126846313477,-20.20263671875,-313.5223388671875,-93.780517578125
18.7099999,-5.9304375648498535,-3.112462282180786,1.0223240852355957,-10.8184814453125,-313.2171630859375,-80.3375244140625
18.7299999,-4.999093055725098,-2.207453966140747,-4.259284973144531,-35.308837890625,-274.59716796875,-68.878173828125
18.749999900000002,-4.027047157287598,-2.2433669567108154,-8.9064302444458,-84.5489501953125,-236.846923828125,-57.8765869140625
18.769999900000002,-2.918531894683838,-2.851494312286377,-12.926295280456543,-81.48193359375,-204.65087890625,-46.8597412109375
18.7899999,-1.5897499322891235,-3.445256233215332,-16.977283477783203,-40.496826171875,-173.4771728515625,-31.1279296875
18.8099999,-0.11971008777618408,-3.9480385780334473,-20.764911651611328,-27.3895263671875,-85.2508544921875,-0.8087158203125
18.8299999,1.3263877630233765,-4.333505153656006,-24.207773208618164,-35.9649658203125,21.392822265625,31.9061279296875
18.8499999,2.4612393379211426,-4.750096321105957,-26.31227684020996,-6.53076171875,92.498779296875,55.7098388671875
18.8699999,3.00711727142334,-5.228936672210693,-26.43916893005371,75.653076171875,143.6309814453125,70.25146484375
18.8899999,2.832340717315674,-5.6191911697387695,-24.404098510742188,119.659423828125,184.814453125,78.2318115234375
18.909999900000003,1.9536685943603516,-5.659893035888672,-20.71942138671875,105.3924560546875,220.977783203125,87.2802734375
18.929999900000002,0.4644751250743866,-5.461174011230469,-16.045940399169922,87.9974365234375,247.2686767578125,100.921630859375
18.9499999,-1.4676456451416016,-5.16429328918457,-11.101913452148438,89.508056640625,258.6669921875,110.198974609375
18.9699999,-3.7014358043670654,-5.149928092956543,-6.191405773162842,108.245849609375,256.1492919921875,114.7308349609375
18.9899999,-6.107608318328857,-6.04775333404541,-1.1779472827911377,126.5411376953125,254.5013427734375,122.344970703125
19.0099999,-8.461109161376953,-7.879317760467529,4.185064792633057,111.083984375,229.583740234375,106.0028076171875
19.0299999,-10.527304649353027,-10.6709566116333,9.674968719482422,81.9549560546875,161.68212890625,64.483642578125
19.0499999,-11.985373497009277,-13.527239799499512,15.021221160888672,60.6231689453125,82.000732421875,11.1846923828125
19.0699999,-12.54561710357666,-15.634137153625488,19.20628547668457,22.15576171875,2.6092529296875,-32.440185546875
19.089999900000002,-12.140996932983398,-16.148889541625977,21.602882385253906,-22.76611328125,-69.366455078125,-66.0858154296875
19.109999900000002,-10.888829231262207,-14.844050407409668,21.674707412719727,-59.5550537109375,-130.096435546875,-89.5233154296875
19.1299999,-9.148244857788086,-12.145785331726074,19.637243270874023,-89.6148681640625,-169.9066162109375,-87.310791015625
19.1499999,-7.319074630737305,-8.832210540771484,15.849615097045898,-99.06005859375,-198.4405517578125,-69.03076171875
19.1699999,-5.765237808227539,-5.839457988739014,11.061211585998535,-107.666015625,-218.32275390625,-52.032470703125
19.1899999,-4.563348293304443,-3.8163576126098633,5.602431774139404,-120.269775390625,-233.7799072265625,-44.2962646484375
19.2099999,-3.6846764087677,-3.2776620388031006,0.026336219161748886,-79.77294921875,-228.08837890625,-28.8848876953125
19.2299999,-2.9328970909118652,-3.9647979736328125,-5.183446884155273,-40.771484375,-198.822021484375,-12.7105712890625
19.249999900000002,-2.1475989818573,-5.475539207458496,-9.744400978088379,-60.0433349609375,-153.9154052734375,-17.9443359375
19.269999900000002,-1.2976573705673218,-7.173028469085693,-13.148955345153809,-109.2681884765625,-115.53955078125,-28.4576416015625
19.2899999,-0.37828385829925537,-8.669404029846191,-15.64610767364502,-99.8077392578125,-83.92333984375,-24.7344970703125
19.3099999,0.5817909836769104,-9.59835433959961,-17.477672576904297,-30.6243896484375,-59.7381591796875,-19.22607421875
19.3299999,1.5634137392044067,-9.797073364257812,-18.847156524658203,22.552490234375,-4.9285888671875,-20.93505859375
19.3499999,2.4468741416931152,-9.026140213012695,-19.785682678222656,34.7900390625,55.0384521484375,-13.2598876953125
19.3699999,2.9664158821105957,-7.654263019561768,-19.843143463134766,69.5953369140625,115.2801513671875,21.6827392578125
19.3899999,2.873042106628418,-6.119579315185547,-18.947711944580078,92.376708984375,157.0281982421875,53.4210205078125
19.409999900000003,2.1140801906585693,-4.987122058868408,-16.95573616027832,66.9708251953125,193.878173828125,55.5267333984375
19.429999900000002,0.7709329724311829,-4.5394062995910645,-14.403517723083496,30.670166015625,214.569091796875,53.5736083984375
19.4499999,-0.9265560507774353,-4.627991676330566,-11.379640579223633,32.5469970703125,238.83056640625,69.183349609375
19.4699999,-2.808398485183716,-5.149928092956543,-8.073247909545898,76.35498046875,249.481201171875,91.0797119140625
19.4899999,-4.838681697845459,-6.356605529785156,-4.180276393890381,111.602783203125,242.5079345703125,101.01318359375
19.5099999,-6.842628479003906,-8.087613105773926,0.3758896589279175,96.1761474609375,216.2322998046875,74.462890625
19.5299999,-8.767566680908203,-10.563218116760254,5.698200225830078,80.2001953125,168.9605712890625,48.2025146484375
19.5499999,-10.321403503417969,-13.15853214263916,11.374852180480957,86.4105224609375,114.1510009765625,23.7884521484375
19.5699999,-11.228805541992188,-15.114595413208008,16.433799743652344,55.755615234375,12.87841796875,-29.2816162109375
19.589999900000002,-11.329362869262695,-15.85919189453125,20.10650634765625,3.4942626953125,-70.587158203125,-79.2236328125
19.609999900000002,-10.587160110473633,-14.973337173461914,21.50950813293457,-47.3785400390625,-122.0855712890625,-100.982666015625
19.6299999,-9.227252960205078,-12.600683212280273,20.501548767089844,-87.2802734375,-162.0025634765625,-96.49658203125
19.6499999,-7.637503623962402,-9.500192642211914,17.504009246826172,-88.0889892578125,-203.155517578125,-79.28466796875
19.6699999,-6.203376770019531,-6.689399719238281,13.175292015075684,-74.7528076171875,-239.6087646484375,-58.8836669921875
19.6899999,-4.9583916664123535,-4.644751071929932,7.982268333435059,-103.546142578125,-253.4637451171875,-57.31201171875
19.7099999,-3.8331170082092285,-3.2968156337738037,2.1308395862579346,-143.0816650390625,-250.4119873046875,-59.8602294921875
19.7299999,-2.652775526046753,-2.6623523235321045,-3.689464807510376,-110.595703125,-202.63671875,-30.2276611328125
19.749999900000002,-1.4173674583435059,-2.3774423599243164,-9.299078941345215,-72.3114013671875,-167.266845703125,7.7056884765625
19.769999900000002,-0.21547815203666687,-2.7748796939849854,-14.183250427246094,-96.19140625,-123.9166259765625,32.1502685546875
19.7899999,0.7469909191131592,-3.890577793121338,-17.66681480407715,-144.1802978515625,-45.928955078125,31.6009521484375
19.8099999,1.3551181554794312,-5.659893035888672,-19.98200798034668,-93.6126708984375,-3.509521484375,27.2369384765625
19.8299999,1.6304513216018677,-7.680599212646484,-21.061792373657227,39.154052734375,2.3956298828125,27.6031494140625
19.8499999,1.6112977266311646,-9.313444137573242,-20.599712371826172,94.0399169921875,56.5643310546875,24.4598388671875
19.8699999,1.41257905960083,-10.165780067443848,-18.91179847717285,75.3326416015625,109.161376953125,19.8211669921875
19.8899999,1.1276689767837524,-9.931148529052734,-16.148889541625977,71.10595703125,113.067626953125,23.2391357421875
19.909999900000003,0.7565677165985107,-8.87051773071289,-12.497733116149902,84.564208984375,122.86376953125,36.2396240234375
19.929999900000002,0.2346317619085312,-7.7643961906433105,-8.547300338745117,92.559814453125,131.8359375,58.65478515625
19.9499999,-0.35434186458587646,-6.7923502922058105,-4.750096321105957,89.0045166015625,131.8817138671875,56.7474365234375
19.9699999,-1.0558429956436157,-6.502651691436768,-1.0558429956436157,81.146240234375,117.767333984375,53.5736083984375
19.9899999,-1.8770540952682495,-6.823474884033203,2.4636335372924805,90.423583984375,96.923828125,68.42041015625
