# Time (seconds),Accel_X,Accel_Y,Accel_Z,Gyro_X,Gyro_Y,Gyro_Z
0.0099999,1.139639973640442,-7.594407558441162,-7.242460250854492,20.5535888671875,21.331787109375,2.5177001953125
0.029999900000000003,1.1061211824417114,-7.405265808105469,-8.17380428314209,43.9910888671875,45.1812744140625,1.3580322265625
0.0499999,1.115697979927063,-7.084442615509033,-8.990227699279785,71.746826171875,86.3189697265625,6.0577392578125
0.0699999,1.2066776752471924,-6.780379295349121,-9.208099365234375,67.779541015625,106.1248779296875,18.85986328125
0.08999990000000001,1.460463047027588,-6.868964672088623,-8.966285705566406,23.9410400390625,81.329345703125,25.4058837890625
0.10999990000000001,1.9105730056762695,-7.026981830596924,-8.439560890197754,7.7972412109375,62.1337890625,8.1634521484375
0.1299999,2.5282769203186035,-7.5848307609558105,-8.099584579467773,41.0919189453125,91.49169921875,4.1961669921875
0.14999990000000002,3.177105665206909,-8.197746276855469,-7.841010570526123,86.97509765625,127.5787353515625,17.425537109375
0.1699999,3.7493197917938232,-8.62391471862793,-7.122750282287598,106.903076171875,139.70947265625,6.591796875
0.1899999,4.10366153717041,-9.265560150146484,-5.698200225830078,93.68896484375,114.31884765625,-2.7923583984375
0.20999990000000002,4.273650169372559,-9.68694019317627,-3.641580820083618,72.9827880859375,83.6029052734375,-11.0931396484375
0.2299999,4.28322696685791,-10.053253173828125,-1.6041151285171509,49.407958984375,60.333251953125,-14.190673828125
0.2499999,4.144362926483154,-10.244789123535156,0.023942016065120697,39.1387939453125,40.4205322265625,-11.7950439453125
0.2699999,3.8810009956359863,-10.20887565612793,1.0893617868423462,39.6270751953125,24.0325927734375,-19.622802734375
0.28999990000000003,3.5266590118408203,-10.000580787658691,1.889025092124939,47.9583740234375,17.39501953125,-27.0233154296875
0.3099999,3.134010076522827,-9.615114212036133,2.4444799423217773,38.8946533203125,-7.9498291015625,-22.216796875
0.3299999,2.7246015071868896,-9.258378028869629,2.9664158821105957,21.4996337890625,-37.2314453125,-14.4805908203125
0.34999990000000003,2.322375535964966,-9.038111686706543,3.272873640060425,-4.6539306640625,-60.791015625,-16.78466796875
0.3699999,1.9632453918457031,-8.98543930053711,3.1699230670928955,-24.993896484375,-77.4383544921875,-30.57861328125
0.3899999,1.647210717201233,-9.023746490478516,2.631227731704712,-28.656005859375,-81.5887451171875,-30.731201171875
0.40999990000000003,1.3934253454208374,-9.181763648986816,1.8076223134994507,-37.90283203125,-77.9876708984375,-14.2364501953125
0.4299999,1.1899182796478271,-9.246406555175781,0.9169792532920837,-37.872314453125,-88.8519287109375,-21.9268798828125
0.4499999,1.015141487121582,-9.497797966003418,-0.0071826050989329815,-54.5196533203125,-100.799560546875,-31.2042236328125
0.4699999,0.9074024558067322,-9.672574996948242,-1.0031704902648926,-48.15673828125,-102.5238037109375,-37.4603271484375
0.4899999,0.849941611289978,-9.617507934570312,-1.9488801956176758,-18.4783935546875,-81.268310546875,-38.9404296875
0.5099999,0.8307880163192749,-9.334992408752441,-2.8155810832977295,-4.9591064453125,-67.169189453125,-31.463623046875
0.5299999,0.8212111592292786,-8.918401718139648,-3.35667085647583,-11.04736328125,-72.2808837890625,-21.8658447265625
0.5499999,0.811634361743927,-8.451532363891602,-3.6080620288848877,-15.411376953125,-78.6285400390625,-22.705078125
0.5699999,0.7876923680305481,-8.075642585754395,-3.7493197917938232,-8.9111328125,-75.68359375,-24.9481201171875
0.5899998999999999,0.7493851184844971,-7.7883381843566895,-3.8139634132385254,-0.8544921875,-65.2008056640625,-16.4794921875
0.6099998999999999,0.7110779285430908,-7.589619159698486,-3.9384617805480957,-10.9710693359375,-68.9697265625,-9.0484619140625
0.6299999,0.6823474764823914,-7.433996200561523,-4.10366153717041,-29.266357421875,-79.5135498046875,-11.444091796875
0.6499999,0.7015010714530945,-7.682993412017822,-5.152322292327881,10.894775390625,-55.35888671875,-9.4757080078125
0.6699999,0.7805097699165344,-7.841010570526123,-5.832275390625,19.6990966796875,-38.1622314453125,-13.1072998046875
0.6899999,0.8762778043746948,-7.999027729034424,-6.461950302124023,-1.3275146484375,-45.7000732421875,-10.6048583984375
0.7099999,0.9576807022094727,-8.257601737976074,-6.821080684661865,-16.143798828125,-39.5965576171875,-6.2713623046875
0.7299998999999999,1.0462661981582642,-8.437167167663574,-6.9910688400268555,-7.7972412109375,-25.8331298828125,-15.8843994140625
0.7499998999999999,1.0797849893569946,-8.49941635131836,-6.995857238769531,0.6103515625,-20.9808349609375,-24.2767333984375
0.7699999,1.036689281463623,-8.413225173950195,-6.845022678375244,-9.46044921875,-21.3470458984375,-14.1448974609375
0.7899999,0.9409212470054626,-8.075642585754395,-6.687005519866943,-20.2484130859375,-19.9432373046875,-2.1820068359375
0.8099999,0.8762778043746948,-7.647080421447754,-6.71334171295166,-16.78466796875,-10.9710693359375,-3.2501220703125
0.8299999,0.828393816947937,-7.3669586181640625,-6.8593878746032715,-5.4168701171875,5.0811767578125,-1.068115234375
0.8499998999999999,0.8331822156906128,-7.343016624450684,-6.936002254486084,10.2996826171875,19.8211669921875,9.124755859375
0.8699998999999999,0.9552865028381348,-7.196970462799072,-6.873753070831299,7.0648193359375,19.561767578125,4.5623779296875
0.8899999,1.0797849893569946,-7.041347026824951,-6.610390663146973,3.0059814453125,12.5885009765625,5.92041015625
0.9099999,1.2330138683319092,-7.017405033111572,-6.287173748016357,3.3416748046875,16.4794921875,26.9622802734375
0.9299999,1.3862427473068237,-6.957550048828125,-6.1985883712768555,-6.5460205078125,13.12255859375,25.7720947265625
0.9499999,1.5538369417190552,-7.216124057769775,-6.157886981964111,-13.946533203125,19.134521484375,18.7225341796875
0.9699998999999999,1.7693150043487549,-7.326257228851318,-6.495469093322754,-24.5513916015625,17.3187255859375,15.1214599609375
0.9899998999999999,1.9776105880737305,-7.496245384216309,-6.761225700378418,-20.69091796875,24.4140625,29.8004150390625
1.0099999,2.1499931812286377,-7.438784599304199,-7.003039836883545,-14.4195556640625,36.224365234375,38.1011962890625
1.0299999,2.22660756111145,-7.687781810760498,-7.187393665313721,-26.42822265625,27.2979736328125,36.43798828125
1.0499999,2.248155355453491,-7.9846625328063965,-7.271190643310547,-28.778076171875,25.0701904296875,27.9388427734375
1.0699999,2.2409727573394775,-8.343792915344238,-7.347805023193359,-17.4102783203125,37.9791259765625,20.355224609375
1.0899999,2.255337953567505,-8.415618896484375,-7.467514991760254,-3.7994384765625,48.9349365234375,21.484375
1.1099999,2.2146365642547607,-8.248024940490723,-7.436390399932861,-6.4697265625,52.459716796875,25.4058837890625
1.1299999,2.1739351749420166,-8.094796180725098,-7.429207801818848,-26.7333984375,45.5322265625,32.562255859375
1.1499999,2.1140801906585693,-8.058882713317871,-7.441178798675537,-17.3797607421875,48.2635498046875,29.4647216796875
1.1699998999999999,2.126051187515259,-8.149862289428711,-7.441178798675537,18.2037353515625,69.671630859375,15.7928466796875
1.1899998999999999,2.1811177730560303,-7.934384346008301,-7.3023152351379395,26.519775390625,80.74951171875,2.532958984375
1.2099999,2.293645143508911,-7.41484260559082,-7.144298076629639,-9.9029541015625,67.1844482421875,17.8375244140625
1.2299999,2.365471363067627,-6.7708024978637695,-7.115567684173584,-31.1279296875,58.6090087890625,47.5921630859375
1.2499999,2.3942017555236816,-6.050147533416748,-7.218518257141113,0.1678466796875,86.9598388671875,47.3785400390625
1.2699999,2.432508945465088,-5.549759387969971,-7.4316020011901855,25.4364013671875,111.480712890625,41.168212890625
1.2899999,2.52109432220459,-5.446808815002441,-7.189787864685059,13.73291015625,118.6676025390625,61.065673828125
1.3099999,2.7269957065582275,-5.4659624099731445,-6.5481414794921875,-8.23974609375,107.4676513671875,75.6683349609375
1.3299999,3.1052796840667725,-5.817910194396973,-5.612008571624756,-21.1029052734375,99.884033203125,77.81982421875
1.3499999,3.5721490383148193,-6.560112476348877,-4.99669885635376,-20.599365234375,103.02734375,83.4808349609375
1.3699999,4.1180267333984375,-7.395689010620117,-4.565742492675781,3.7078857421875,123.9776611328125,75.6072998046875
1.3899999,4.6950297355651855,-8.40843677520752,-4.24970817565918,18.8140869140625,136.71875,66.4825439453125
1.4099999,5.236119270324707,-9.442731857299805,-3.732560396194458,16.29638671875,130.7373046875,56.7474365234375
1.4299998999999999,5.681440830230713,-10.20648193359375,-3.1244332790374756,1.068115234375,118.3319091796875,35.2020263671875
1.4499999,5.949591159820557,-10.572794914245605,-2.5043349266052246,-0.4425048828125,116.912841796875,21.7437744140625
1.4699999,6.00226354598999,-10.623072624206543,-2.0901381969451904,15.533447265625,120.697021484375,27.1148681640625
1.4899999,5.882553577423096,-10.311826705932617,-1.8818424940109253,16.29638671875,115.17333984375,22.4761962890625
1.5099999,5.621585369110107,-9.883264541625977,-1.7094600200653076,17.333984375,106.93359375,11.016845703125
1.5299999,5.303156852722168,-9.394847869873047,-1.699883222579956,31.9366455078125,102.6458740234375,11.3677978515625
1.5499999,4.967968463897705,-8.753201484680176,-1.534683346748352,59.4024658203125,105.77392578125,16.8609619140625
1.5699999,4.656722068786621,-8.556877136230469,-1.216254472732544,67.1539306640625,103.1494140625,28.01513671875
1.5899999,4.388571739196777,-8.4108304977417,-0.28730419278144836,10.4827880859375,87.249755859375,14.0838623046875
1.6099999,4.165910720825195,-9.05247688293457,0.40222588181495667,-9.7503662109375,40.1763916015625,10.498046875
1.6299999,3.9839515686035156,-9.66299819946289,1.2114660739898682,43.365478515625,27.16064453125,1.1749267578125
1.6499999,3.8091750144958496,-10.309432983398438,1.5059528350830078,96.19140625,35.0341796875,-16.6778564453125
1.6699999,3.624821424484253,-10.29746150970459,2.0159177780151367,85.4339599609375,30.731201171875,-29.205322265625
1.6899998999999999,3.378218650817871,-9.971850395202637,2.8658595085144043,-10.711669921875,-12.75634765625,-12.20703125
1.7099999,3.0310592651367188,-9.612719535827637,3.3638534545898438,-77.08740234375,-82.672119140625,12.1307373046875
1.7299999,2.609679937362671,-9.672574996948242,3.2106244564056396,9.9639892578125,-92.9107666015625,-0.4425048828125
1.7499999,2.1308395862579346,-9.751583099365234,2.5019407272338867,132.720947265625,-30.5328369140625,-44.8760986328125
1.7699999,1.6400281190872192,-9.703699111938477,1.9608511924743652,110.4736328125,-23.651123046875,-44.952392578125
1.7899999,1.1563993692398071,-9.339780807495117,1.889025092124939,-26.4434814453125,-105.499267578125,9.7808837890625
1.8099999,0.6224924325942993,-9.040505409240723,2.410961151123047,-117.37060546875,-164.4744873046875,30.426025390625
1.8299999,0.14365209639072418,-9.373299598693848,1.6974890232086182,-64.1632080078125,-175.506591796875,4.8065185546875
1.8499999,-0.2585737705230713,-9.947908401489258,0.6775590777397156,58.1207275390625,-93.658447265625,-36.712646484375
1.8699999,-0.5410895943641663,-10.486603736877441,-0.6655880808830261,67.169189453125,-61.065673828125,-35.46142578125
1.8899999,-0.6536170840263367,-10.522516250610352,-1.4437036514282227,-8.0718994140625,-115.234375,-3.3111572265625
1.9099999,-0.730231523513794,-10.398017883300781,-1.5107412338256836,-50.750732421875,-145.8587646484375,3.8604736328125
1.9299998999999999,-0.730231523513794,-10.469843864440918,-1.7956513166427612,-12.9241943359375,-129.7149658203125,-12.1917724609375
1.9499999,-0.6967126727104187,-10.496180534362793,-2.123656988143921,48.4466552734375,-82.8704833984375,-34.3475341796875
1.9699999,-0.6224924325942993,-10.589553833007812,-2.4899697303771973,43.609619140625,-73.30322265625,-22.1710205078125
1.9899999,-0.5578489899635315,-10.445901870727539,-2.5522189140319824,-23.5595703125,-107.72705078125,0
2.0099999,-0.5027823448181152,-10.38604736328125,-2.3726539611816406,-33.02001953125,-117.919921875,-7.8277587890625
2.0299999,-0.5027823448181152,-10.424354553222656,-2.346317768096924,-17.791748046875,-103.1036376953125,-22.0794677734375
2.0499999,-0.5051765441894531,-10.508151054382324,-2.492363929748535,5.5084228515625,-87.95166015625,-27.9693603515625
2.0699999,-0.5147533416748047,-10.560823440551758,-2.518700122833252,12.786865234375,-82.58056640625,-19.0582275390625
2.0899999,-0.5602431893348694,-10.575188636779785,-2.4396915435791016,-9.3231201171875,-95.4437255859375,-17.51708984375
2.1099999,-0.646434485912323,-10.625467300415039,-2.2816741466522217,-25.8331298828125,-105.8807373046875,-27.252197265625
2.1299999,-0.7254431247711182,-10.66137981414795,-2.367865562438965,-5.9051513671875,-101.74560546875,-38.2843017578125
2.1499999,-0.7733271718025208,-10.496180534362793,-2.626439332962036,23.2086181640625,-84.65576171875,-39.4287109375
2.1699999,-0.6823474764823914,-9.986215591430664,-3.4380736351013184,16.1285400390625,-81.4208984375,-29.0069580078125
2.1899999,-0.6823474764823914,-9.897629737854004,-3.7158010005950928,7.4310302734375,-73.0743408203125,-35.0799560546875
2.2099999,-0.7422025203704834,-9.706093788146973,-3.995922565460205,11.3525390625,-62.0880126953125,-44.677734375
2.2299999,-0.8212111592292786,-9.287108421325684,-4.151545524597168,13.153076171875,-56.3201904296875,-41.4886474609375
2.2499999,-0.9193734526634216,-8.681375503540039,-4.331110954284668,6.9580078125,-56.15234375,-28.0914306640625
2.2699999,-1.0031704902648926,-8.11634349822998,-4.525041103363037,11.3372802734375,-50.72021484375,-18.6767578125
2.2899999,-1.0462661981582642,-7.7213006019592285,-4.797980308532715,22.369384765625,-35.5987548828125,-26.031494140625
2.3099999,-1.072602391242981,-7.536946773529053,-5.142745018005371,19.561767578125,-26.67236328125,-27.6336669921875
2.3299999,-1.0630255937576294,-7.443572998046875,-5.43723201751709,2.8076171875,-23.5137939453125,-16.876220703125
2.3499999,-1.0103530883789062,-7.433996200561523,-5.578489780426025,-13.0157470703125,-23.2696533203125,-5.2032470703125
2.3699999,-0.9050082564353943,-7.69735860824585,-5.839457988739014,-8.48388671875,-25.1007080078125,-1.953125
2.3899999,-0.7852981686592102,-8.04691219329834,-6.196194171905518,15.5181884765625,-12.1612548828125,-13.9312744140625
2.4099999,-0.6272808313369751,-8.422801971435547,-6.552929878234863,42.083740234375,12.176513671875,-15.6097412109375
2.4299999,-0.49320554733276367,-8.367734909057617,-6.868964672088623,40.0390625,21.5911865234375,-7.2784423828125
2.4499999,-0.395043283700943,-8.015787124633789,-7.15387487411499,25.0701904296875,15.5029296875,6.6070556640625
2.4699999,-0.21787235140800476,-7.374141216278076,-7.287950038909912,20.20263671875,24.8260498046875,16.815185546875
2.4899999,0.05506663769483566,-6.981492042541504,-7.558494567871094,26.55029296875,39.520263671875,28.656005859375
2.5099999,0.49320554733276367,-6.981492042541504,-7.632715225219727,37.0330810546875,55.7861328125,40.10009765625
2.5299999,1.1252747774124146,-7.326257228851318,-7.716512203216553,46.295166015625,55.5419921875,30.8380126953125
2.5499999,1.802833914756775,-7.733271598815918,-7.417236804962158,27.7862548828125,59.906005859375,23.4527587890625
2.5699999,2.4827871322631836,-8.099584579467773,-7.015010833740234,-3.7841796875,63.8427734375,44.00634765625
2.5899999,3.1100680828094482,-8.422801971435547,-6.780379295349121,-16.4337158203125,55.389404296875,52.5054931640625
2.6099999,3.533841609954834,-8.916007041931152,-6.519411087036133,10.43701171875,72.93701171875,38.6810302734375
2.6299999,3.799597978591919,-9.330204010009766,-6.236895561218262,38.2843017578125,102.996826171875,13.5040283203125
2.6499999,3.9025487899780273,-9.493009567260742,-5.827486991882324,29.296875,99.91455078125,19.2413330078125
2.6699999,3.8283286094665527,-9.351752281188965,-5.233725070953369,11.322021484375,85.26611328125,45.3338623046875
2.6899999,3.6104562282562256,-8.923190116882324,-4.812345504760742,15.1519775390625,90.3472900390625,48.15673828125
2.7099999,3.2968156337738037,-8.552088737487793,-4.563348293304443,38.1317138671875,116.5618896484375,32.684326171875
2.7299999,2.9688100814819336,-8.40843677520752,-4.256890773773193,37.628173828125,136.8865966796875,33.6151123046875
2.7499999,2.674323320388794,-8.142680168151855,-3.804386615753174,-8.758544921875,125.42724609375,49.0264892578125
2.7699999,2.3798365592956543,-7.829039573669434,-3.205836057662964,-52.825927734375,99.8992919921875,66.3909912109375
2.7899999,2.121262788772583,-7.841010570526123,-2.801215887069702,-39.48974609375,109.4207763671875,80.99365234375
2.8099999,1.922544002532959,-8.283937454223633,-2.346317768096924,1.2969970703125,142.608642578125,72.4029541015625
2.8299999,1.886630892753601,-8.899248123168945,-1.7717092037200928,-16.876220703125,140.0146484375,43.914794921875
2.8499999,2.032677173614502,-9.641449928283691,-1.0438719987869263,-71.380615234375,103.729248046875,48.4466552734375
2.8699999,2.3104045391082764,-9.974244117736816,-0.4118026793003082,-89.0960693359375,85.4034423828125,57.891845703125
2.8899999,2.6384103298187256,-10.177751541137695,-0.12449848651885986,-43.914794921875,108.978271484375,58.2275390625
2.9099999,2.9903578758239746,-10.261548042297363,-0.2298433631658554,-3.2958984375,130.157470703125,41.229248046875
2.9299999,3.3423056602478027,-10.307038307189941,-0.47405192255973816,-23.8800048828125,115.0665283203125,28.74755859375
2.9499999,3.603273630142212,-10.156203269958496,-0.7637503147125244,-52.825927734375,100.799560546875,33.7066650390625
2.9699999,3.6990416049957275,-9.950302124023438,-1.3910311460494995,-39.6270751953125,105.0567626953125,42.0379638671875
2.9899999,3.624821424484253,-10.055646896362305,-1.9823989868164062,8.544921875,133.392333984375,33.355712890625
3.0099999,3.507505416870117,-10.249577522277832,-2.4157495498657227,9.2315673828125,142.4560546875,-0.1220703125
3.0299999,3.3901896476745605,-10.488997459411621,-2.3726539611816406,-29.4036865234375,125.030517578125,-13.946533203125
3.0499999,3.315969467163086,-10.18493366241455,-2.0614075660705566,-41.93115234375,108.9324951171875,2.7618408203125
3.0699999,3.1076738834381104,-10.177751541137695,-1.8171991109848022,-24.688720703125,111.3128662109375,29.3731689453125
3.0899999,2.87064790725708,-10.036493301391602,-1.8148049116134644,-14.923095703125,120.452880859375,5.4473876953125
3.1099999,2.609679937362671,-10.515334129333496,-1.8962076902389526,-7.720947265625,116.912841796875,-32.5775146484375
3.1299999,2.4372973442077637,-10.790667533874512,-1.9129672050476074,4.33349609375,107.5592041015625,-35.6597900390625
3.1499999,2.360682964324951,-11.154585838317871,-1.7717092037200928,13.5345458984375,97.6715087890625,-19.012451171875
3.1699999,2.343923568725586,-11.118672370910645,-1.6352397203445435,0.396728515625,90.1641845703125,-20.8282470703125
3.1899999,2.360682964324951,-11.164162635803223,-1.2880805730819702,10.162353515625,89.7674560546875,-39.36767578125
3.2099999,2.4899697303771973,-10.833763122558594,-0.8044517636299133,33.7982177734375,79.77294921875,-38.3758544921875
3.2299999,2.6575639247894287,-10.508151054382324,-0.07422025501728058,39.642333984375,61.21826171875,-9.9945068359375
3.2499999,2.9017724990844727,-9.890447616577148,0.8547300100326538,-12.4664306640625,43.3807373046875,6.2713623046875
3.2699999,3.07415509223938,-9.531316757202148,1.5969325304031372,-43.1671142578125,21.514892578125,-0.67138671875
3.2899999,3.1675288677215576,-9.222464561462402,2.22660756111145,-1.15966796875,9.246826171875,5.157470703125
3.3099999,3.0813376903533936,-9.370905876159668,2.5977089405059814,45.440673828125,-5.2947998046875,20.7672119140625
3.3299999000000002,2.8610711097717285,-9.696516990661621,3.0789434909820557,49.896240234375,-20.111083984375,16.5252685546875
3.3499999,2.5019407272338867,-9.962273597717285,3.665522813796997,47.42431640625,-44.708251953125,-29.6783447265625
3.3699999,2.0661959648132324,-9.974244117736816,4.517858505249023,59.8907470703125,-69.7174072265625,-19.317626953125
3.3899999,1.4891934394836426,-9.66299819946289,5.274426460266113,21.4691162109375,-103.0426025390625,16.1895751953125
3.4099999,0.7589619159698486,-9.332598686218262,5.815515995025635,-77.0263671875,-127.13623046875,38.6962890625
3.4299999,-0.1867477297782898,-9.916783332824707,5.403713226318359,-113.0828857421875,-152.191162109375,8.8958740234375
3.4499999,-1.137245774269104,-10.72602367401123,4.489128112792969,43.304443359375,-149.9481201171875,-49.041748046875
3.4699999,-1.9153614044189453,-11.329362869262695,3.2609026432037354,143.98193359375,-135.711669921875,-80.078125
3.4899999,-2.4612393379211426,-11.221623420715332,2.3104045391082764,78.7353515625,-146.9573974609375,-33.69140625
3.5099999,-2.7964274883270264,-10.644620895385742,1.8052281141281128,-55.816650390625,-175.7049560546875,16.90673828125
3.5299999,-3.0526070594787598,-10.412383079528809,1.3479355573654175,-102.4627685546875,-193.756103515625,6.2255859375
3.5499999,-3.246537446975708,-10.65898609161377,0.7230489253997803,-4.425048828125,-180.633544921875,-46.2493896484375
3.5699999,-3.3494882583618164,-10.678139686584473,-0.047884032130241394,78.948974609375,-153.2745361328125,-78.887939453125
3.5899999,-3.354276657104492,-10.402806282043457,-0.6248866319656372,21.270751953125,-160.1409912109375,-29.8004150390625
3.6099999,-3.292027235031128,-9.684545516967773,-0.9959878921508789,-66.741943359375,-187.5762939453125,11.3983154296875
3.6299999,-3.2537200450897217,-9.184157371520996,-1.2832920551300049,-80.56640625,-190.216064453125,-1.8310546875
3.6499999,-3.2154128551483154,-9.153033256530762,-1.766920804977417,-12.3138427734375,-171.2188720703125,-32.7301025390625
3.6699999,-3.1244332790374756,-9.124302864074707,-2.827552318572998,-26.18408203125,-159.1949462890625,-17.6239013671875
3.6899999,-3.0885202884674072,-8.927978515625,-3.179499864578247,-70.73974609375,-163.055419921875,-2.86865234375
3.7099999,-3.090914487838745,-8.927978515625,-3.7397429943084717,-57.342529296875,-151.3214111328125,-11.1541748046875
3.7299999,-3.1316158771514893,-9.071630477905273,-4.2329487800598145,0.274658203125,-129.0435791015625,-32.623291015625
3.7499999,-3.155557870864868,-9.153033256530762,-4.649539470672607,33.4625244140625,-113.28125,-37.1551513671875
3.7699999,-3.138798475265503,-8.983044624328613,-4.81473970413208,18.310546875,-116.546630859375,-21.8963623046875
3.7899999,-3.071760892868042,-8.674192428588867,-4.733336925506592,1.6632080078125,-114.288330078125,-7.0953369140625
3.8099999,-2.980781078338623,-8.473079681396484,-4.479551315307617,-1.4801025390625,-103.0120849609375,-9.1705322265625
3.8299999000000002,-2.853888511657715,-8.418013572692871,-4.264073371887207,11.0626220703125,-101.287841796875,-18.7225341796875
3.8499999,-2.7222073078155518,-8.33182144165039,-3.909731388092041,22.1099853515625,-98.81591796875,-22.247314453125
3.8699999,-2.580949544906616,-8.20492935180664,-3.670311212539673,14.0838623046875,-99.2889404296875,-4.1046142578125
3.8899999,-2.5043349266052246,-8.154650688171387,-3.512293815612793,-3.2958984375,-102.05078125,11.0321044921875
3.9099999,-2.494758129119873,-8.22887134552002,-3.646369218826294,0.7171630859375,-98.1903076171875,0.1220703125
3.9299999,-2.494758129119873,-8.33182144165039,-3.914519786834717,18.9208984375,-83.2977294921875,-17.5323486328125
3.9499999,-2.540247917175293,-8.26478385925293,-4.223371982574463,22.1099853515625,-74.8748779296875,-10.711669921875
3.9699999,-2.557007312774658,-8.22887134552002,-4.474762916564941,10.4217529296875,-75.68359375,12.1307373046875
3.9899999,-2.585737943649292,-8.288725852966309,-4.5394062995910645,-13.6871337890625,-75.8209228515625,11.7645263671875
4.0099999,-2.626439332962036,-8.664615631103516,-4.730942726135254,-14.923095703125,-73.3489990234375,-7.32421875
4.029999900000001,-2.612074136734009,-9.057265281677246,-4.953603267669678,19.6685791015625,-56.9610595703125,-16.9525146484375
4.0499999,-2.5785553455352783,-9.124302864074707,-5.231330871582031,33.1268310546875,-42.2821044921875,-9.1094970703125
4.069999900000001,-2.5546131134033203,-9.093177795410156,-5.564124584197998,14.58740234375,-37.689208984375,8.9569091796875
4.0899999000000005,-2.6001031398773193,-9.17697525024414,-5.714959621429443,-18.157958984375,-30.3192138671875,7.232666015625
4.1099999,-2.7102363109588623,-9.428366661071777,-5.96874475479126,-27.069091796875,-23.0712890625,-12.6190185546875
4.1299999000000005,-2.8347349166870117,-9.66539192199707,-6.253654956817627,5.3558349609375,-8.6822509765625,-23.7274169921875
4.1499999,-2.9712042808532715,-9.5624418258667,-6.603208065032959,15.3045654296875,9.552001953125,-14.251708984375
4.1699999000000005,-3.050212860107422,-9.227252960205078,-6.9024834632873535,-3.11279296875,22.216796875,-0.9918212890625
4.1899999,-3.1938650608062744,-8.860940933227539,-7.134721279144287,-8.85009765625,30.517578125,-4.0435791015625
4.209999900000001,-3.2968156337738037,-8.676587104797363,-7.15387487411499,16.5863037109375,41.93115234375,-8.9874267578125
4.2299999,-3.2992098331451416,-8.858546257019043,-6.703764915466309,30.242919921875,49.9114990234375,-3.2958984375
4.249999900000001,-3.1100680828094482,-9.220070838928223,-6.1985883712768555,16.3421630859375,34.7442626953125,-1.983642578125
4.2699999,-2.741360902786255,-9.531316757202148,-5.451597213745117,1.1749267578125,29.1290283203125,-13.8702392578125
4.289999900000001,-2.3032219409942627,-9.96945571899414,-4.819528102874756,14.3280029296875,38.6962890625,-14.1143798828125
4.3099999,-1.7932571172714233,-9.852140426635742,-4.378994941711426,22.6898193359375,39.73388671875,-17.913818359375
4.329999900000001,-1.3670891523361206,-9.555258750915527,-4.252102375030518,10.9405517578125,28.6865234375,-11.53564453125
4.3499999,-0.9816226959228516,-9.129091262817383,-4.098873138427734,0.1373291015625,33.5235595703125,2.5787353515625
4.369999900000001,-0.6320692300796509,-8.621520042419434,-4.302380561828613,1.7242431640625,33.14208984375,0.1678466796875
4.3899999,-0.31842881441116333,-8.415618896484375,-4.546588897705078,12.4359130859375,37.2772216796875,-0.8087158203125
4.409999900000001,-0.035913024097681046,-8.29830265045166,-4.972756862640381,17.63916015625,45.135498046875,1.4190673828125
4.4299999,0.19871874153614044,-8.552088737487793,-5.52821159362793,9.46044921875,50.8270263671875,9.002685546875
4.449999900000001,0.3495534360408783,-8.949525833129883,-6.327875137329102,12.5579833984375,62.6373291015625,-2.01416015625
4.4699999,0.4596867263317108,-9.174580574035645,-7.264008045196533,32.6690673828125,87.0361328125,-25.115966796875
4.489999900000001,0.45250412821769714,-9.68694019317627,-8.274360656738281,65.5670166015625,113.3880615234375,-15.411376953125
4.5099999,0.47165772318840027,-9.528923034667969,-9.0859956741333,73.089599609375,141.9677734375,-21.3623046875
4.529999900000001,0.42856210470199585,-9.062053680419922,-9.461885452270508,65.9942626953125,163.055419921875,-26.85546875
4.5499999,0.3758896589279175,-8.537723541259766,-9.315838813781738,34.4085693359375,179.8553466796875,2.9144287109375
4.569999900000001,0.29209262132644653,-8.252813339233398,-8.851364135742188,28.0303955078125,193.7255859375,24.6734619140625
4.5899999000000005,0.2561795711517334,-8.17141056060791,-7.800309181213379,60.5926513671875,222.8240966796875,0.54931640625
4.609999900000001,0.3280056416988373,-8.281543731689453,-6.347028732299805,61.1114501953125,234.6038818359375,-14.9688720703125
4.6299999000000005,0.5530605912208557,-8.315062522888184,-4.424484729766846,14.739990234375,223.08349609375,10.7269287109375
4.6499999,0.8954314589500427,-8.315062522888184,-2.161964178085327,-24.3682861328125,212.9058837890625,29.8004150390625
4.6699999000000005,1.3623007535934448,-8.183381080627441,-0.1173158809542656,-30.364990234375,203.5675048828125,11.3067626953125
4.6899999,1.867477297782898,-8.279149055480957,1.5322890281677246,-38.8946533203125,194.4732666015625,-4.5013427734375
4.709999900000001,2.4372973442077637,-8.451532363891602,2.609679937362671,-59.99755859375,185.3179931640625,9.33837890625
4.7299999,3.045424461364746,-8.664615631103516,3.3039982318878174,-56.396484375,179.19921875,18.9361572265625
4.749999900000001,3.6176388263702393,-9.514557838439941,3.627215623855591,-26.6265869140625,167.48046875,11.8560791015625
4.7699999,4.158728122711182,-10.278307914733887,3.6583402156829834,-36.1480712890625,151.9317626953125,-24.5819091796875
4.789999900000001,4.517858505249023,-10.955866813659668,3.3662476539611816,-52.1240234375,138.519287109375,-42.5872802734375
4.8099999,4.747702121734619,-10.876858711242676,2.7988216876983643,-51.9256591796875,128.0059814453125,-22.796630859375
4.829999900000001,4.716577529907227,-10.934319496154785,1.9345149993896484,-53.8787841796875,113.4185791015625,4.3182373046875
4.8499999,4.525041103363037,-10.953473091125488,0.9433154463768005,-70.49560546875,105.377197265625,-13.824462890625
4.869999900000001,4.1611223220825195,-11.350910186767578,0.016759412363171577,-49.74365234375,104.98046875,-57.6629638671875
4.8899999,3.801992416381836,-11.267112731933594,-0.5770025849342346,7.4920654296875,108.6578369140625,-65.7196044921875
4.909999900000001,3.5170822143554688,-10.496180534362793,-0.4812345504760742,28.3203125,98.57177734375,-39.7491455078125
4.9299999,3.3638534545898438,-9.682151794433594,0.4596867263317108,-3.387451171875,79.833984375,-1.89208984375
4.949999900000001,3.383007049560547,-8.49941635131836,1.3934253454208374,-38.7420654296875,43.5333251953125,-28.076171875
4.9699999,3.442862033843994,-7.999027729034424,2.513911724090576,21.3165283203125,36.7279052734375,-20.263671875
4.989999900000001,3.507505416870117,-7.259219646453857,2.8634653091430664,49.591064453125,28.9154052734375,6.439208984375
5.0099999,3.4165258407592773,-7.671022415161133,3.179499864578247,-0.9613037109375,16.2200927734375,54.473876953125
5.029999900000001,3.224989652633667,-7.7883381843566895,2.9041666984558105,-99.151611328125,-12.26806640625,26.18408203125
5.0499999,2.8850131034851074,-8.980650901794434,2.4468741416931152,-64.75830078125,-34.820556640625,17.02880859375
5.069999900000001,2.537853717803955,-9.567230224609375,1.824381709098816,31.5093994140625,-20.294189453125,23.4222412109375
5.0899999000000005,2.1499931812286377,-10.51054573059082,1.113303780555725,62.2100830078125,-25.45166015625,37.109375
5.109999900000001,1.8052281141281128,-10.426748275756836,0.8643068075180054,32.53173828125,-35.675048828125,6.3629150390625
5.1299999000000005,1.3982137441635132,-10.414777755737305,1.1013327836990356,-34.149169921875,-59.6923828125,0.244140625
5.1499999,1.0079588890075684,-10.134655952453613,1.170764684677124,-42.755126953125,-88.9434814453125,39.794921875
5.1699999000000005,0.23702596127986908,-9.641449928283691,1.4317326545715332,60.8978271484375,-85.2813720703125,17.6849365234375
5.1899999,-0.1364694982767105,-9.308655738830566,1.50355863571167,-0.4119873046875,-95.062255859375,-6.072998046875
5.209999900000001,-0.586579442024231,-9.196128845214844,1.6160861253738403,-101.9439697265625,-114.105224609375,26.3214111328125
5.2299999,-1.039083480834961,-9.193734169006348,1.0869675874710083,-101.25732421875,-142.5323486328125,46.051025390625
5.249999900000001,-1.4628572463989258,-9.38048267364502,0.6224924325942993,11.2152099609375,-118.743896484375,7.50732421875
5.2699999,-1.7741034030914307,-9.5408935546875,-0.15801730751991272,50.4913330078125,-107.452392578125,-25.69580078125
5.289999900000001,-1.9560627937316895,-9.639056205749512,-0.6584054827690125,-17.822265625,-124.5269775390625,1.46484375
5.3099999,-2.1045033931732178,-9.564835548400879,-0.8643068075180054,-95.88623046875,-140.3045654296875,33.203125
5.329999900000001,-2.22660756111145,-9.715670585632324,-1.316810965538025,-67.3980712890625,-144.256591796875,8.9569091796875
5.3499999,-2.3702597618103027,-10.065223693847656,-1.6974890232086182,37.567138671875,-120.3765869140625,-31.463623046875
5.369999900000001,-2.473210334777832,-10.144232749938965,-2.2433669567108154,25.146484375,-118.896484375,-35.125732421875
5.3899999,-2.518700122833252,-9.967061996459961,-2.8802247047424316,-58.7921142578125,-139.4805908203125,2.3956298828125
5.409999900000001,-2.5522189140319824,-9.588777542114258,-3.5913026332855225,-54.595947265625,-132.354736328125,10.6201171875
5.4299999,-2.537853717803955,-9.35654067993164,-4.400542736053467,0.640869140625,-103.0426025390625,-16.1590576171875
5.449999900000001,-2.4444799423217773,-9.442731857299805,-5.272032260894775,14.862060546875,-87.1124267578125,-27.801513671875
5.4699999,-2.2361843585968018,-9.476250648498535,-5.760449409484863,4.2266845703125,-81.451416015625,-19.744873046875
5.489999900000001,-1.920149803161621,-9.488221168518066,-5.702988624572754,-6.927490234375,-73.2269287109375,-13.0615234375
5.5099999,-1.556231141090393,-9.452308654785156,-5.432443618774414,-1.2969970703125,-72.265625,-18.6614990234375
5.529999900000001,-1.213860273361206,-9.44991397857666,-4.833893299102783,14.8162841796875,-67.1844482421875,-28.9459228515625
5.5499999,-0.9433154463768005,-9.311050415039062,-4.292803764343262,19.3328857421875,-66.4825439453125,-28.1982421875
5.569999900000001,-0.7709329724311829,-9.057265281677246,-3.845088005065918,-8.9263916015625,-67.9779052734375,-15.8538818359375
5.5899999000000005,-0.7110779285430908,-8.786720275878906,-3.711012601852417,-24.871826171875,-68.939208984375,-6.5765380859375
5.609999900000001,-0.7398083209991455,-8.662221908569336,-3.7684733867645264,-11.0015869140625,-58.4564208984375,-12.847900390625
5.6299999000000005,-0.790086567401886,-8.576030731201172,-3.957615375518799,7.99560546875,-51.69677734375,-23.98681640625
5.6499999,-0.8259995579719543,-8.595184326171875,-4.0964789390563965,0.9613037109375,-54.50439453125,-18.2952880859375
5.6699999000000005,-0.8379706144332886,-8.47547435760498,-4.261679172515869,-20.599365234375,-64.483642578125,-8.1939697265625
5.6899999,-0.8259995579719543,-8.427590370178223,-4.570530891418457,-25.87890625,-61.1114501953125,-7.5836181640625
5.709999900000001,-0.811634361743927,-8.513781547546387,-5.044582843780518,-9.6282958984375,-45.257568359375,-10.80322265625
5.7299999,-0.7781155705451965,-8.729259490966797,-5.451597213745117,8.2855224609375,-29.510498046875,-17.9443359375
5.749999900000001,-0.6943184733390808,-8.923190116882324,-5.635950565338135,3.0517578125,-29.6783447265625,-22.857666015625
5.7699999,-0.5913678407669067,-8.980650901794434,-5.506663799285889,-9.6435546875,-36.62109375,-19.2718505859375
5.789999900000001,-0.44532153010368347,-8.920795440673828,-5.2696380615234375,-7.0953369140625,-35.8123779296875,-13.2904052734375
5.8099999,-0.3208230137825012,-8.832210540771484,-5.099649429321289,-11.2457275390625,-29.327392578125,-14.1754150390625
5.829999900000001,-0.2082955539226532,-8.846575736999512,-5.099649429321289,-7.99560546875,-24.169921875,-17.4102783203125
5.8499999,-0.08619125932455063,-8.786720275878906,-5.171475887298584,-2.197265625,-21.54541015625,-24.5361328125
5.869999900000001,0.047884032130241394,-8.655038833618164,-5.130774021148682,-6.2103271484375,-17.5628662109375,-21.05712890625
5.8899999,0.21547815203666687,-8.537723541259766,-4.903325080871582,-16.4794921875,-19.7296142578125,-10.101318359375
5.909999900000001,0.42856210470199585,-8.334216117858887,-4.699818134307861,-27.03857421875,-29.754638671875,-12.2528076171875
5.9299999,0.6416460275650024,-8.212111473083496,-4.6734819412231445,-23.681640625,-32.89794921875,-20.01953125
5.949999900000001,0.811634361743927,-8.257601737976074,-4.809951305389404,-3.7689208984375,-15.1519775390625,-13.3514404296875
5.9699999,0.9169792532920837,-8.35097599029541,-5.082890033721924,0.2288818359375,-2.8839111328125,-10.650634765625
5.989999900000001,0.9720458984375,-8.53293514251709,-5.228936672210693,-5.859375,-6.16455078125,-18.00537109375
6.0099999,0.9696516990661621,-8.841787338256836,-5.178658485412598,-8.6669921875,-12.7716064453125,-18.1732177734375
6.029999900000001,0.9457096457481384,-9.188945770263672,-5.104437828063965,-12.2222900390625,-12.5732421875,-14.0228271484375
6.0499999,0.8667010068893433,-9.53849983215332,-5.197812080383301,-20.4010009765625,-9.4451904296875,-17.88330078125
6.069999900000001,0.7637503147125244,-9.799467086791992,-5.463568210601807,-20.233154296875,-2.7313232421875,-27.9998779296875
6.0899999000000005,0.6655880808830261,-9.84495735168457,-5.8203043937683105,-1.434326171875,6.40869140625,-35.400390625
6.109999900000001,0.629675030708313,-9.667786598205566,-5.95677375793457,11.29150390625,15.8843994140625,-29.84619140625
6.1299999000000005,0.6847416758537292,-9.265560150146484,-5.801150798797607,4.9896240234375,13.61083984375,-24.84130859375
6.149999900000001,0.8140285611152649,-8.765172004699707,-5.396530628204346,-8.880615234375,5.889892578125,-25.8026123046875
6.1699999000000005,0.9792284965515137,-8.29590892791748,-4.896142482757568,-10.162353515625,5.3253173828125,-23.1781005859375
6.1899999,1.1300631761550903,-7.903259754180908,-4.438849925994873,3.5400390625,10.5743408203125,-17.08984375
6.209999900000001,1.2401964664459229,-7.65186882019043,-4.14915132522583,2.99072265625,10.3912353515625,-10.19287109375
6.2299999,1.292868971824646,-7.587224960327148,-3.9671921730041504,-10.162353515625,4.5623779296875,-6.53076171875
6.249999900000001,1.292868971824646,-7.702147006988525,-3.8379054069519043,-12.5732421875,3.6773681640625,-4.8980712890625
6.2699999,1.2737152576446533,-7.967903137207031,-3.77565598487854,-15.2130126953125,4.0283203125,-1.40380859375
6.289999900000001,1.256955862045288,-8.257601737976074,-3.8283286094665527,-13.7786865234375,-1.2664794921875,-1.922607421875
6.3099999,1.2521674633026123,-8.487444877624512,-3.9240965843200684,-7.75146484375,-2.2125244140625,-4.425048828125
6.329999900000001,1.2545616626739502,-8.631096839904785,-4.1156325340271,-9.9639892578125,-0.091552734375,-3.204345703125
6.3499999,1.2665326595306396,-8.791508674621582,-4.290409564971924,-12.1307373046875,1.15966796875,3.6773681640625
6.369999900000001,1.3000515699386597,-8.87291145324707,-4.491522312164307,-16.2353515625,-2.5482177734375,1.5411376953125
6.3899999,1.357512354850769,-9.01895809173584,-4.692635536193848,-16.4947509765625,-5.157470703125,-0.8392333984375
6.409999900000001,1.4317326545715332,-9.191340446472168,-4.95120906829834,-15.3045654296875,-3.997802734375,2.6092529296875
6.4299999,1.479616641998291,-9.311050415039062,-5.295974254608154,-15.0299072265625,-1.77001953125,2.593994140625
6.449999900000001,1.455674648284912,-9.373299598693848,-5.640739440917969,-5.0048828125,2.532958984375,-2.3345947265625
6.4699999,1.381454348564148,-9.277531623840332,-5.827486991882324,6.988525390625,8.8653564453125,-7.232666015625
6.489999900000001,1.278503656387329,-9.093177795410156,-5.738901615142822,6.988525390625,11.53564453125,-6.04248046875
6.5099999,1.213860273361206,-8.724471092224121,-5.4252610206604,1.3580322265625,6.8817138671875,-4.7760009765625
6.529999900000001,1.2090718746185303,-8.31985092163086,-4.946420669555664,-3.4332275390625,2.5634765625,-4.2724609375
6.5499999,1.256955862045288,-7.982268333435059,-4.522646903991699,-5.523681640625,0.823974609375,0.335693359375
6.569999900000001,1.314416766166687,-7.747636795043945,-4.2544965744018555,-6.2255859375,0.3204345703125,3.2958984375
6.5899999000000005,1.3479355573654175,-7.704541206359863,-4.230554580688477,-6.561279296875,-0.2288818359375,4.7607421875
6.609999900000001,1.3455413579940796,-7.920019149780273,-4.345476150512695,-5.340576171875,0.0762939453125,7.171630859375
6.6299999000000005,1.3120225667953491,-8.281543731689453,-4.558559894561768,-3.265380859375,0.244140625,4.5318603515625
6.649999900000001,1.259350061416626,-8.676587104797363,-4.788403511047363,-2.716064453125,-0.5950927734375,0.091552734375
6.6699999000000005,1.2090718746185303,-8.96149730682373,-4.972756862640381,0.5340576171875,0.1068115234375,-1.3275146484375
6.6899999,1.1683704853057861,-8.853757858276367,-5.106832027435303,1.5106201171875,2.532958984375,0.244140625
6.709999900000001,1.1971008777618408,-8.576030731201172,-5.058948040008545,-0.579833984375,2.4261474609375,-0.06103515625
6.7299999,1.259350061416626,-8.283937454223633,-4.932055473327637,0.3204345703125,2.2430419921875,-0.1373291015625
6.749999900000001,1.314416766166687,-8.08282470703125,-4.824316501617432,2.7923583984375,1.2054443359375,2.6702880859375
6.7699999,1.3527239561080933,-7.9846625328063965,-4.752490520477295,0.30517578125,1.4801025390625,2.7618408203125
6.789999900000001,1.3503297567367554,-8.037335395812988,-4.764461517333984,-4.2877197265625,2.0294189453125,3.6773681640625
6.8099999,1.3239935636520386,-8.214506149291992,-4.843470096588135,-2.777099609375,2.13623046875,4.3487548828125
6.829999900000001,1.2856862545013428,-8.396465301513672,-4.944026470184326,0.8392333984375,3.173828125,0.9918212890625
6.8499999,1.2497732639312744,-8.592789649963379,-5.018246650695801,1.5869140625,3.3111572265625,1.495361328125
6.869999900000001,1.2282254695892334,-8.683769226074219,-5.063736438751221,-0.7476806640625,2.9296875,1.678466796875
6.8899999,1.2210428714752197,-8.71728801727295,-5.0685248374938965,0.030517578125,4.1961669921875,1.46484375
6.909999900000001,1.2330138683319092,-8.678980827331543,-5.037400245666504,3.2196044921875,5.279541015625,-0.06103515625
6.9299999,1.256955862045288,-8.621520042419434,-4.9583916664123535,4.5318603515625,5.0201416015625,-0.030517578125
6.949999900000001,1.2880805730819702,-8.547300338745117,-4.853046894073486,2.197265625,3.2806396484375,0.1678466796875
6.9699999,1.3120225667953491,-8.492233276367188,-4.742913722991943,0.67138671875,2.1209716796875,1.28173828125
6.989999900000001,1.3263877630233765,-8.47786808013916,-4.680664539337158,0.6866455078125,1.6021728515625,2.1209716796875
7.0099999,1.3239935636520386,-8.506598472595215,-4.659116744995117,1.0223388671875,1.922607421875,1.312255859375
7.029999900000001,1.3120225667953491,-8.537723541259766,-4.6734819412231445,0.4425048828125,1.5869140625,-0.701904296875
7.0499999,1.2952631711959839,-8.580819129943848,-4.711789131164551,0.823974609375,0.762939453125,-0.42724609375
7.069999900000001,1.2737152576446533,-8.580819129943848,-4.745307922363281,1.4190673828125,1.068115234375,0.06103515625
7.0899999000000005,1.2521674633026123,-8.561665534973145,-4.793191909790039,1.2969970703125,1.6326904296875,0.1220703125
7.109999900000001,1.2425906658172607,-8.53532886505127,-4.821922302246094,1.190185546875,2.0294189453125,0.2288818359375
7.1299999000000005,1.2401964664459229,-8.528146743774414,-4.8482584953308105,1.953125,2.166748046875,0.3662109375
7.149999900000001,1.2521674633026123,-8.501810073852539,-4.850652694702148,1.77001953125,1.9683837890625,-0.9002685546875
7.1699999000000005,1.2617442607879639,-8.489839553833008,-4.8482584953308105,1.52587890625,2.471923828125,-0.0762939453125
7.1899999,1.2689268589019775,-8.465897560119629,-4.8482584953308105,2.777099609375,3.3111572265625,0.213623046875
7.209999900000001,1.2737152576446533,-8.453926086425781,-4.829104900360107,4.058837890625,4.0740966796875,0.3509521484375
7.2299999,1.2832920551300049,-8.439560890197754,-4.802768707275391,2.105712890625,3.7841796875,0.762939453125
7.249999900000001,1.2976573705673218,-8.468291282653809,-4.7405195236206055,0.3509521484375,3.204345703125,2.2125244140625
7.2699999,1.316810965538025,-8.49941635131836,-4.6734819412231445,-0.30517578125,1.9378662109375,2.38037109375
7.289999900000001,1.3287819623947144,-8.564059257507324,-4.627991676330566,-2.410888671875,0.91552734375,0.91552734375
7.3099999,1.3311761617660522,-8.640673637390137,-4.594472885131836,-3.6468505859375,1.4190673828125,-0.335693359375
7.329999900000001,1.3263877630233765,-8.683769226074219,-4.616020679473877,-2.8228759765625,0.5340576171875,-1.5869140625
7.3499999,1.314416766166687,-8.683769226074219,-4.661510944366455,-1.52587890625,-0.18310546875,-1.312255859375
7.369999900000001,1.3048399686813354,-8.633491516113281,-4.733336925506592,-0.244140625,0.8544921875,-0.06103515625
7.3899999,1.290474772453308,-8.544905662536621,-4.800374507904053,0.8087158203125,2.166748046875,-0.6866455078125
7.409999900000001,1.278503656387329,-8.480262756347656,-4.853046894073486,0.9613037109375,2.4261474609375,0.274658203125
7.4299999,1.2761094570159912,-8.458714485168457,-4.876988887786865,-0.4425048828125,1.922607421875,0.9002685546875
7.449999900000001,1.2761094570159912,-8.470685958862305,-4.869806289672852,-0.1068115234375,2.13623046875,-0.030517578125
7.4699999,1.290474772453308,-8.504204750061035,-4.836287498474121,1.434326171875,2.1209716796875,-0.640869140625
7.489999900000001,1.3048399686813354,-8.525752067565918,-4.807557106018066,0.67138671875,1.6021728515625,0.2899169921875
7.5099999,1.314416766166687,-8.53293514251709,-4.76924991607666,0.4730224609375,1.739501953125,0.7781982421875
7.529999900000001,1.3192051649093628,-8.528146743774414,-4.742913722991943,2.01416015625,2.13623046875,0.030517578125
7.5499999,1.3192051649093628,-8.520963668823242,-4.726154327392578,1.2664794921875,1.953125,-0.30517578125
7.569999900000001,1.3192051649093628,-8.518569946289062,-4.692635536193848,0.762939453125,1.739501953125,-0.0762939453125
7.5899999000000005,1.3239935636520386,-8.516175270080566,-4.683058738708496,-0.091552734375,0.762939453125,0.7476806640625
7.609999900000001,1.3215993642807007,-8.547300338745117,-4.685452938079834,-1.0223388671875,0.579833984375,1.068115234375
7.6299999000000005,1.3215993642807007,-8.56645393371582,-4.699818134307861,0.7171630859375,1.617431640625,-0.885009765625
7.649999900000001,1.3192051649093628,-8.5903959274292,-4.733336925506592,1.312255859375,1.434326171875,-1.251220703125
7.6699999000000005,1.3192051649093628,-8.580819129943848,-4.738125324249268,0.8392333984375,1.28173828125,-0.1068115234375
7.6899999,1.3215993642807007,-8.549694061279297,-4.72376012802124,0.946044921875,0.91552734375,0.5035400390625
7.709999900000001,1.3263877630233765,-8.523358345031738,-4.692635536193848,-0.1068115234375,0.3814697265625,0.3204345703125
7.7299999,1.3287819623947144,-8.504204750061035,-4.668693542480469,-0.8544921875,0.152587890625,-0.0762939453125
7.749999900000001,1.3215993642807007,-8.513781547546387,-4.671087741851807,-0.701904296875,0.3509521484375,0.213623046875
7.7699999,1.314416766166687,-8.506598472595215,-4.711789131164551,-0.885009765625,0.732421875,0.2288818359375
7.789999900000001,1.3072341680526733,-8.525752067565918,-4.757278919219971,0.1983642578125,1.6326904296875,0.5645751953125
7.8099999,1.3024457693099976,-8.547300338745117,-4.807557106018066,1.1444091796875,1.7852783203125,0.5645751953125
7.829999900000001,1.3072341680526733,-8.576030731201172,-4.821922302246094,0.3662109375,1.77001953125,-0.5950927734375
7.8499999,1.3120225667953491,-8.60236644744873,-4.809951305389404,0.244140625,1.953125,-1.52587890625
7.869999900000001,1.3192051649093628,-8.597578048706055,-4.774038314819336,0.457763671875,1.5411376953125,-1.6937255859375
7.8899999,1.3263877630233765,-8.583212852478027,-4.72376012802124,0.0457763671875,0.9613037109375,-0.2593994140625
7.909999900000001,1.3335703611373901,-8.530540466308594,-4.683058738708496,-0.6256103515625,0.6103515625,0.213623046875
7.9299999,1.3311761617660522,-8.516175270080566,-4.663905143737793,0.06103515625,0.2899169921875,0.579833984375
7.949999900000001,1.3263877630233765,-8.494627952575684,-4.67827033996582,0.3814697265625,0.30517578125,0.091552734375
7.9699999,1.316810965538025,-8.518569946289062,-4.7189717292785645,0.1678466796875,0.885009765625,-0.213623046875
7.989999900000001,1.3072341680526733,-8.537723541259766,-4.776432514190674,0.1220703125,1.068115234375,-0.30517578125
8.0099999,1.3048399686813354,-8.564059257507324,-4.838681697845459,0.0457763671875,0.823974609375,0.762939453125
8.0299999,1.3048399686813354,-8.62391471862793,-4.8602294921875,2.9449462890625,1.46484375,1.129150390625
8.049999900000001,1.314416766166687,-8.62630844116211,-4.8482584953308105,4.21142578125,2.288818359375,-2.532958984375
8.069999900000001,1.3239935636520386,-8.62630844116211,-4.788403511047363,3.570556640625,1.4190673828125,-2.044677734375
8.0899999,1.338358759880066,-8.573636054992676,-4.711789131164551,2.01416015625,0.640869140625,0.518798828125
8.1099999,1.3479355573654175,-8.504204750061035,-4.630385875701904,0.91552734375,1.40380859375,1.2664794921875
8.129999900000001,1.3527239561080933,-8.456320762634277,-4.575319290161133,-0.640869140625,1.617431640625,0.7781982421875
8.149999900000001,1.3503297567367554,-8.47547435760498,-4.558559894561768,-1.190185546875,1.0223388671875,0.8087158203125
8.1699999,1.3431471586227417,-8.513781547546387,-4.575319290161133,-1.8310546875,1.2664794921875,-0.30517578125
8.1899999,1.335964560508728,-8.561665534973145,-4.599261283874512,-0.3509521484375,1.739501953125,-1.03759765625
8.2099999,1.3192051649093628,-8.588001251220703,-4.685452938079834,1.3275146484375,0.1678466796875,0.3662109375
8.229999900000001,1.316810965538025,-8.576030731201172,-4.716577529907227,1.312255859375,1.0986328125,0.6561279296875
8.2499999,1.316810965538025,-8.56884765625,-4.745307922363281,1.708984375,1.4495849609375,0.701904296875
8.2699999,1.3192051649093628,-8.556877136230469,-4.752490520477295,1.434326171875,1.52587890625,0.152587890625
8.2899999,1.3192051649093628,-8.556877136230469,-4.726154327392578,1.953125,1.495361328125,0.5645751953125
8.309999900000001,1.3215993642807007,-8.552088737487793,-4.692635536193848,2.1514892578125,1.03759765625,0.6256103515625
8.3299999,1.3239935636520386,-8.564059257507324,-4.630385875701904,2.62451171875,0.8544921875,0.3204345703125
8.3499999,1.3335703611373901,-8.56645393371582,-4.5825018882751465,2.1820068359375,0.3509521484375,0
8.3699999,1.3407529592514038,-8.585607528686523,-4.541800498962402,0.6561279296875,-0.091552734375,0.6256103515625
8.389999900000001,1.3551181554794312,-8.5903959274292,-4.537012100219727,-0.1983642578125,-0.091552734375,0.640869140625
8.4099999,1.357512354850769,-8.597578048706055,-4.568136692047119,-0.5645751953125,0.274658203125,0
8.4299999,1.3527239561080933,-8.59997272491455,-4.63517427444458,-0.1678466796875,1.190185546875,-0.3814697265625
8.4499999,1.3407529592514038,-8.607154846191406,-4.702212333679199,0.030517578125,2.0599365234375,-0.2899169921875
8.469999900000001,1.3311761617660522,-8.60236644744873,-4.76924991607666,-0.7781982421875,1.800537109375,0.1068115234375
8.4899999,1.3263877630233765,-8.609549522399902,-4.7836151123046875,0.3662109375,2.0904541015625,0.42724609375
8.5099999,1.3311761617660522,-8.604761123657227,-4.76924991607666,0.7476806640625,2.0904541015625,0.244140625
8.5299999,1.3335703611373901,-8.609549522399902,-4.714183330535889,0.6103515625,1.739501953125,-0.0152587890625
8.549999900000001,1.335964560508728,-8.585607528686523,-4.649539470672607,0.457763671875,1.64794921875,-0.5035400390625
8.569999900000001,1.3335703611373901,-8.583212852478027,-4.599261283874512,-0.54931640625,1.46484375,0.6103515625
8.5899999,1.3311761617660522,-8.5903959274292,-4.580107688903809,-0.4119873046875,1.28173828125,1.03759765625
8.6099999,1.3311761617660522,-8.595184326171875,-4.577713489532471,0.67138671875,1.7242431640625,-0.8697509765625
8.629999900000001,1.335964560508728,-8.619126319885254,-4.584896087646484,-0.18310546875,1.3885498046875,-1.0833740234375
8.649999900000001,1.3431471586227417,-8.62391471862793,-4.599261283874512,-1.03759765625,0.9307861328125,-0.335693359375
8.6699999,1.3527239561080933,-8.609549522399902,-4.613626480102539,-0.4425048828125,1.007080078125,-0.6103515625
8.6899999,1.357512354850769,-8.583212852478027,-4.632780075073242,0.213623046875,1.5869140625,-0.335693359375
8.709999900000001,1.3551181554794312,-8.56884765625,-4.642356872558594,0.7476806640625,1.8768310546875,0.518798828125
8.729999900000001,1.3479355573654175,-8.561665534973145,-4.642356872558594,0.42724609375,1.220703125,0.457763671875
8.7499999,1.3407529592514038,-8.573636054992676,-4.632780075073242,-0.2899169921875,1.1749267578125,-0.7476806640625
8.7699999,1.3431471586227417,-8.583212852478027,-4.632780075073242,0.6103515625,1.40380859375,-0.5035400390625
8.7899999,1.3503297567367554,-8.60236644744873,-4.632780075073242,1.28173828125,1.3580322265625,0.4425048828125
8.809999900000001,1.3551181554794312,-8.611943244934082,-4.637568473815918,0.6866455078125,1.2664794921875,-0.091552734375
8.8299999,1.359906554222107,-8.616731643676758,-4.630385875701904,0.518798828125,1.495361328125,-0.9002685546875
8.8499999,1.3551181554794312,-8.614337921142578,-4.6255974769592285,0.274658203125,1.251220703125,-0.762939453125
8.8699999,1.3479355573654175,-8.604761123657227,-4.618414878845215,0.0152587890625,1.373291015625,-0.091552734375
8.889999900000001,1.3455413579940796,-8.588001251220703,-4.620809078216553,0.06103515625,1.556396484375,0.1678466796875
8.9099999,1.3431471586227417,-8.59997272491455,-4.620809078216553,0.0152587890625,1.6326904296875,0.1220703125
8.9299999,1.3479355573654175,-8.621520042419434,-4.599261283874512,-0.3814697265625,1.708984375,-0.518798828125
8.9499999,1.359906554222107,-8.640673637390137,-4.587290287017822,-0.244140625,0.67138671875,-1.4495849609375
8.969999900000001,1.3742717504501343,-8.638279914855957,-4.565742492675781,0.152587890625,0.2899169921875,-1.3580322265625
8.9899999,1.3862427473068237,-8.616731643676758,-4.55616569519043,0.1983642578125,0.885009765625,0.030517578125
9.0099999,1.3958195447921753,-8.585607528686523,-4.565742492675781,-0.5950927734375,0.6256103515625,-0.1068115234375
9.0299999,1.3982137441635132,-8.561665534973145,-4.580107688903809,-0.946044921875,0.396728515625,-0.579833984375
9.049999900000001,1.400607943534851,-8.547300338745117,-4.613626480102539,-0.1373291015625,0.244140625,-0.0457763671875
9.069999900000001,1.400607943534851,-8.528146743774414,-4.6255974769592285,1.52587890625,1.5869140625,0.3662109375
9.0899999,1.403002142906189,-8.544905662536621,-4.606443881988525,1.52587890625,2.0904541015625,0.8544921875
9.1099999,1.3982137441635132,-8.56884765625,-4.55616569519043,-1.2054443359375,0.4730224609375,-0.4425048828125
9.129999900000001,1.381454348564148,-8.60236644744873,-4.486733913421631,-2.960205078125,-1.15966796875,-1.922607421875
9.149999900000001,1.3623007535934448,-8.604761123657227,-4.458003520965576,-2.7313232421875,-1.6326904296875,-1.28173828125
9.1699999,1.3431471586227417,-8.583212852478027,-4.49870491027832,-2.25830078125,-1.0223388671875,1.220703125
9.1899999,1.335964560508728,-8.580819129943848,-4.596867084503174,-1.800537109375,-0.1068115234375,2.74658203125
9.209999900000001,1.3431471586227417,-8.578424453735352,-4.699818134307861,-0.5950927734375,0.8697509765625,0.1983642578125
9.229999900000001,1.3527239561080933,-8.619126319885254,-4.793191909790039,0.0457763671875,0.8087158203125,-0.9307861328125
9.2499999,1.3670891523361206,-8.645462036132812,-4.829104900360107,0.1220703125,1.068115234375,-0.42724609375
9.2699999,1.3694833517074585,-8.638279914855957,-4.833893299102783,0.5645751953125,1.708984375,-0.3814697265625
9.2899999,1.3694833517074585,-8.616731643676758,-4.795586109161377,-0.0152587890625,2.13623046875,-0.091552734375
9.309999900000001,1.3646949529647827,-8.604761123657227,-4.733336925506592,-0.4425048828125,2.0599365234375,0.5645751953125
9.3299999,1.3623007535934448,-8.588001251220703,-4.661510944366455,-0.9765625,1.8310546875,-0.42724609375
9.3499999,1.3646949529647827,-8.604761123657227,-4.596867084503174,-1.007080078125,1.77001953125,-0.823974609375
9.3699999,1.3718775510787964,-8.60236644744873,-4.558559894561768,0.518798828125,1.7852783203125,-1.8768310546875
9.389999900000001,1.37906014919281,-8.607154846191406,-4.54419469833374,2.5482177734375,1.9683837890625,-2.7923583984375
9.4099999,1.3886369466781616,-8.59997272491455,-4.534617900848389,3.2501220703125,2.044677734375,-3.0364990234375
9.4299999,1.3982137441635132,-8.56884765625,-4.537012100219727,1.861572265625,0.946044921875,-2.471923828125
9.4499999,1.4101848602294922,-8.554482460021973,-4.541800498962402,0.0152587890625,-0.30517578125,-0.213623046875
9.469999900000001,1.4197616577148438,-8.525752067565918,-4.568136692047119,-2.2430419921875,0.091552734375,0.030517578125
9.4899999,1.4245500564575195,-8.513781547546387,-4.613626480102539,-1.373291015625,0.885009765625,-0.091552734375
9.5099999,1.4245500564575195,-8.53532886505127,-4.6471452713012695,-0.8544921875,1.52587890625,0.8087158203125
9.5299999,1.4269442558288574,-8.547300338745117,-4.671087741851807,-0.9613037109375,0.823974609375,0.30517578125
9.549999900000001,1.4269442558288574,-8.585607528686523,-4.668693542480469,-0.1983642578125,0.18310546875,0.0152587890625
9.569999900000001,1.4245500564575195,-8.592789649963379,-4.661510944366455,-0.1983642578125,0.732421875,0.5035400390625
9.5899999,1.4173674583435059,-8.592789649963379,-4.656722068786621,-1.2359619140625,1.0528564453125,1.40380859375
9.6099999,1.4101848602294922,-8.592789649963379,-4.649539470672607,-1.800537109375,1.15966796875,1.5716552734375
9.629999900000001,1.403002142906189,-8.585607528686523,-4.639962673187256,-1.556396484375,0.7171630859375,0.2593994140625
9.649999900000001,1.3958195447921753,-8.573636054992676,-4.618414878845215,-1.03759765625,0.79345703125,0.2593994140625
9.6699999,1.3910311460494995,-8.56884765625,-4.613626480102539,-1.4495849609375,0.5645751953125,1.861572265625
9.6899999,1.3886369466781616,-8.571242332458496,-4.608838081359863,-1.495361328125,1.03759765625,1.678466796875
9.709999900000001,1.3838485479354858,-8.595184326171875,-4.6255974769592285,0.396728515625,1.373291015625,-0.4730224609375
9.729999900000001,1.3910311460494995,-8.650250434875488,-4.67827033996582,1.6326904296875,0.9765625,-0.7781982421875
9.7499999,1.403002142906189,-8.619126319885254,-4.704606533050537,-0.06103515625,1.0528564453125,-0.2899169921875
9.7699999,1.4077905416488647,-8.59997272491455,-4.711789131164551,-0.6866455078125,1.312255859375,0.6561279296875
9.7899999,1.4173674583435059,-8.578424453735352,-4.69024133682251,-1.4495849609375,1.373291015625,0.2593994140625
9.809999900000001,1.4197616577148438,-8.56645393371582,-4.6471452713012695,-0.640869140625,0.8087158203125,-1.2054443359375
9.8299999,1.4245500564575195,-8.56645393371582,-4.596867084503174,0.335693359375,0.1983642578125,-0.396728515625
9.8499999,1.4245500564575195,-8.56645393371582,-4.54419469833374,-1.708984375,-0.1983642578125,0.79345703125
9.8699999,1.4221558570861816,-8.556877136230469,-4.5154643058776855,-3.265380859375,-0.7781982421875,0.3204345703125
9.889999900000001,1.4173674583435059,-8.578424453735352,-4.520252704620361,-3.9520263671875,-1.800537109375,0.5645751953125
9.9099999,1.434126853942871,-8.585607528686523,-4.565742492675781,-3.2806396484375,-1.922607421875,-0.06103515625
9.9299999,1.460463047027588,-8.59997272491455,-4.63517427444458,-3.2806396484375,-1.2664794921875,0.54931640625
9.9499999,1.4915876388549805,-8.621520042419434,-4.7189717292785645,-6.317138671875,-1.678466796875,1.251220703125
9.969999900000001,1.5083470344543457,-8.686163902282715,-4.726154327392578,-6.4697265625,-1.617431640625,1.28173828125
9.9899999,1.5059528350830078,-8.798690795898438,-4.680664539337158,-4.7607421875,-3.96728515625,-0.18310546875
10.0099999,1.4939818382263184,-8.882488250732422,-4.60165548324585,-7.7972412109375,-7.568359375,-4.1961669921875
10.0299999,1.4915876388549805,-8.868123054504395,-4.5825018882751465,-9.490966796875,-9.4757080078125,-4.974365234375
10.049999900000001,1.4987702369689941,-8.7484130859375,-4.599261283874512,-7.1258544921875,-6.9122314453125,-2.8076171875
10.069999900000001,1.5203180313110352,-8.516175270080566,-4.654327869415283,-4.08935546875,-5.218505859375,-0.885009765625
10.0899999,1.534683346748352,-8.358158111572266,-4.6734819412231445,-7.4615478515625,-7.8125,0.3204345703125
10.1099999,1.5442601442337036,-8.221688270568848,-4.680664539337158,-11.71875,-11.5509033203125,-0.6256103515625
10.129999900000001,1.5418659448623657,-8.190564155578613,-4.7405195236206055,-11.749267578125,-12.6800537109375,-0.9307861328125
10.149999900000001,1.5298948287963867,-8.169015884399414,-4.922478675842285,-7.26318359375,-9.9945068359375,-0.0457763671875
10.1699999,1.50355863571167,-8.169015884399414,-5.140350818634033,-1.2054443359375,-4.8828125,-0.2288818359375
10.1899999,1.4748282432556152,-8.214506149291992,-5.317522048950195,0.7171630859375,-1.9989013671875,0.3662109375
10.209999900000001,1.4460978507995605,-8.315062522888184,-5.341464042663574,-0.457763671875,-3.1890869140625,-0.152587890625
10.229999900000001,1.4460978507995605,-8.4108304977417,-5.2672438621521,-1.2969970703125,-5.9051513671875,-2.44140625
10.2499999,1.482010841369629,-8.47786808013916,-5.140350818634033,-1.312255859375,-6.622314453125,-2.288818359375
10.2699999,1.5753847360610962,-8.463502883911133,-5.092466831207275,-3.692626953125,-6.622314453125,0.8392333984375
10.2899999,1.7070658206939697,-8.38688850402832,-5.190629482269287,-4.852294921875,-6.34765625,2.01416015625
10.309999900000001,1.8722656965255737,-8.238448143005371,-5.475539207458496,-3.509521484375,-4.0130615234375,1.220703125
10.3299999,2.0254945755004883,-8.101978302001953,-5.944802761077881,-0.54931640625,1.3275146484375,3.9520263671875
10.3499999,2.1332337856292725,-8.003816604614258,-6.552929878234863,1.6021728515625,9.1094970703125,8.4228515625
10.3699999,2.1763293743133545,-7.979874134063721,-7.134721279144287,5.5999755859375,18.1732177734375,10.7879638671875
10.389999900000001,2.1164743900299072,-8.034940719604492,-7.632715225219727,12.451171875,25.3143310546875,9.9945068359375
10.4099999,1.968033790588379,-8.147468566894531,-7.953537940979004,14.190673828125,34.210205078125,10.7269287109375
10.4299999,1.7717092037200928,-8.252813339233398,-8.111555099487305,9.46044921875,45.7305908203125,13.0767822265625
10.4499999,1.5179238319396973,-8.283937454223633,-8.056488990783691,3.2806396484375,58.929443359375,11.3525390625
10.469999900000001,1.2641384601593018,-8.243236541748047,-7.936778545379639,10.5438232421875,66.436767578125,12.054443359375
10.4899999,1.0031704902648926,-8.10437297821045,-7.728483200073242,16.7083740234375,76.84326171875,14.8773193359375
10.5099999,0.7254431247711182,-7.934384346008301,-7.398083209991455,8.544921875,94.1009521484375,18.5546875
10.5299999,0.4429273009300232,-7.862558364868164,-7.060500621795654,-1.007080078125,98.93798828125,24.0325927734375
10.549999900000001,0.13168109953403473,-7.872135162353516,-6.67982292175293,1.678466796875,95.3521728515625,22.3846435546875
10.569999900000001,-0.1843535304069519,-7.996633529663086,-6.471527099609375,15.045166015625,94.4061279296875,20.782470703125
10.5899999,-0.4812345504760742,-7.967903137207031,-6.555324077606201,6.805419921875,104.6142578125,22.674560546875
10.6099999,-0.7637503147125244,-8.010998725891113,-6.739677906036377,-11.4898681640625,125.762939453125,34.2864990234375
10.629999900000001,-1.0582371950149536,-8.097189903259277,-6.94079065322876,14.0533447265625,139.8773193359375,39.9932861328125
10.649999900000001,-1.3862427473068237,-8.305485725402832,-6.890512466430664,61.70654296875,147.918701171875,29.6478271484375
10.6699999,-1.7357962131500244,-8.497021675109863,-6.557718276977539,56.854248046875,154.1290283203125,22.9949951171875
10.6899999,-2.0829553604125977,-8.449137687683105,-6.232107162475586,20.8892822265625,158.4625244140625,31.585693359375
10.709999900000001,-2.4181437492370605,-8.394071578979492,-5.758055210113525,22.6593017578125,173.187255859375,51.177978515625
10.729999900000001,-2.698265314102173,-8.537723541259766,-5.015852451324463,48.88916015625,193.17626953125,51.94091796875
10.7499999,-2.87064790725708,-8.7484130859375,-3.957615375518799,34.6832275390625,186.553955078125,29.9530029296875
10.7699999,-2.9328970909118652,-9.100360870361328,-2.9664158821105957,-24.90234375,160.3546142578125,29.9072265625
10.7899999,-2.9233202934265137,-9.581595420837402,-2.252943754196167,-46.9818115234375,161.5447998046875,50.7354736328125
10.809999900000001,-2.8874073028564453,-10.005369186401367,-2.0685901641845703,-15.68603515625,184.3109130859375,46.295166015625
10.8299999,-2.849100112915039,-10.424354553222656,-2.027888774871826,8.1787109375,190.7196044921875,20.111083984375
10.8499999,-2.7700912952423096,-10.733205795288086,-1.9129672050476074,-25.9552001953125,168.5638427734375,23.25439453125
10.8699999,-2.5713725090026855,-10.608707427978516,-1.5705963373184204,-60.882568359375,149.8870849609375,33.447265625
10.889999900000001,-2.2673089504241943,-10.256759643554688,-1.1300631761550903,-48.0804443359375,147.613525390625,39.2608642578125
10.9099999,-1.8818424940109253,-9.926360130310059,-0.7781155705451965,-39.1693115234375,141.7083740234375,29.754638671875
10.9299999,-1.4221558570861816,-9.433155059814453,-0.5003881454467773,-54.840087890625,122.8790283203125,20.93505859375
10.9499999,-0.9600749015808105,-9.090784072875977,-0.19153612852096558,-51.116943359375,106.2164306640625,34.2559814453125
10.969999900000001,-0.47405192255973816,-8.908824920654297,0.1173158809542656,-31.524658203125,91.73583984375,48.4619140625
10.9899999,-0.002394201699644327,-8.951920509338379,0.2992752194404602,5.279541015625,76.416015625,32.6385498046875
11.0099999,0.40940847992897034,-9.339780807495117,0.586579442024231,-3.1585693359375,71.7620849609375,12.725830078125
11.0299999,0.8212111592292786,-9.648633003234863,0.790086567401886,-32.5469970703125,54.168701171875,10.9405517578125
11.049999900000001,1.2090718746185303,-9.691728591918945,0.9313444495201111,-16.3726806640625,34.1644287109375,14.312744140625
11.069999900000001,1.5514427423477173,-9.581595420837402,1.0678139925003052,-4.0435791015625,29.052734375,18.218994140625
11.0899999,1.8722656965255737,-9.313444137573242,1.05105459690094,-21.3165283203125,16.021728515625,12.115478515625
11.1099999,2.126051187515259,-9.124302864074707,1.036689281463623,-38.7420654296875,5.4473876953125,7.8277587890625
11.129999900000001,2.3343467712402344,-9.150638580322266,0.9481038451194763,-17.9443359375,-1.0833740234375,16.693115234375
11.149999900000001,2.5474305152893066,-9.215282440185547,1.0678139925003052,18.61572265625,-1.52587890625,12.0086669921875
11.1699999,2.7485435009002686,-9.550470352172852,1.2258312702178955,54.0771484375,-12.20703125,7.8887939453125
11.1899999,2.918531894683838,-9.84495735168457,1.8842366933822632,60.4248046875,-25.2227783203125,10.986328125
11.209999900000001,2.9927520751953125,-10.11550235748291,2.3702597618103027,29.9072265625,-62.3321533203125,14.129638671875
11.229999900000001,2.5091233253479004,-10.551246643066406,2.0039467811584473,24.4598388671875,-98.7701416015625,24.932861328125
11.2499999,1.9847931861877441,-10.87446403503418,1.1252747774124146,81.72607421875,-86.8377685546875,27.0538330078125
11.2699999,1.4460978507995605,-10.915165901184082,0.38067805767059326,86.3189697265625,-88.7298583984375,26.275634765625
11.2899999,0.9816226959228516,-10.860098838806152,0.29209262132644653,64.849853515625,-110.8856201171875,39.947509765625
11.309999900000001,0.6440402865409851,-10.426748275756836,0.9074024558067322,57.2967529296875,-127.0294189453125,45.3948974609375
11.3299999,0.47884035110473633,-9.931148529052734,1.946485996246338,70.7244873046875,-137.939453125,43.0908203125
11.3499999,0.47884035110473633,-9.691728591918945,3.0765492916107178,60.1654052734375,-154.4952392578125,49.7894287109375
11.3699999,0.6129156351089478,-9.904812812805176,3.931279182434082,17.059326171875,-182.342529296875,53.8177490234375
11.389999900000001,0.8619126081466675,-10.556035041809082,4.273650169372559,-11.6119384765625,-209.47265625,40.7257080078125
11.4099999,1.1013327836990356,-11.549629211425781,3.974374771118164,-13.7786865234375,-218.994140625,24.2462158203125
11.4299999,1.2952631711959839,-12.217611312866211,3.098097085952759,1.3885498046875,-220.15380859375,7.110595703125
11.4499999,1.4221558570861816,-12.411541938781738,2.032677173614502,35.4461669921875,-211.7919921875,2.1209716796875
11.469999900000001,1.4939818382263184,-12.066776275634766,1.1803414821624756,63.2781982421875,-200.9124755859375,9.0484619140625
11.4899999,1.5753847360610962,-11.245565414428711,0.8834604024887085,24.627685546875,-207.8857421875,3.9520263671875
11.5099999,1.6950948238372803,-10.010157585144043,0.768538773059845,-59.9822998046875,-239.19677734375,-1.0986328125
11.5299999,1.8411411046981812,-8.508993148803711,0.28969839215278625,-91.1865234375,-254.241943359375,23.13232421875
11.549999900000001,1.745373010635376,-8.236053466796875,-1.0654197931289673,-48.27880859375,-225.1434326171875,71.6094970703125
11.569999900000001,1.5275006294250488,-9.445125579833984,-2.7222073078155518,-19.4549560546875,-172.027587890625,43.8232421875
11.5899999,1.2282254695892334,-10.283096313476562,-4.522646903991699,-73.577880859375,-147.3388671875,-129.1656494140625
11.6099999,0.9720458984375,-11.499350547790527,-5.765237808227539,-102.1270751953125,-162.90283203125,-84.197998046875
11.629999900000001,0.8164227604866028,-11.015722274780273,-6.646304130554199,-76.72119140625,-161.0107421875,7.0343017578125
11.649999900000001,0.5219359993934631,-11.78665542602539,-7.524975776672363,-46.9207763671875,-124.267578125,16.9525146484375
11.6699999,0.16519992053508759,-10.8720703125,-8.051700592041016,-95.916748046875,-83.7554931640625,-154.84619140625
11.6899999,-0.2801215946674347,-11.329362869262695,-8.69095230102539,-87.2039794921875,-82.8857421875,-147.3846435546875
11.709999900000001,-0.4572925269603729,-9.457097053527832,-8.892065048217773,4.08935546875,-74.7833251953125,-59.6160888671875
11.729999900000001,-0.43095630407333374,-7.304709434509277,-8.621520042419434,79.1015625,-35.7818603515625,-11.5509033203125
11.7499999,-0.35673606395721436,-5.652710437774658,-8.209717750549316,57.0526123046875,-34.7442626953125,-2.0751953125
11.7699999,-0.3471592366695404,-4.843470096588135,-7.2568254470825195,-54.443359375,-47.8973388671875,-17.4560546875
11.7899999,-0.5027823448181152,-5.013458251953125,-6.461950302124023,-87.1734619140625,-54.5654296875,16.2506103515625
11.809999900000001,-0.7637503147125244,-5.456385612487793,-5.846640586853027,-29.296875,-37.7044677734375,49.224853515625
11.8299999,-1.0989385843276978,-6.509834289550781,-5.559336185455322,22.0489501953125,-17.4407958984375,51.6510009765625
11.8499999,-1.4963760375976562,-7.383718013763428,-5.286397457122803,8.60595703125,-15.0909423828125,21.7132568359375
11.8699999,-1.9105730056762695,-8.288725852966309,-4.927267074584961,-31.8603515625,-21.8963623046875,31.9366455078125
11.889999900000001,-2.341529369354248,-8.75080680847168,-4.639962673187256,-10.7269287109375,-29.998779296875,62.2100830078125
11.9099999,-2.7748796939849854,-8.93037223815918,-4.477157115936279,60.394287109375,-15.7623291015625,60.7452392578125
11.9299999,-3.2537200450897217,-9.282320022583008,-4.613626480102539,68.9239501953125,1.2054443359375,42.4957275390625
11.9499999,-3.6990416049957275,-9.521739959716797,-4.853046894073486,7.26318359375,12.75634765625,25.390625
11.969999900000001,-4.050989151000977,-9.610325813293457,-5.140350818634033,-2.166748046875,19.7906494140625,31.9061279296875
11.9899999,-4.220977783203125,-9.524134635925293,-5.2049946784973145,46.7376708984375,40.3289794921875,39.5965576171875
12.0099999,-4.2329487800598145,-9.555258750915527,-5.0900726318359375,68.145751953125,57.830810546875,36.9720458984375
12.0299999,-4.14915132522583,-9.758766174316406,-4.572925090789795,58.5784912109375,68.0084228515625,11.962890625
12.049999900000001,-3.9887399673461914,-10.002974510192871,-3.711012601852417,31.2347412109375,72.0367431640625,-1.4495849609375
12.069999900000001,-3.804386615753174,-10.096348762512207,-2.765302896499634,18.98193359375,65.5364990234375,7.87353515625
12.0899999,-3.576937437057495,-9.938331604003906,-1.8363527059555054,29.4952392578125,64.788818359375,15.2130126953125
12.1099999,-3.3638534545898438,-9.624691009521484,-1.1252747774124146,48.2025146484375,65.8721923828125,9.0179443359375
12.129999900000001,-3.1938650608062744,-9.39245319366455,-0.730231523513794,49.652099609375,63.1866455078125,4.69970703125
12.149999900000001,-3.1196448802948,-9.14345645904541,-0.4596867263317108,32.71484375,62.957763671875,8.453369140625
12.1699999,-3.114856481552124,-8.882488250732422,-0.524330198764801,21.97265625,56.2744140625,14.923095703125
12.1899999,-3.1938650608062744,-8.71728801727295,-0.8427590131759644,33.0810546875,56.2896728515625,20.5230712890625
12.209999900000001,-3.3734302520751953,-8.954314231872559,-1.2976573705673218,42.205810546875,71.3043212890625,22.4456787109375
12.229999900000001,-3.603273630142212,-9.184157371520996,-1.8602946996688843,10.3607177734375,83.0230712890625,5.31005859375
12.2499999,-3.8714241981506348,-9.543288230895996,-2.3750481605529785,-6.04248046875,86.24267578125,0.0152587890625
12.2699999,-4.14915132522583,-9.63187313079834,-2.9305028915405273,15.13671875,95.1385498046875,8.1329345703125
12.289999900000002,-4.467580318450928,-9.775525093078613,-3.421314239501953,33.905029296875,121.002197265625,14.4500732421875
12.309999900000001,-4.793191909790039,-9.964667320251465,-3.6511576175689697,22.857666015625,148.0712890625,-0.2593994140625
12.3299999,-5.1331682205200195,-10.08437728881836,-3.794809579849243,-0.4730224609375,149.7344970703125,-23.9410400390625
12.3499999,-5.453991413116455,-10.11550235748291,-3.488351821899414,0.3814697265625,156.1431884765625,-14.8162841796875
12.3699999,-5.726930618286133,-9.86889934539795,-3.0526070594787598,26.8096923828125,177.2308349609375,-1.495361328125
12.389999900000001,-5.916072368621826,-9.591172218322754,-2.403778553009033,43.609619140625,189.697265625,-6.16455078125
12.4099999,-6.0405707359313965,-9.44991397857666,-1.6352397203445435,29.35791015625,188.9190673828125,-17.2119140625
12.4299999,-6.0621185302734375,-9.435548782348633,-0.7781155705451965,14.404296875,186.82861328125,-15.44189453125
12.4499999,-5.983109951019287,-9.481039047241211,-0.09576806426048279,19.3939208984375,185.4095458984375,-5.0201416015625
12.469999900000001,-5.856217384338379,-9.576807022094727,0.3064578175544739,38.3453369140625,186.737060546875,-1.434326171875
12.4899999,-5.7556610107421875,-9.725247383117676,0.47405192255973816,34.3780517578125,191.5740966796875,-8.1024169921875
12.5099999,-5.683835029602051,-9.907206535339355,0.4620809257030487,5.6915283203125,191.0400390625,-9.674072265625
12.5299999,-5.623979568481445,-10.031704902648926,0.31364041566848755,-4.4403076171875,183.258056640625,-4.1961669921875
12.549999900000001,-5.537788391113281,-9.904812812805176,0.1628057211637497,2.86865234375,185.4705810546875,-4.486083984375
12.569999900000001,-5.408501625061035,-9.770736694335938,-0.1388636976480484,3.9825439453125,185.5316162109375,2.5634765625
12.5899999,-5.216965675354004,-9.421183586120605,-0.15562310814857483,-16.357421875,191.9097900390625,3.5858154296875
12.6099999,-4.932055473327637,-9.208099365234375,-0.14844051003456116,-16.7236328125,179.840087890625,7.4005126953125
12.629999900000001,-4.496310710906982,-8.863334655761719,0.14604631066322327,17.51708984375,167.0074462890625,7.4005126953125
12.649999900000001,-3.914519786834717,-8.504204750061035,0.42377370595932007,33.447265625,161.5753173828125,6.591796875
12.6699999,-3.2585084438323975,-8.161833763122559,0.811634361743927,0.4425048828125,163.9862060546875,19.2413330078125
12.6899999,-2.628833532333374,-8.018181800842285,1.216254472732544,-22.1099853515625,154.2205810546875,31.3873291015625
12.709999900000001,-2.073378562927246,-7.920019149780273,1.7525556087493896,3.41796875,135.55908203125,25.0701904296875
12.729999900000001,-1.659181833267212,-7.999027729034424,2.183511972427368,16.357421875,110.1531982421875,25.7110595703125
12.7499999,-1.1324573755264282,-8.329427719116211,2.80361008644104,-27.52685546875,101.74560546875,46.3409423828125
12.7699999,-0.993593692779541,-8.631096839904785,3.1747114658355713,1.3885498046875,79.40673828125,39.1998291015625
12.789999900000002,-0.9145850539207458,-9.279925346374512,3.7852327823638916,34.2254638671875,46.3104248046875,36.1175537109375
12.809999900000001,-0.8690952062606812,-10.010157585144043,4.505887508392334,7.6141357421875,20.9808349609375,28.717041015625
12.8299999,-0.8475474119186401,-10.72602367401123,5.032611846923828,-42.8619384765625,-4.33349609375,16.357421875
12.8499999,-0.9385270476341248,-11.382035255432129,5.329493045806885,-45.5322265625,-20.9197998046875,14.404296875
12.8699999,-1.0989385843276978,-11.57596492767334,5.183446884155273,-20.7366943359375,-44.6624755859375,2.105712890625
12.889999900000001,-1.3479355573654175,-11.614272117614746,4.8051629066467285,-4.058837890625,-67.7490234375,-9.6435546875
12.9099999,-1.6424223184585571,-11.279084205627441,3.890577793121338,-4.9285888671875,-94.4061279296875,-18.3563232421875
12.9299999,-1.8770540952682495,-10.630255699157715,2.959233283996582,0.091552734375,-108.6883544921875,-25.3753662109375
12.9499999,-1.9823989868164062,-9.718064308166504,1.778891921043396,1.9378662109375,-121.917724609375,-22.705078125
12.969999900000001,-1.9512743949890137,-9.040505409240723,0.8834604024887085,-6.0272216796875,-133.1939697265625,-3.0975341796875
12.9899999,-1.764526605606079,-8.53293514251709,0.30885201692581177,-14.556884765625,-144.134521484375,-7.26318359375
13.0099999,-1.4891934394836426,-8.44195556640625,0.07422025501728058,2.5482177734375,-160.46142578125,-20.660400390625
13.0299999,-1.1683704853057861,-8.583212852478027,0.14604631066322327,29.0985107421875,-174.49951171875,-8.392333984375
13.049999900000001,-0.8882488012313843,-8.777143478393555,0.5554547905921936,41.6259765625,-183.0291748046875,9.8724365234375
13.069999900000001,-0.6967126727104187,-8.78193187713623,1.1875240802764893,37.04833984375,-198.1353759765625,7.8125
13.0899999,-0.6607996821403503,-8.705317497253418,2.0398597717285156,35.1409912109375,-210.2508544921875,6.9427490234375
13.1099999,-0.7852981686592102,-8.695740699768066,3.0334534645080566,34.4696044921875,-218.3990478515625,25.787353515625
13.129999900000001,-1.0342950820922852,-9.069235801696777,4.048594951629639,26.18408203125,-224.0447998046875,36.3616943359375
13.149999900000001,-1.2832920551300049,-9.57441234588623,4.977545261383057,-3.8604736328125,-233.245849609375,16.9830322265625
13.1699999,-1.479616641998291,-10.625467300415039,5.48272180557251,-24.3682861328125,-250.5035400390625,12.4053955078125
13.1899999,-1.558625340461731,-11.401188850402832,5.614402770996094,-11.1083984375,-248.8555908203125,9.8724365234375
13.209999900000001,-1.5969325304031372,-12.155362129211426,4.965574264526367,-18.463134765625,-251.0528564453125,9.033203125
13.229999900000001,-1.5969325304031372,-12.351686477661133,3.7205893993377686,-102.4017333984375,-252.960205078125,2.9754638671875
13.2499999,-1.6089035272598267,-12.370840072631836,1.3910311460494995,-154.7088623046875,-259.8114013671875,-0.1983642578125
13.2699999,-1.482010841369629,-11.858481407165527,-1.3958195447921753,-80.38330078125,-219.146728515625,-0.9765625
13.289999900000002,-1.237802267074585,-11.425130844116211,-4.1180267333984375,7.01904296875,-160.94970703125,4.2877197265625
13.309999900000001,-0.8690952062606812,-11.616666793823242,-6.289567947387695,0.79345703125,-138.2293701171875,-0.1678466796875
13.3299999,-0.33758243918418884,-11.379640579223633,-7.134721279144287,-89.53857421875,-122.406005859375,-53.5125732421875
13.3499999,0.17956513166427612,-11.705251693725586,-7.47230339050293,-94.2230224609375,-117.4774169921875,-43.3197021484375
13.3699999,0.7158663272857666,-11.128249168395996,-7.084442615509033,-3.387451171875,-87.921142578125,-19.8974609375
13.389999900000001,1.137245774269104,-10.488997459411621,-6.57926607131958,34.210205078125,-70.7855224609375,-5.9051513671875
13.4099999,1.357512354850769,-10.137049674987793,-6.0597243309021,0.9765625,-74.8748779296875,0.396728515625
13.4299999,1.3670891523361206,-10.249577522277832,-5.281609058380127,-60.150146484375,-64.7125244140625,-17.913818359375
13.4499999,1.1755530834197998,-10.218452453613281,-4.967968463897705,-56.1676025390625,-53.4210205078125,-46.32568359375
13.469999900000001,0.8906430602073669,-9.967061996459961,-4.6255974769592285,21.026611328125,-46.4630126953125,-28.472900390625
13.4899999,0.5195417404174805,-9.167398452758789,-4.525041103363037,35.58349609375,-42.17529296875,3.753662109375
13.5099999,0.11252748221158981,-8.485051155090332,-4.584896087646484,-6.16455078125,-46.9970703125,21.942138671875
13.5299999,-0.2777273952960968,-7.850587368011475,-4.398148536682129,-58.7921142578125,-29.2510986328125,11.9171142578125
13.549999900000001,-0.6512228846549988,-7.99184513092041,-4.240131378173828,-46.6156005859375,-26.2451171875,18.646240234375
13.569999900000001,-1.01753568649292,-8.197746276855469,-3.7900211811065674,18.798828125,-30.792236328125,20.69091796875
13.5899999,-1.4413094520568848,-8.51138687133789,-3.471592426300049,21.97265625,-33.8592529296875,17.1051025390625
13.6099999,-1.944091796875,-8.798690795898438,-3.203441858291626,-61.8743896484375,-22.9034423828125,24.8260498046875
13.629999900000001,-2.557007312774658,-9.265560150146484,-3.265691041946411,-80.902099609375,-13.3819580078125,36.041259765625
13.649999900000001,-3.160346269607544,-9.548076629638672,-3.5482068061828613,-17.303466796875,-13.7176513671875,16.845703125
13.6699999,-3.620033025741577,-9.586383819580078,-3.687070608139038,7.8887939453125,-7.01904296875,-2.3956298828125
13.6899999,-3.909731388092041,-9.351752281188965,-3.9384617805480957,3.448486328125,-4.669189453125,12.0086669921875
13.709999900000001,-4.062960147857666,-8.755595207214355,-3.890577793121338,-10.5743408203125,4.119873046875,30.7464599609375
13.729999900000001,-4.127603530883789,-8.425195693969727,-3.6607344150543213,5.31005859375,12.8326416015625,34.1796875
13.7499999,-4.197035789489746,-8.42040729522705,-3.201047658920288,33.9508056640625,13.1378173828125,15.7012939453125
13.7699999,-4.28322696685791,-8.429984092712402,-2.671929121017456,33.355712890625,13.7939453125,-9.124755859375
13.789999900000002,-4.414907932281494,-8.245630264282227,-2.2361843585968018,25.8026123046875,21.575927734375,2.5482177734375
13.809999900000001,-4.54419469833374,-8.152256965637207,-2.164358377456665,0.06103515625,34.2864990234375,44.097900390625
13.8299999,-4.733336925506592,-8.391676902770996,-2.030282974243164,-19.3023681640625,55.1605224609375,32.9742431640625
13.8499999,-4.843470096588135,-9.117119789123535,-1.9033904075622559,8.4991455078125,56.304931640625,-9.552001953125
13.8699999,-4.845864295959473,-9.758766174316406,-1.6304513216018677,30.9295654296875,47.698974609375,-31.73828125
13.889999900000001,-4.711789131164551,-10.160991668701172,-1.3479355573654175,10.0555419921875,51.513671875,-8.9569091796875
13.9099999,-4.477157115936279,-10.02452278137207,-1.170764684677124,-20.3399658203125,64.971923828125,5.31005859375
13.9299999,-4.240131378173828,-9.81143856048584,-1.113303780555725,-13.61083984375,70.25146484375,-11.505126953125
13.9499999,-4.005499362945557,-9.660603523254395,-1.0821791887283325,27.7099609375,68.2220458984375,-27.740478515625
13.969999900000001,-3.8115692138671875,-9.59596061706543,-1.0007762908935547,45.928955078125,68.328857421875,-23.468017578125
13.9899999,-3.6296098232269287,-9.445125579833984,-0.8451532125473022,22.186279296875,77.6214599609375,-11.260986328125
14.0099999,-3.4548330307006836,-9.2033109664917,-0.6871358752250671,-2.5177001953125,76.904296875,-13.4124755859375
14.0299999,-3.318363666534424,-9.023746490478516,-0.6416460275650024,2.74658203125,71.2738037109375,-10.650634765625
14.049999900000001,-3.2345664501190186,-8.932766914367676,-0.7589619159698486,11.6119384765625,79.6356201171875,-3.35693359375
14.069999900000001,-3.2609026432037354,-9.026140213012695,-0.993593692779541,2.25830078125,96.3592529296875,-0.6561279296875
14.0899999,-3.4117374420166016,-9.38048267364502,-1.4077905416488647,-2.3040771484375,100.6622314453125,-9.7808837890625
14.1099999,-3.6511576175689697,-9.68933391571045,-1.845929503440857,9.368896484375,101.3641357421875,-25.543212890625
14.129999900000001,-3.950432777404785,-9.959878921508789,-2.3774423599243164,27.8472900390625,115.8905029296875,-26.6571044921875
14.149999900000001,-4.252102375030518,-10.232817649841309,-2.896984100341797,25.5279541015625,142.02880859375,-20.56884765625
14.1699999,-4.546588897705078,-10.448296546936035,-3.1747114658355713,11.0321044921875,166.1529541015625,-35.2325439453125
14.1899999,-4.793191909790039,-10.69489860534668,-3.066972494125366,15.7318115234375,176.239013671875,-55.389404296875
14.209999900000001,-4.965574264526367,-10.72602367401123,-2.5953147411346436,24.322509765625,171.3714599609375,-52.3223876953125
14.229999900000001,-5.080495834350586,-10.577583312988281,-2.0853497982025146,17.608642578125,175.72021484375,-37.5213623046875
14.2499999,-5.145139217376709,-10.20887565612793,-1.5394717454910278,-6.500244140625,190.521240234375,-31.951904296875
14.2699999,-5.17626428604126,-9.560047149658203,-0.8355764150619507,26.5350341796875,170.5780029296875,-25.9552001953125
14.289999900000002,-5.16429328918457,-9.279925346374512,-0.5578489899635315,35.7818603515625,174.1485595703125,-13.7786865234375
14.309999900000001,-5.104437828063965,-8.920795440673828,-0.4620809257030487,-1.1444091796875,178.0548095703125,-5.5694580078125
14.3299999,-4.941632270812988,-8.619126319885254,-0.4405331015586853,-46.173095703125,178.6956787109375,6.0272216796875
14.3499999,-4.709394931793213,-8.485051155090332,-0.5410895943641663,-43.1365966796875,177.001953125,19.1497802734375
14.3699999,-4.402936935424805,-8.504204750061035,-0.5506663918495178,-3.0364990234375,185.882568359375,21.8505859375
14.389999900000001,-4.0533833503723145,-8.667010307312012,-0.4165911078453064,-7.5836181640625,191.864013671875,17.059326171875
14.4099999,-3.6750996112823486,-8.96149730682373,0.014365210197865963,-23.040771484375,184.4024658203125,22.5067138671875
14.4299999,-3.2585084438323975,-9.425971984863281,0.768538773059845,-24.0478515625,160.3240966796875,30.3802490234375
14.4499999,-2.7509377002716064,-9.801861763000488,1.6065093278884888,-6.6375732421875,144.0887451171875,15.4876708984375
14.469999900000001,-2.145204782485962,-9.976638793945312,2.2840683460235596,-1.2969970703125,130.2642822265625,0.0762939453125
14.4899999,-1.4987702369689941,-10.089165687561035,2.7676970958709717,-13.397216796875,126.3275146484375,16.66259765625
14.5099999,-0.8834604024887085,-9.95748519897461,3.069366693496704,-18.951416015625,118.65234375,21.0418701171875
14.5299999,-0.2801215946674347,-9.818621635437012,3.9025487899780273,-21.2554931640625,105.28564453125,7.62939453125
14.549999900000001,0.22266076505184174,-9.603142738342285,4.323928356170654,-15.5029296875,44.00634765625,1.6326904296875
14.569999900000001,0.6033388376235962,-9.478644371032715,4.9152960777282715,-19.6075439453125,15.0299072265625,13.397216796875
14.5899999,0.8810662031173706,-9.346963882446289,4.924872875213623,-17.242431640625,16.54052734375,20.263671875
14.6099999,1.0079588890075684,-9.188945770263672,4.843470096588135,4.058837890625,9.521484375,4.119873046875
14.629999900000001,0.9911994934082031,-9.105149269104004,5.023035049438477,33.203125,-20.9503173828125,1.3885498046875
14.649999900000001,0.8595184087753296,-8.913613319396973,5.298368453979492,37.8875732421875,-83.4808349609375,19.10400390625
14.6699999,0.667982280254364,-8.769960403442383,5.65031623840332,-22.0184326171875,-122.406005859375,29.35791015625
14.6899999,0.40462008118629456,-8.734047889709473,5.614402770996094,-69.8089599609375,-141.632080078125,33.3251953125
14.709999900000001,0.10055647045373917,-9.081207275390625,4.941632270812988,-71.35009765625,-177.4749755859375,36.4990234375
14.729999900000001,-0.2346317619085312,-9.514557838439941,3.866635799407959,-52.0477294921875,-198.944091796875,28.6407470703125
14.7499999,-0.5578489899635315,-9.983820915222168,2.7892448902130127,-12.542724609375,-197.69287109375,21.087646484375
14.7699999,-0.8236053586006165,-10.359710693359375,1.86508309841156,9.3231201171875,-208.4197998046875,24.90234375
14.789999900000002,-0.9720458984375,-10.572794914245605,1.3263877630233765,10.7269287109375,-228.4698486328125,30.6549072265625
14.809999900000001,-0.9792284965515137,-11.176133155822754,1.1109095811843872,1.9378662109375,-235.8551025390625,40.1153564453125
14.8299999,-0.8427590131759644,-11.870451927185059,0.9959878921508789,0.946044921875,-228.21044921875,19.683837890625
14.8499999,-0.5793967843055725,-12.710816383361816,0.8020575642585754,34.66796875,-226.9134521484375,-6.378173828125
14.8699999,-0.2322375625371933,-13.153743743896484,0.706289529800415,63.5223388671875,-222.3968505859375,-13.7176513671875
14.889999900000001,0.10534487664699554,-13.141773223876953,0.5554547905921936,34.9578857421875,-216.827392578125,-2.5787353515625
14.9099999,0.33279404044151306,-12.749124526977539,0.3495534360408783,-48.4619140625,-211.822509765625,0.2593994140625
14.9299999,0.42377370595932007,-12.172121047973633,-0.33518823981285095,-87.5701904296875,-214.90478515625,-18.2037353515625
14.9499999,0.4668693244457245,-11.384428977966309,-1.53707754611969,-11.0626220703125,-199.7222900390625,-45.2880859375
14.969999900000001,0.5267243981361389,-10.153809547424316,-2.7461493015289307,43.060302734375,-152.4810791015625,-37.811279296875
14.9899999,0.5434837937355042,-9.373299598693848,-4.3406877517700195,-1.983642578125,-138.7786865234375,8.8348388671875
15.0099999,0.5817909836769104,-9.133879661560059,-4.922478675842285,-88.7603759765625,-113.3880615234375,19.561767578125
15.0299999,0.5386953949928284,-9.387664794921875,-5.621585369110107,-104.736328125,-105.89599609375,-52.1392822265625
15.049999900000001,0.5147533416748047,-10.20648193359375,-5.631162166595459,23.0712890625,-92.9107666015625,-54.62646484375
15.069999900000001,0.5626373887062073,-10.235212326049805,-5.274426460266113,78.4759521484375,-62.9425048828125,-39.24560546875
15.0899999,0.5841852426528931,-10.38604736328125,-4.733336925506592,25.8636474609375,-74.1424560546875,-1.52587890625
15.1099999,0.5578489899635315,-10.445901870727539,-3.928884983062744,-54.595947265625,-83.43505859375,-4.5318603515625
15.129999900000001,0.4189853072166443,-10.730812072753906,-3.1699230670928955,-68.878173828125,-69.1680908203125,-42.6025390625
15.149999900000001,0.2801215946674347,-10.946290016174316,-2.806004285812378,-1.495361328125,-70.12939453125,-44.158935546875
15.1699999,0.22266076505184174,-10.448296546936035,-2.47560453414917,51.727294921875,-63.9495849609375,-28.2745361328125
15.1899999,0.15562310814857483,-9.832986831665039,-2.315192937850952,33.0963134765625,-65.8111572265625,5.9967041015625
15.209999900000001,0.05985504388809204,-9.27034854888916,-2.2433669567108154,-31.6009521484375,-68.17626953125,12.8173828125
15.229999900000001,-0.13407529890537262,-8.96389102935791,-2.169146776199341,-48.065185546875,-58.6090087890625,-8.148193359375
15.2499999,-0.3878606855869293,-9.014169692993164,-2.2242133617401123,5.2947998046875,-56.0302734375,-4.791259765625
15.2699999,-0.6512228846549988,-8.87291145324707,-2.2409727573394775,22.0794677734375,-54.3975830078125,14.1143798828125
15.289999900000002,-0.9696516990661621,-8.918401718139648,-2.31758713722229,-19.622802734375,-57.12890625,35.09521484375
15.309999900000001,-1.3958195447921753,-9.289502143859863,-2.319981336593628,-62.31689453125,-48.2330322265625,32.928466796875
15.3299999,-1.8411411046981812,-9.672574996948242,-2.564189910888672,-47.698974609375,-43.4112548828125,-2.7313232421875
15.3499999,-2.3247697353363037,-9.938331604003906,-2.762908697128296,-2.44140625,-36.712646484375,-11.3067626953125
15.3699999,-2.715024709701538,-9.658209800720215,-3.0190882682800293,-21.6522216796875,-30.1971435546875,10.1470947265625
15.389999900000001,-3.0573954582214355,-9.279925346374512,-3.4524388313293457,-50.4913330078125,-30.792236328125,28.8848876953125
15.4099999,-3.375824451446533,-8.822632789611816,-3.7876269817352295,-47.8668212890625,-14.0228271484375,10.1165771484375
15.4299999,-3.663128614425659,-8.556877136230469,-4.343081951141357,-2.899169921875,-0.9765625,-10.284423828125
15.4499999,-3.9169139862060547,-8.334216117858887,-4.788403511047363,25.69580078125,10.2081298828125,-1.77001953125
15.469999900000001,-4.144362926483154,-7.8529815673828125,-5.243301868438721,19.8211669921875,21.3623046875,13.1988525390625
15.4899999,-4.326322555541992,-7.848193168640137,-5.659893035888672,18.585205078125,42.1295166015625,31.768798828125
15.5099999,-4.481945514678955,-8.027758598327637,-5.92325496673584,5.0201416015625,67.3980712890625,11.199951171875
15.5299999,-4.580107688903809,-8.564059257507324,-5.784391403198242,22.5982666015625,92.2393798828125,-9.765625
15.549999900000001,-4.55616569519043,-9.20091724395752,-5.310339450836182,54.351806640625,93.841552734375,-6.683349609375
15.569999900000001,-4.467580318450928,-9.500192642211914,-4.4292731285095215,39.7491455078125,90.545654296875,-3.3416748046875
15.5899999,-4.316745758056641,-9.725247383117676,-3.4739866256713867,15.8843994140625,103.2257080078125,-6.7596435546875
15.6099999,-4.1395745277404785,-9.710882186889648,-2.5785553455352783,-0.5340576171875,110.5194091796875,-12.8936767578125
15.629999900000001,-3.957615375518799,-9.59596061706543,-1.8962076902389526,-1.6021728515625,106.38427734375,-11.1541748046875
15.649999900000001,-3.7852327823638916,-9.339780807495117,-1.460463047027588,11.9781494140625,102.6611328125,-2.044677734375
15.6699999,-3.6583402156829834,-9.033323287963867,-1.235408067703247,19.775390625,110.4278564453125,1.861572265625
15.6899999,-3.627215623855591,-8.927978515625,-1.3311761617660522,15.4876708984375,117.4468994140625,5.18798828125
15.709999900000001,-3.7229835987091064,-9.006986618041992,-1.5682021379470825,0.213623046875,126.5411376953125,2.349853515625
15.729999900000001,-3.9600095748901367,-9.284713745117188,-1.8411411046981812,1.0528564453125,134.58251953125,-2.0904541015625
15.7499999,-4.28322696685791,-9.627084732055664,-2.1092917919158936,29.4952392578125,138.916015625,-5.645751953125
15.7699999,-4.95120906829834,-9.909601211547852,-2.2577321529388428,35.003662109375,159.5611572265625,-12.969970703125
15.789999900000002,-5.250484466552734,-9.852140426635742,-2.140416383743286,13.0157470703125,168.2586669921875,-9.674072265625
15.809999900000001,-5.518634796142578,-9.799467086791992,-1.9057846069335938,12.6800537109375,178.009033203125,-6.4697265625
15.8299999,-5.772420406341553,-9.78989028930664,-1.6687586307525635,21.66748046875,181.549072265625,-9.185791015625
15.8499999,-6.007051944732666,-9.799467086791992,-1.4676456451416016,33.3251953125,188.262939453125,-15.350341796875
15.869999900000002,-6.191405773162842,-9.751583099365234,-1.2976573705673218,37.078857421875,198.3184814453125,-12.451171875
15.889999900000001,-6.320692539215088,-9.66539192199707,-1.0295066833496094,24.9481201171875,206.97021484375,-4.913330078125
15.9099999,-6.378153324127197,-9.651026725769043,-0.6536170840263367,0.3814697265625,203.30810546875,1.2359619140625
15.9299999,-6.296750545501709,-9.564835548400879,-0.19153612852096558,-9.58251953125,197.0672607421875,-8.23974609375
15.9499999,-6.13633918762207,-9.612719535827637,0.30885201692581177,15.8538818359375,198.18115234375,-6.53076171875
15.969999900000001,-5.863399982452393,-9.469067573547363,0.7829039692878723,31.18896484375,199.9053955078125,-3.4332275390625
15.9899999,-5.530605792999268,-9.315838813781738,1.192312479019165,11.138916015625,194.305419921875,-1.861572265625
16.0099999,-5.147533416748047,-9.040505409240723,1.5945383310317993,-13.8702392578125,186.0809326171875,1.5411376953125
16.0299999,-4.7405195236206055,-8.796297073364258,1.9704279899597168,-15.869140625,184.478759765625,9.6893310546875
16.0499999,-4.273650169372559,-8.731653213500977,2.2242133617401123,5.55419921875,180.755615234375,24.0325927734375
16.0699999,-3.8115692138671875,-8.698134422302246,2.6862943172454834,24.9786376953125,184.02099609375,14.9078369140625
16.089999900000002,-3.313575267791748,-8.856152534484863,3.5266590118408203,44.5556640625,171.2646484375,7.4310302734375
16.109999900000002,-2.762908697128296,-8.932766914367676,4.733336925506592,43.243408203125,127.3193359375,7.4615478515625
16.1299999,-2.188300371170044,-9.01895809173584,5.796362400054932,13.702392578125,64.63623046875,14.9993896484375
16.1499999,-1.6376339197158813,-8.98543930053711,6.737283706665039,-20.2789306640625,52.7496337890625,13.2293701171875
16.1699999,-1.2066776752471924,-9.220070838928223,6.950367450714111,-6.103515625,28.4423828125,12.20703125
16.1899999,-0.933738648891449,-9.418789863586426,7.050923824310303,35.8428955078125,-2.6092529296875,1.5869140625
16.2099999,-0.7829039692878723,-9.703699111938477,6.828263282775879,53.4515380859375,-51.849365234375,1.3580322265625
16.2299999,-0.706289529800415,-10.077195167541504,6.567295074462891,34.6527099609375,-76.84326171875,6.6070556640625
16.249999900000002,-0.6224924325942993,-10.086771965026855,6.169857978820801,-3.1585693359375,-90.1031494140625,-1.129150390625
16.269999900000002,-0.5171475410461426,-9.873687744140625,5.439626216888428,-24.1241455078125,-119.0643310546875,-2.6702880859375
16.2899999,-0.395043283700943,-9.402029991149902,4.331110954284668,-42.388916015625,-149.0936279296875,12.8021240234375
16.3099999,-0.2801215946674347,-8.987833023071289,3.095702886581421,-56.121826171875,-144.4854736328125,24.566650390625
16.3299999,-0.12928688526153564,-8.743624687194824,1.886630892753601,-50.079345703125,-147.0489501953125,19.3634033203125
16.3499999,0.05746084079146385,-8.904036521911621,1.115697979927063,-43.365478515625,-163.818359375,16.29638671875
16.3699999,0.2777273952960968,-9.287108421325684,1.1994950771331787,-41.351318359375,-176.7578125,27.557373046875
16.3899999,0.47405192255973816,-9.425971984863281,1.8555063009262085,-46.4324951171875,-201.1260986328125,27.2674560546875
16.4099999,0.5578489899635315,-9.569623947143555,2.5115175247192383,-41.748046875,-228.4088134765625,29.693603515625
16.429999900000002,0.49320554733276367,-9.66539192199707,3.251325845718384,-26.79443359375,-218.2769775390625,34.5306396484375
16.4499999,0.2849099934101105,-10.0580415725708,3.4811692237854004,-17.3492431640625,-214.752197265625,34.8052978515625
16.4699999,0.07422025501728058,-10.522516250610352,3.2776620388031006,-33.3251953125,-227.23388671875,20.0042724609375
16.4899999,-0.09816227108240128,-11.075576782226562,2.8227639198303223,-27.1148681640625,-222.4884033203125,9.0789794921875
16.5099999,-0.14604631066322327,-11.453861236572266,2.0374655723571777,21.8658447265625,-212.5091552734375,4.791259765625
16.5299999,-0.05267243832349777,-11.224017143249512,1.1228805780410767,39.581298828125,-202.056884765625,-11.474609375
16.5499999,0.11971008777618408,-10.771512985229492,0.38067805767059326,-5.645751953125,-186.8743896484375,-3.7384033203125
16.5699999,0.2777273952960968,-10.192116737365723,-0.38067805767059326,-82.550048828125,-179.2449951171875,14.923095703125
16.589999900000002,0.35673606395721436,-9.6989107131958,-1.3766659498214722,-98.9227294921875,-175.2471923828125,13.8092041015625
16.609999900000002,0.3256114423274994,-9.713275909423828,-2.3918075561523438,-30.3802490234375,-152.2369384765625,5.1422119140625
16.6299999,0.20350714027881622,-10.122684478759766,-3.7493197917938232,-9.307861328125,-127.8533935546875,-7.110595703125
16.6499999,0.13407529890537262,-10.663774490356445,-4.716577529907227,-68.78662109375,-101.3946533203125,-15.3656005859375
16.6699999,0.09576806426048279,-11.197681427001953,-5.65031623840332,-95.6878662109375,-87.9669189453125,-26.519775390625
16.6899999,0.14604631066322327,-11.30302619934082,-6.289567947387695,-14.495849609375,-79.3609619140625,-29.8919677734375
16.7099999,0.1867477297782898,-11.348516464233398,-6.768408298492432,22.735595703125,-54.443359375,-22.6287841796875
16.7299999,0.23942017555236816,-11.202469825744629,-7.0317702293396,-15.0146484375,-33.4014892578125,-19.012451171875
16.749999900000002,0.2825157940387726,-10.989385604858398,-6.943184852600098,-42.236328125,-19.6533203125,-30.3192138671875
16.769999900000002,0.3016694188117981,-10.699687004089355,-6.478709697723389,-40.008544921875,-11.5203857421875,-21.17919921875
16.7899999,0.2753331959247589,-10.316615104675293,-5.853823184967041,-3.5858154296875,-8.8653564453125,-8.941650390625
16.8099999,0.1628057211637497,-9.947908401489258,-5.066130638122559,-4.9285888671875,1.8157958984375,-5.3253173828125
16.8299999,-0.023942016065120697,-9.66539192199707,-4.256890773773193,-21.9268798828125,5.4779052734375,-9.2315673828125
16.8499999,-0.24181437492370605,-9.653421401977539,-3.337517261505127,-21.209716796875,3.9520263671875,-2.6397705078125
16.8699999,-0.42616790533065796,-9.514557838439941,-2.3487119674682617,6.256103515625,-4.7454833984375,-4.9591064453125
16.8899999,-0.6105214357376099,-9.402029991149902,-1.5298948287963867,25.3753662109375,-16.143798828125,-3.5247802734375
16.9099999,-0.8188169598579407,-9.169792175292969,-0.9361328482627869,-14.3890380859375,-19.1650390625,2.532958984375
16.929999900000002,-1.0989385843276978,-8.951920509338379,-0.5530605912208557,-46.8292236328125,-12.237548828125,10.5743408203125
16.9499999,-1.4532804489135742,-9.119514465332031,-0.5650315880775452,1.0528564453125,-26.336669921875,10.6048583984375
16.9699999,-1.8411411046981812,-9.20091724395752,-0.6009446382522583,25.1617431640625,-29.3121337890625,-15.106201171875
16.9899999,-2.207453966140747,-9.181763648986816,-0.8164227604866028,-10.19287109375,-25.45166015625,-26.4129638671875
17.0099999,-2.5043349266052246,-8.959102630615234,-1.0055646896362305,-45.0897216796875,-21.4691162109375,0.30517578125
17.0299999,-2.7246015071868896,-8.542511940002441,-1.3742717504501343,-26.824951171875,-26.092529296875,14.46533203125
17.0499999,-2.9161376953125,-8.374917984008789,-1.7693150043487549,-15.625,-19.256591796875,3.875732421875
17.0699999,-3.0885202884674072,-8.427590370178223,-2.255337953567505,-33.1878662109375,-4.1656494140625,-13.7176513671875
17.089999900000002,-3.270479440689087,-8.597578048706055,-2.647987127304077,-23.3001708984375,0.335693359375,-17.822265625
17.109999900000002,-3.4404678344726562,-8.540117263793945,-3.0550012588500977,-8.026123046875,-5.035400390625,-9.735107421875
17.1299999,-3.5386300086975098,-8.446743965148926,-3.248931646347046,-20.3857421875,7.415771484375,5.4473876953125
17.1499999,-3.5697548389434814,-8.513781547546387,-3.3949780464172363,-17.8680419921875,18.1427001953125,12.2528076171875
17.1699999,-3.5194764137268066,-8.877699851989746,-3.359065055847168,-6.0882568359375,25.0396728515625,2.2125244140625
17.1899999,-3.3901896476745605,-9.375694274902344,-3.002328872680664,-11.9476318359375,31.341552734375,-11.3525390625
17.2099999,-3.1890766620635986,-9.84495735168457,-2.477998733520508,-14.9993896484375,26.2451171875,-8.8958740234375
17.2299999,-2.9233202934265137,-10.089165687561035,-1.920149803161621,-15.045166015625,17.5323486328125,-3.7841796875
17.249999900000002,-2.564189910888672,-10.160991668701172,-1.3527239561080933,-19.6075439453125,22.6898193359375,-5.7830810546875
17.269999900000002,-2.1715409755706787,-9.99339771270752,-1.1683704853057861,-20.355224609375,14.7705078125,-13.9312744140625
17.2899999,-1.4915876388549805,-9.524134635925293,-1.1420341730117798,-25.8636474609375,21.0418701171875,1.5716552734375
17.3099999,-1.2737152576446533,-9.27034854888916,-1.436521053314209,-18.6004638671875,7.843017578125,1.190185546875
17.3299999,-1.1228805780410767,-9.184157371520996,-1.6208745241165161,3.72314453125,13.4735107421875,0.244140625
17.3499999,-1.0247182846069336,-9.2033109664917,-1.824381709098816,19.3328857421875,15.80810546875,-0.18310546875
17.3699999,-0.9361328482627869,-9.210494041442871,-1.9560627937316895,18.2342529296875,13.0462646484375,-2.62451171875
17.3899999,-0.8858546018600464,-9.23682975769043,-2.0039467811584473,13.336181640625,11.8560791015625,-0.335693359375
17.409999900000003,-0.8451532125473022,-9.229647636413574,-1.920149803161621,14.8773193359375,17.2576904296875,4.4403076171875
17.429999900000002,-0.8307880163192749,-9.308655738830566,-1.7956513166427612,18.707275390625,16.29638671875,5.6304931640625
17.4499999,-0.849941611289978,-9.44752025604248,-1.5729905366897583,10.101318359375,12.9852294921875,1.3580322265625
17.4699999,-0.8930372595787048,-9.655815124511719,-1.2761094570159912,-0.0152587890625,10.2386474609375,-3.8604736328125
17.4899999,-0.9217676520347595,-9.801861763000488,-1.1061211824417114,-5.8746337890625,3.8604736328125,-5.8746337890625
17.5099999,-0.9145850539207458,-9.830592155456543,-1.0342950820922852,-14.0533447265625,2.0751953125,-6.40869140625
17.5299999,-0.8331822156906128,-9.770736694335938,-1.1851298809051514,-13.275146484375,0.4119873046875,-6.927490234375
17.5499999,-0.26096799969673157,-9.560047149658203,-1.5658079385757446,-1.9989013671875,-3.0364990234375,-11.3067626953125
17.5699999,0,-9.220070838928223,-1.7525556087493896,21.3775634765625,2.3345947265625,-2.716064453125
17.589999900000002,0.3878606855869293,-9.691728591918945,-1.86508309841156,7.4920654296875,18.035888671875,43.4112548828125
17.609999900000002,0.26575639843940735,-9.907206535339355,-1.7932571172714233,-30.2276611328125,-12.298583984375,1.983642578125
17.6299999,-0.2106897532939911,-10.675745010375977,-1.7501614093780518,-17.578125,-12.847900390625,-8.4991455078125
17.6499999,-0.6847416758537292,-10.96304988861084,-2.0877439975738525,-13.641357421875,-8.5296630859375,-5.828857421875
17.6699999,-1.0031704902648926,-10.78348445892334,-2.6216509342193604,-10.43701171875,0.6103515625,-4.08935546875
17.6899999,-1.0845733880996704,-10.32858657836914,-3.19865345954895,-6.4239501953125,8.4381103515625,-0.823974609375
17.7099999,-0.9768342971801758,-9.888052940368652,-3.488351821899414,0.091552734375,6.7596435546875,-5.126953125
17.7299999,-0.7996633648872375,-9.5408935546875,-3.4955344200134277,1.8157958984375,0.8544921875,-9.7808837890625
17.749999900000002,-0.6416460275650024,-9.399636268615723,-3.337517261505127,-6.591796875,-0.579833984375,-6.072998046875
17.769999900000002,-0.5363011956214905,-9.366117477416992,-3.203441858291626,-12.420654296875,1.495361328125,-0.1220703125
17.7899999,-0.4884171485900879,-9.421183586120605,-3.1890766620635986,-9.033203125,4.3182373046875,-2.4566650390625
17.8099999,-0.47405192255973816,-9.521739959716797,-3.179499864578247,-2.38037109375,7.01904296875,-6.195068359375
17.8299999,-0.4668693244457245,-9.564835548400879,-3.179499864578247,-0.1983642578125,6.8817138671875,-7.598876953125
17.8499999,-0.45010992884635925,-9.457097053527832,-3.093308687210083,-1.861572265625,6.195068359375,-7.26318359375
17.8699999,-0.42377370595932007,-9.334992408752441,-2.9496564865112305,-2.1209716796875,6.6375732421875,-1.89208984375
17.8899999,-0.37828385829925537,-9.169792175292969,-2.7988216876983643,-1.2054443359375,5.3558349609375,-1.068115234375
17.909999900000003,-0.33758243918418884,-9.129091262817383,-2.6575639247894287,0.8087158203125,3.7384033203125,-1.434326171875
17.929999900000002,-0.2968810200691223,-9.14585018157959,-2.5450363159179688,1.251220703125,3.90625,-1.28173828125
17.9499999,-0.2849099934101105,-9.289502143859863,-2.4420857429504395,0.457763671875,3.6163330078125,-0.579833984375
17.9699999,-0.2992752194404602,-9.423578262329102,-2.3989901542663574,-2.8533935546875,0.9002685546875,-2.593994140625
17.9899999,-0.33279404044151306,-9.586383819580078,-2.4013843536376953,-3.5858154296875,-0.762939453125,-4.058837890625
18.0099999,-0.363918662071228,-9.674968719482422,-2.4827871322631836,-2.899169921875,-0.30517578125,-4.5166015625
18.0299999,-0.3758896589279175,-9.677363395690918,-2.5977089405059814,-1.220703125,0.2288818359375,-4.2724609375
18.0499999,-0.35673606395721436,-9.605537414550781,-2.7485435009002686,-2.3345947265625,0.152587890625,-3.662109375
18.0699999,-0.31124621629714966,-9.495404243469238,-2.8395233154296875,-4.0130615234375,1.129150390625,-2.86865234375
18.089999900000002,-0.2537853717803955,-9.375694274902344,-2.9328970909118652,-4.150390625,1.0986328125,-2.3651123046875
18.109999900000002,-0.19871874153614044,-9.296685218811035,-2.9664158821105957,-3.173828125,1.983642578125,-0.9613037109375
18.1299999,-0.1604115068912506,-9.255983352661133,-2.9688100814819336,-2.3345947265625,2.593994140625,-0.946044921875
18.1499999,-0.14365209639072418,-9.241618156433105,-2.940079689025879,-1.5106201171875,1.8310546875,-1.89208984375
18.1699999,-0.14365209639072418,-9.26795482635498,-2.8874073028564453,-1.495361328125,1.495361328125,-0.8392333984375
18.1899999,-0.15801730751991272,-9.318233489990234,-2.8131868839263916,-1.52587890625,1.983642578125,0.1068115234375
18.2099999,-0.16998831927776337,-9.373299598693848,-2.7700912952423096,-1.40380859375,0.518798828125,-0.9918212890625
18.2299999,-0.1867477297782898,-9.440337181091309,-2.7222073078155518,-1.3580322265625,0.091552734375,-1.953125
18.249999900000002,-0.2059013396501541,-9.488221168518066,-2.7006595134735107,-2.349853515625,-0.06103515625,-1.89208984375
18.269999900000002,-0.22505496442317963,-9.512163162231445,-2.7054479122161865,-3.326416015625,-0.5035400390625,-1.5411376953125
18.2899999,-0.24420857429504395,-9.50737476348877,-2.7293899059295654,-4.6844482421875,-0.6103515625,-2.227783203125
18.3099999,-0.2537853717803955,-9.50737476348877,-2.801215887069702,-3.509521484375,-1.3885498046875,-1.8768310546875
18.3299999,-0.2513911724090576,-9.497797966003418,-2.8658595085144043,-3.60107421875,-0.3204345703125,-1.28173828125
18.3499999,-0.24181437492370605,-9.478644371032715,-2.959233283996582,-3.173828125,-0.244140625,-2.349853515625
18.3699999,-0.22026655077934265,-9.437943458557129,-3.023876667022705,-2.349853515625,0.030517578125,-2.9449462890625
18.3899999,-0.19632454216480255,-9.39245319366455,-3.0789434909820557,-1.312255859375,-0.1220703125,-2.2430419921875
18.409999900000003,-0.16759411990642548,-9.308655738830566,-3.114856481552124,-1.190185546875,0.5950927734375,-2.0751953125
18.429999900000002,-0.1412578970193863,-9.255983352661133,-3.112462282180786,-2.0904541015625,1.953125,-1.007080078125
18.4499999,-0.12449848651885986,-9.224859237670898,-3.0789434909820557,-1.1444091796875,1.7242431640625,0.152587890625
18.4699999,-0.1149216815829277,-9.217676162719727,-3.0095114707946777,0.732421875,0.244140625,-0.6866455078125
18.4899999,-0.1173158809542656,-9.23443603515625,-2.935291290283203,0.8392333984375,-0.396728515625,-0.9613037109375
18.5099999,-0.11971008777618408,-9.229647636413574,-2.8874073028564453,-1.068115234375,-0.0457763671875,0.030517578125
18.5299999,-0.12449848651885986,-9.241618156433105,-2.889801502227783,-2.2125244140625,0.1373291015625,2.0599365234375
18.5499999,-0.13407529890537262,-9.241618156433105,-2.9328970909118652,-2.227783203125,0.42724609375,2.5482177734375
18.5699999,-0.15562310814857483,-9.301473617553711,-2.9927520751953125,-1.64794921875,1.0528564453125,2.7618408203125
18.589999900000002,-0.181959331035614,-9.373299598693848,-3.064578056335449,-0.9002685546875,1.0528564453125,1.6021728515625
18.609999900000002,-0.2082955539226532,-9.423578262329102,-3.1268274784088135,1.678466796875,0.6561279296875,-0.2593994140625
18.6299999,-0.22505496442317963,-9.461885452270508,-3.1723172664642334,2.7923583984375,1.739501953125,0.946044921875
18.6499999,-0.2298433631658554,-9.44991397857666,-3.1938650608062744,1.6632080078125,2.8533935546875,1.8157958984375
18.6699999,-0.22744916379451752,-9.437943458557129,-3.1723172664642334,-0.1373291015625,3.570556640625,1.5106201171875
18.6899999,-0.22026655077934265,-9.445125579833984,-3.117250680923462,-0.06103515625,3.1890869140625,0.6256103515625
18.7099999,-0.2082955539226532,-9.41400146484375,-3.043030261993408,1.434326171875,2.3651123046875,-0.9002685546875
18.7299999,-0.19632454216480255,-9.397241592407227,-2.9712042808532715,1.7242431640625,2.74658203125,1.2054443359375
18.749999900000002,-0.17956513166427612,-9.363722801208496,-2.9065608978271484,0.5035400390625,3.0670166015625,2.5482177734375
18.769999900000002,-0.16759411990642548,-9.327810287475586,-2.868253707885742,-0.1220703125,2.3040771484375,1.0223388671875
18.7899999,-0.1628057211637497,-9.32541561126709,-2.8419175148010254,0.1678466796875,2.13623046875,1.0223388671875
18.8099999,-0.181959331035614,-9.366117477416992,-2.849100112915039,1.8768310546875,1.2359619140625,0.91552734375
18.8299999,-0.19632454216480255,-9.399636268615723,-2.8610711097717285,1.7547607421875,1.4495849609375,0.4119873046875
18.8499999,-0.21787235140800476,-9.435548782348633,-2.896984100341797,1.7852783203125,1.2359619140625,1.373291015625
18.8699999,-0.2322375625371933,-9.466673851013184,-2.920926094055176,1.4190673828125,1.8157958984375,1.8463134765625
18.8899999,-0.24660277366638184,-9.500192642211914,-2.956839084625244,0.1678466796875,1.77001953125,0.5035400390625
18.909999900000003,-0.2537853717803955,-9.519346237182617,-2.978386878967285,0.6103515625,1.9989013671875,-1.129150390625
18.929999900000002,-0.2561795711517334,-9.512163162231445,-2.985569477081299,1.3580322265625,2.3040771484375,-1.068115234375
18.9499999,-0.24660277366638184,-9.478644371032715,-2.9879636764526367,1.40380859375,1.9683837890625,-0.06103515625
18.9699999,-0.2298433631658554,-9.433155059814453,-2.9664158821105957,0.518798828125,2.288818359375,0.3204345703125
18.9899999,-0.21308395266532898,-9.390059471130371,-2.9448680877685547,1.1444091796875,2.349853515625,-0.030517578125
19.0099999,-0.19632454216480255,-9.366117477416992,-2.896984100341797,1.3427734375,2.50244140625,0.06103515625
19.0299999,-0.18914192914962769,-9.368511199951172,-2.853888511657715,2.1514892578125,1.15966796875,0.5035400390625
19.0499999,-0.1843535304069519,-9.368511199951172,-2.80361008644104,1.4190673828125,0.9765625,-0.30517578125
19.0699999,-0.17717093229293823,-9.366117477416992,-2.765302896499634,-0.3814697265625,1.3885498046875,-0.335693359375
19.089999900000002,-0.17717093229293823,-9.373299598693848,-2.738966703414917,-0.5035400390625,1.2054443359375,1.983642578125
19.109999900000002,-0.17477671802043915,-9.378087997436523,-2.7317841053009033,-1.0528564453125,0.732421875,2.0904541015625
19.1299999,-0.17956513166427612,-9.402029991149902,-2.7246015071868896,-0.79345703125,0.3814697265625,0.9307861328125
19.1499999,-0.18914192914962769,-9.433155059814453,-2.7317841053009033,-0.18310546875,-0.244140625,0.3662109375
19.1699999,-0.20350714027881622,-9.442731857299805,-2.7437551021575928,-0.4119873046875,-0.732421875,0.4730224609375
19.1899999,-0.21308395266532898,-9.442731857299805,-2.7700912952423096,-1.068115234375,-1.0223388671875,1.312255859375
19.2099999,-0.22266076505184174,-9.428366661071777,-2.82515811920166,-2.13623046875,-0.885009765625,1.4190673828125
19.2299999,-0.2346317619085312,-9.435548782348633,-2.8802247047424316,-1.922607421875,-0.213623046875,1.068115234375
19.249999900000002,-0.24660277366638184,-9.445125579833984,-2.940079689025879,-1.7547607421875,0.1678466796875,-0.18310546875
19.269999900000002,-0.26336219906806946,-9.469067573547363,-2.985569477081299,-0.701904296875,-0.0152587890625,-0.5340576171875
19.2899999,-0.2777273952960968,-9.476250648498535,-3.0190882682800293,0.2899169921875,-0.091552734375,0.244140625
19.3099999,-0.2825157940387726,-9.466673851013184,-3.043030261993408,-0.0152587890625,0.4425048828125,0.152587890625
19.3299999,-0.2825157940387726,-9.454702377319336,-3.0597896575927734,0.030517578125,1.1138916015625,0.0152587890625
19.3499999,-0.27054479718208313,-9.437943458557129,-3.047818660736084,0,1.4495849609375,-0.701904296875
19.3699999,-0.2513911724090576,-9.397241592407227,-3.0334534645080566,0.79345703125,0.9307861328125,-1.2969970703125
19.3899999,-0.2346317619085312,-9.366117477416992,-2.9903578758239746,1.068115234375,1.251220703125,0.06103515625
19.409999900000003,-0.21547815203666687,-9.315838813781738,-2.9520506858825684,0.0457763671875,1.89208984375,1.52587890625
19.429999900000002,-0.21308395266532898,-9.299078941345215,-2.9161376953125,0.335693359375,1.3275146484375,1.7852783203125
19.4499999,-0.21308395266532898,-9.296685218811035,-2.8778305053710938,1.1138916015625,1.1138916015625,0.9613037109375
19.4699999,-0.22266076505184174,-9.339780807495117,-2.846705913543701,1.28173828125,1.068115234375,1.312255859375
19.4899999,-0.2298433631658554,-9.375694274902344,-2.829946517944336,0.6866455078125,0.42724609375,0.6256103515625
19.5099999,-0.23702596127986908,-9.428366661071777,-2.829946517944336,0.3662109375,0.518798828125,1.007080078125
19.5299999,-0.24660277366638184,-9.466673851013184,-2.8371291160583496,0.4730224609375,1.1749267578125,0.885009765625
19.5499999,-0.2585737705230713,-9.488221168518066,-2.851494312286377,0.1983642578125,1.220703125,0.18310546875
19.5699999,-0.272938996553421,-9.50737476348877,-2.8634653091430664,-0.8087158203125,1.251220703125,0.42724609375
19.589999900000002,-0.2801215946674347,-9.497797966003418,-2.8658595085144043,-0.79345703125,0.8544921875,0.2899169921875
19.609999900000002,-0.2825157940387726,-9.481039047241211,-2.868253707885742,-0.3662109375,0.6866455078125,0.4119873046875
19.6299999,-0.2777273952960968,-9.442731857299805,-2.868253707885742,-0.67138671875,0.701904296875,0.54931640625
19.6499999,-0.27054479718208313,-9.39245319366455,-2.8658595085144043,-1.800537109375,0.9918212890625,1.0833740234375
19.6699999,-0.26336219906806946,-9.373299598693848,-2.8586769104003906,-1.89208984375,1.0528564453125,2.471923828125
19.6899999,-0.2561795711517334,-9.346963882446289,-2.849100112915039,-0.640869140625,0.244140625,1.2664794921875
19.7099999,-0.2561795711517334,-9.351752281188965,-2.849100112915039,-0.54931640625,-0.2593994140625,0.9307861328125
19.7299999,-0.2561795711517334,-9.370905876159668,-2.846705913543701,-1.861572265625,0.18310546875,1.922607421875
19.749999900000002,-0.26336219906806946,-9.387664794921875,-2.846705913543701,-2.227783203125,0.18310546875,1.4495849609375
19.769999900000002,-0.2777273952960968,-9.411606788635254,-2.8610711097717285,-0.732421875,-0.3814697265625,0.5340576171875
19.7899999,-0.29209262132644653,-9.454702377319336,-2.8610711097717285,-0.0457763671875,-0.30517578125,0.640869140625
19.8099999,-0.304063618183136,-9.473855972290039,-2.8802247047424316,-0.9307861328125,-0.152587890625,-0.091552734375
19.8299999,-0.31124621629714966,-9.488221168518066,-2.8993782997131348,-1.2054443359375,-0.6103515625,-0.0762939453125
19.8499999,-0.30885201692581177,-9.47146224975586,-2.9233202934265137,-1.8310546875,-0.1220703125,0.701904296875
19.8699999,-0.304063618183136,-9.452308654785156,-2.940079689025879,-1.6632080078125,0.1373291015625,0.91552734375
19.8899999,-0.2968810200691223,-9.406818389892578,-2.956839084625244,-1.220703125,-0.213623046875,0.244140625
19.909999900000003,-0.29209262132644653,-9.363722801208496,-2.956839084625244,-0.8392333984375,-0.244140625,0.48828125
19.929999900000002,-0.28969839215278625,-9.318233489990234,-2.96162748336792,-0.518798828125,-0.2593994140625,1.4495849609375
19.9499999,-0.29209262132644653,-9.287108421325684,-2.9496564865112305,-0.030517578125,0.091552734375,1.8768310546875
19.9699999,-0.304063618183136,-9.299078941345215,-2.9544448852539062,-0.4425048828125,0,1.8157958984375
19.9899999,-0.3208230137825012,-9.339780807495117,-2.9496564865112305,-1.2359619140625,0.2593994140625,1.007080078125
20.0099999,-0.3423708379268646,-9.428366661071777,-2.9664158821105957,-2.3040771484375,0.3509521484375,0.701904296875
20.0299999,-0.3687070608139038,-9.512163162231445,-2.985569477081299,-2.5787353515625,0.9002685546875,0.030517578125
20.0499999,-0.3878606855869293,-9.569623947143555,-3.0119056701660156,-2.2735595703125,1.03759765625,-1.2664794921875
20.0699999,-0.395043283700943,-9.593565940856934,-3.0310592651367188,-1.3580322265625,1.28173828125,-1.1444091796875
20.089999900000002,-0.3878606855869293,-9.5624418258667,-3.0358476638793945,-0.4119873046875,1.3275146484375,-0.7476806640625
20.109999900000002,-0.3663128614425659,-9.50498104095459,-3.021482467651367,-1.1138916015625,1.2664794921875,-0.732421875
20.1299999,-0.33997663855552673,-9.435548782348633,-3.002328872680664,-0.9307861328125,1.068115234375,-1.46484375
20.1499999,-0.31603461503982544,-9.354146003723145,-2.978386878967285,0.7781982421875,0.9918212890625,-1.9073486328125
