# Time (seconds),Accel_X,Accel_Y,Accel_Z,Gyro_X,Gyro_Y,Gyro_Z
0.0099999,0.1628057211637497,6.469132900238037,-9.066842079162598,-34.8663330078125,29.9530029296875,-19.8516845703125
0.029999900000000003,0.16998831927776337,6.670246124267578,-9.461885452270508,-22.9949951171875,42.0684814453125,-13.12255859375
0.0499999,0.1604115068912506,7.180211067199707,-9.612719535827637,-23.6053466796875,52.3834228515625,-8.97216796875
0.0699999,0.13407529890537262,7.762001991271973,-9.5408935546875,-33.3251953125,58.9141845703125,-2.62451171875
0.08999990000000001,0.11971008777618408,8.391676902770996,-9.174580574035645,-26.885986328125,66.5130615234375,7.6751708984375
0.10999990000000001,0.10055647045373917,9.040505409240723,-8.65743350982666,-14.6484375,70.1141357421875,12.2222900390625
0.1299999,0.08858546614646912,9.548076629638672,-8.221688270568848,-12.237548828125,62.835693359375,18.3258056640625
0.14999990000000002,0.1173158809542656,9.9000244140625,-7.824251174926758,-9.4757080078125,69.9920654296875,28.0609130859375
0.1699999,0.18914192914962769,10.093954086303711,-7.647080421447754,-11.1236572265625,77.9571533203125,34.5306396484375
0.1899999,0.3064578175544739,10.010157585144043,-7.218518257141113,-8.30078125,89.4622802734375,43.7164306640625
0.20999990000000002,0.47884035110473633,9.821015357971191,-6.75883150100708,-9.9029541015625,77.4383544921875,46.8902587890625
0.2299999,0.6727706789970398,9.466673851013184,-5.983109951019287,-5.6610107421875,62.774658203125,52.276611328125
0.2499999,0.9097966551780701,9.05487060546875,-5.078101634979248,4.7454833984375,63.934326171875,60.089111328125
0.2699999,1.192312479019165,8.671798706054688,-4.23773717880249,-1.129150390625,52.55126953125,61.0809326171875
0.28999990000000003,1.5155296325683594,8.212111473083496,-3.375824451446533,-2.6397705078125,40.7257080078125,68.2830810546875
0.3099999,1.8579005002975464,7.714118003845215,-2.612074136734009,1.922607421875,28.045654296875,73.7762451171875
0.3299999,2.1978771686553955,7.232883453369141,-1.9129672050476074,6.77490234375,14.3280029296875,69.915771484375
0.34999990000000003,2.5043349266052246,6.785167694091797,-1.4437036514282227,9.002685546875,-5.7830810546875,67.5506591796875
0.3699999,2.760514497756958,6.361393928527832,-1.1516109704971313,5.126953125,-22.8424072265625,73.8677978515625
0.3899999,2.9712042808532715,5.975927352905273,-1.1228805780410767,1.8310546875,-36.102294921875,72.81494140625
0.40999990000000003,3.1316158771514893,5.449203014373779,-1.2425906658172607,6.988525390625,-49.2095947265625,67.3828125
0.4299999,3.2393548488616943,4.891354084014893,-1.5514427423477173,5.9051513671875,-67.2760009765625,53.741455078125
0.4499999,3.265691041946411,4.378994941711426,-2.0159177780151367,-2.899169921875,-82.672119140625,40.374755859375
0.4699999,3.2106244564056396,3.9911341667175293,-2.7126305103302,-13.5650634765625,-92.34619140625,31.43310546875
0.4899999,3.0550012588500977,3.7469255924224854,-3.514688014984131,-22.3846435546875,-92.498779296875,21.54541015625
0.5099999,2.8179752826690674,3.6511576175689697,-4.501099109649658,-27.40478515625,-100.921630859375,6.5460205078125
0.5299999,2.513911724090576,3.646369218826294,-5.473145008087158,-12.51220703125,-105.89599609375,-7.6751708984375
0.5499999,2.188300371170044,3.8067808151245117,-6.562506675720215,-5.767822265625,-108.58154296875,-18.98193359375
0.5699999,1.86508309841156,4.065354347229004,-7.580042362213135,-20.4620361328125,-101.9744873046875,-29.388427734375
0.5899998999999999,1.5705963373184204,4.311957359313965,-8.49941635131836,-27.83203125,-91.6900634765625,-38.4521484375
0.6099998999999999,1.3120225667953491,4.469974517822266,-9.196128845214844,-16.11328125,-86.0137939453125,-49.560546875
0.6299999,1.0869675874710083,4.58968448638916,-9.63187313079834,-10.6658935546875,-77.1636962890625,-62.3779296875
0.6499999,0.8858546018600464,4.558559894561768,-9.804255485534668,-19.0582275390625,-63.018798828125,-68.3441162109375
0.6699999,0.6775590777397156,4.714183330535889,-9.871294021606445,-27.3895263671875,-54.5806884765625,-79.620361328125
0.6899999,0.44532153010368347,5.07570743560791,-9.782708168029785,-28.076171875,-44.708251953125,-89.4927978515625
0.7099999,0.1843535304069519,5.602431774139404,-9.674968719482422,-25.1007080078125,-33.5845947265625,-82.21435546875
0.7299998999999999,-0.09576806426048279,6.368576526641846,-9.552865028381348,-28.74755859375,-23.3917236328125,-82.4737548828125
0.7499998999999999,-0.3878606855869293,7.194576263427734,-9.445125579833984,-25.7415771484375,-12.14599609375,-83.3740234375
0.7699999,-0.6655880808830261,8.039729118347168,-9.397241592407227,-20.965576171875,-2.1209716796875,-77.362060546875
0.7899999,-0.9289502501487732,8.655038833618164,-9.437943458557129,-20.172119140625,10.8489990234375,-59.2803955078125
0.8099999,-1.137245774269104,9.006986618041992,-9.478644371032715,-26.0467529296875,27.7557373046875,-46.8597412109375
0.8299999,-1.2617442607879639,8.96389102935791,-9.406818389892578,-35.614013671875,42.78564453125,-42.816162109375
0.8499998999999999,-1.2832920551300049,8.774748802185059,-9.01895809173584,-35.7818603515625,50.29296875,-40.618896484375
0.8699998999999999,-1.235408067703247,8.525752067565918,-8.513781547546387,-16.66259765625,45.6390380859375,-29.1900634765625
0.8899999,-1.1516109704971313,8.379706382751465,-7.977479934692383,-3.265380859375,46.3714599609375,-18.8446044921875
0.9099999,-1.0749965906143188,8.377311706542969,-7.647080421447754,-10.0860595703125,58.7158203125,-17.791748046875
0.9299999,-1.0295066833496094,8.564059257507324,-7.575253963470459,-20.08056640625,69.7479248046875,-19.073486328125
0.9499999,-1.0271124839782715,8.851364135742188,-7.501033782958984,-4.638671875,78.5369873046875,-4.852294921875
0.9699998999999999,-1.0223240852355957,9.390059471130371,-7.570465564727783,5.035400390625,77.880859375,4.8980712890625
0.9899998999999999,-1.0127472877502441,10.02691650390625,-7.582436561584473,-1.64794921875,83.8470458984375,9.0484619140625
1.0099999,-0.9792284965515137,10.503362655639648,-7.266402244567871,1.800537109375,105.5755615234375,25.0244140625
1.0299999,-0.8667010068893433,10.979808807373047,-7.026981830596924,-1.8768310546875,92.071533203125,32.989501953125
1.0499999,-0.7182605266571045,11.188104629516602,-6.493074893951416,3.173828125,77.2705078125,41.0003662109375
1.0699999,-0.4812345504760742,11.279084205627441,-6.133944988250732,16.5863037109375,89.41650390625,49.9114990234375
1.0899999,-0.2346317619085312,11.18092155456543,-5.676652431488037,14.404296875,99.395751953125,58.6395263671875
1.1099999,0.0694318488240242,10.948684692382812,-5.023035049438477,12.3138427734375,99.9755859375,71.380615234375
1.1299999,0.40940847992897034,10.575188636779785,-4.58968448638916,-1.7852783203125,52.001953125,76.6143798828125
1.1499999,0.8044517636299133,10.038887977600098,-3.9432501792907715,12.5274658203125,59.9822998046875,85.3729248046875
1.1699998999999999,1.235408067703247,9.440337181091309,-3.7636849880218506,19.7601318359375,70.4803466796875,88.7451171875
1.1899998999999999,1.6496049165725708,8.767566680908203,-3.3494882583618164,16.29638671875,70.343017578125,92.9718017578125
1.2099999,2.0422539710998535,8.14028549194336,-3.095702886581421,1.800537109375,38.482666015625,95.3369140625
1.2299999,2.3965959548950195,7.407660007476807,-2.47560453414917,0.732421875,23.7579345703125,100.7843017578125
1.2499999,2.765302896499634,6.787561893463135,-2.0015525817871094,3.7078857421875,20.263671875,95.062255859375
1.2699999,3.1220390796661377,6.212953567504883,-1.625662922859192,-0.0457763671875,-0.030517578125,91.49169921875
1.2899999,3.6798880100250244,4.946420669555664,-1.0247182846069336,-0.732421875,-38.482666015625,99.151611328125
1.3099999,3.840299606323242,4.153939723968506,-1.0342950820922852,-11.0931396484375,-60.943603515625,74.5697021484375
1.3299999,3.914519786834717,3.2609026432037354,-1.3263877630233765,-14.7705078125,-66.5283203125,51.971435546875
1.3499999,3.9217023849487305,2.6192567348480225,-2.0470423698425293,-18.1884765625,-85.4034423828125,33.0810546875
1.3699999,3.8283286094665527,2.293645143508911,-2.849100112915039,-8.4075927734375,-91.5985107421875,22.064208984375
1.3899999,3.665522813796997,2.2170307636260986,-3.7612907886505127,-7.7056884765625,-96.1761474609375,11.3677978515625
1.4099999,3.426102638244629,2.367865562438965,-4.692635536193848,-17.6849365234375,-107.8643798828125,-8.392333984375
1.4299998999999999,3.1268274784088135,2.6431987285614014,-5.671864032745361,-13.519287109375,-113.311767578125,-24.23095703125
1.4499999,2.8107926845550537,3.0310592651367188,-6.715735912322998,4.852294921875,-108.245849609375,-30.8837890625
1.4699999,2.52109432220459,3.4189200401306152,-7.781155586242676,31.3568115234375,-100.8758544921875,-36.80419921875
1.4899999,2.2457611560821533,3.687070608139038,-8.554482460021973,52.6885986328125,-89.4775390625,-52.276611328125
1.5099999,1.9345149993896484,3.7397429943084717,-9.02135181427002,42.4652099609375,-91.6595458984375,-68.7713623046875
1.5299999,1.5682021379470825,3.957615375518799,-9.186552047729492,-7.9345703125,-99.1973876953125,-90.9576416015625
1.5499999,1.1563993692398071,4.1874589920043945,-9.289502143859863,-41.44287109375,-96.1151123046875,-87.9364013671875
1.5699999,0.727837324142456,4.41969633102417,-9.41639518737793,-37.78076171875,-79.071044921875,-76.0955810546875
1.5899999,0.33279404044151306,4.6950297355651855,-9.674968719482422,-34.393310546875,-67.3828125,-93.780517578125
1.6099999,-0.023942016065120697,5.106832027435303,-9.921571731567383,-34.11865234375,-60.546875,-116.3482666015625
1.6299999,-0.3711012601852417,5.664681434631348,-10.067618370056152,-35.1409912109375,-41.6412353515625,-98.44970703125
1.6499999,-0.6560112833976746,6.433219909667969,-10.196905136108398,-46.478271484375,-30.029296875,-71.9757080078125
1.6699999,-0.912190854549408,7.2137298583984375,-10.244789123535156,-61.187744140625,-19.439697265625,-70.0836181640625
1.6899998999999999,-1.1324573755264282,7.891288757324219,-10.249577522277832,-49.7283935546875,-0.48828125,-78.4454345703125
1.7099999,-1.3096283674240112,8.485051155090332,-10.311826705932617,-23.1170654296875,11.138916015625,-67.5811767578125
1.7299999,-1.4867992401123047,8.899248123168945,-10.278307914733887,-21.759033203125,28.7017822265625,-38.2232666015625
1.7499999,-1.5825673341751099,9.064447402954102,-10.168174743652344,-41.0919189453125,43.0145263671875,-28.5491943359375
1.7699999,-1.5897499322891235,8.999804496765137,-9.78989028930664,-42.9534912109375,53.28369140625,-37.109375
1.7899999,-1.5131354331970215,8.676587104797363,-9.217676162719727,-26.4129638671875,58.4259033203125,-32.8216552734375
1.8099999,-1.381454348564148,8.367734909057617,-8.724471092224121,-16.2506103515625,55.084228515625,-18.6920166015625
1.8299999,-1.2234370708465576,8.121131896972656,-8.554482460021973,-14.46533203125,66.71142578125,-19.4244384765625
1.8499999,-1.1563993692398071,7.893682956695557,-8.506598472595215,-7.8277587890625,102.3406982421875,-23.3306884765625
1.8699999,-1.1252747774124146,8.037335395812988,-8.22887134552002,3.570556640625,128.6773681640625,-33.1878662109375
1.8899999,-1.1252747774124146,8.664615631103516,-7.982268333435059,4.7149658203125,87.2955322265625,-28.3203125
1.9099999,-1.1276689767837524,9.543288230895996,-7.467514991760254,18.3258056640625,79.6356201171875,7.904052734375
1.9299998999999999,-1.0558429956436157,10.445901870727539,-7.180211067199707,28.167724609375,113.311767578125,28.62548828125
1.9499999,-0.950498104095459,11.03248119354248,-6.888118267059326,7.3394775390625,126.068115234375,28.5797119140625
1.9699999,-0.7805097699165344,11.26950740814209,-6.521805286407471,-3.936767578125,105.6976318359375,33.355712890625
1.9899999,-0.5530605912208557,11.192893028259277,-6.167463779449463,0.7476806640625,74.2950439453125,52.4444580078125
2.0099999,-0.23942017555236816,10.977415084838867,-5.935225963592529,12.0391845703125,85.418701171875,64.300537109375
2.0299999,0.12689268589019775,10.63743782043457,-5.947196960449219,17.08984375,107.48291015625,64.9566650390625
2.0499999,0.5027823448181152,10.177751541137695,-5.825092792510986,20.5230712890625,112.12158203125,72.6165771484375
2.0699999,0.8834604024887085,9.603142738342285,-5.3582234382629395,18.6767578125,92.620849609375,85.75439453125
2.0899999,1.2689268589019775,8.880094528198242,-4.69024133682251,10.5743408203125,64.666748046875,92.4835205078125
2.1099999,1.6831238269805908,8.161833763122559,-4.0749311447143555,3.936767578125,56.7169189453125,83.770751953125
2.1299999,2.1116859912872314,7.572859764099121,-3.509899616241455,11.8408203125,65.582275390625,83.4503173828125
2.1499999,2.52109432220459,7.003039836883545,-2.935291290283203,22.27783203125,62.5762939453125,108.184814453125
2.1699999,2.9017724990844727,6.512228488922119,-2.5258827209472656,-8.026123046875,17.1051025390625,110.9771728515625
2.1899999,3.272873640060425,5.959167957305908,-2.142810583114624,-36.407470703125,-0.9613037109375,90.7745361328125
2.2099999,3.6343982219696045,5.432443618774414,-1.9632453918457031,-36.3616943359375,10.2691650390625,78.9794921875
2.2299999,3.9647979736328125,5.011064052581787,-1.922544002532959,-24.8565673828125,-1.28173828125,86.8682861328125
2.2499999,4.213795185089111,4.709394931793213,-1.7836803197860718,-12.75634765625,-27.2216796875,91.8731689453125
2.2699999,4.347870349884033,4.37420654296875,-1.5083470344543457,-3.936767578125,-48.7518310546875,79.5135498046875
2.2899999,4.3622355461120605,3.8977603912353516,-1.434126853942871,-13.4124755859375,-72.052001953125,62.7899169921875
2.3099999,4.304774761199951,3.4955344200134277,-1.723825216293335,-29.3426513671875,-96.710205078125,46.0205078125
2.3299999,4.1874589920043945,3.1962592601776123,-2.365471363067627,-36.9110107421875,-102.508544921875,37.3992919921875
2.3499999,4.041412353515625,2.9305028915405273,-3.251325845718384,-41.50390625,-104.43115234375,32.2265625
2.3699999,3.8163576126098633,2.5713725090026855,-4.07014274597168,-42.90771484375,-111.51123046875,13.9923095703125
2.3899999,3.509899616241455,2.3511061668395996,-4.922478675842285,-43.64013671875,-132.6904296875,-18.8140869140625
2.4099999,3.184288263320923,2.4851813316345215,-5.868188381195068,-45.9136962890625,-148.7579345703125,-41.961669921875
2.4299999,2.8610711097717285,2.6455929279327393,-6.8043212890625,-34.6221923828125,-124.3438720703125,-22.1099853515625
2.4499999,2.580949544906616,3.002328872680664,-7.711723804473877,-72.0062255859375,-102.752685546875,-32.5775146484375
2.4699999,2.3080103397369385,3.3925838470458984,-8.348581314086914,-112.5640869140625,-103.9276123046875,-75.6683349609375
2.4899999,1.9991583824157715,3.912125587463379,-8.585607528686523,-88.8824462890625,-98.4954833984375,-88.897705078125
2.5099999,1.6328455209732056,4.311957359313965,-8.53532886505127,-39.7491455078125,-82.6263427734375,-63.6444091796875
2.5299999,1.2210428714752197,5.027823448181152,-8.348581314086914,-60.516357421875,-77.545166015625,-79.28466796875
2.5499999,0.7661445140838623,5.714959621429443,-8.259995460510254,-113.2049560546875,-81.085205078125,-109.6343994140625
2.5699999,0.363918662071228,6.528987884521484,-8.317456245422363,-99.12109375,-69.0460205078125,-105.6976318359375
2.5899999,-0.002394201699644327,7.493851184844971,-8.489839553833008,-61.2030029296875,-37.261962890625,-78.3538818359375
2.6099999,-0.272938996553421,8.451532363891602,-8.681375503540039,-63.3544921875,-20.355224609375,-78.8116455078125
2.6299999,-0.5195417404174805,9.121908187866211,-8.755595207214355,-70.770263671875,-19.0887451171875,-90.240478515625
2.6499999,-0.7709329724311829,10.070012092590332,-8.710105895996094,-48.0194091796875,-8.7432861328125,-102.9510498046875
2.6699999,-1.0247182846069336,10.819397926330566,-8.71489429473877,-13.24462890625,7.26318359375,-68.4356689453125
2.6899999,-1.2210428714752197,11.592724800109863,-8.719682693481445,-15.6707763671875,23.7274169921875,-33.50830078125
2.7099999,-1.3000515699386597,11.84650993347168,-8.7484130859375,-36.7279052734375,34.72900390625,-35.0341796875
2.7299999,-1.2880805730819702,11.372458457946777,-8.542511940002441,-26.4892578125,53.8177490234375,-33.75244140625
2.7499999,-1.2282254695892334,10.484209060668945,-8.233659744262695,-11.71875,64.9566650390625,-32.806396484375
2.7699999,-1.1659762859344482,9.550470352172852,-7.750030994415283,-18.6767578125,66.6046142578125,-31.4483642578125
2.7899999,-1.115697979927063,8.762778282165527,-7.208941459655762,-31.1279296875,70.7550048828125,-26.9012451171875
2.8099999,-1.0630255937576294,8.520963668823242,-6.344634532928467,-14.9993896484375,75.469970703125,-28.3050537109375
2.8299999,-1.1013327836990356,9.131484985351562,-5.992686748504639,-3.875732421875,88.6383056640625,-15.6402587890625
2.8499999,-1.1300631761550903,9.964667320251465,-5.9304375648498535,-4.4708251953125,97.0306396484375,2.1209716796875
2.8699999,-1.1683704853057861,10.857705116271973,-5.805939197540283,-19.2413330078125,98.175048828125,13.9007568359375
2.8899999,-1.1468225717544556,11.60708999633789,-5.571307182312012,-22.9339599609375,107.5439453125,20.2178955078125
2.9099999,-1.0773907899856567,12.157755851745605,-5.07570743560791,-15.2587890625,106.0791015625,31.9976806640625
2.9299999,-0.9481038451194763,12.54561710357666,-4.563348293304443,-1.5716552734375,89.813232421875,44.3572998046875
2.9499999,-0.7996633648872375,12.76109504699707,-4.041412353515625,3.8604736328125,87.188720703125,57.67822265625
2.9699999,-0.6536170840263367,12.775460243225098,-3.488351821899414,8.1024169921875,104.278564453125,72.479248046875
2.9899999,-0.4668693244457245,12.516886711120605,-2.8586769104003906,10.6964111328125,98.4954833984375,88.0279541015625
3.0099999,-0.22266076505184174,11.93509578704834,-2.319981336593628,9.2315673828125,54.931640625,98.541259765625
3.0299999,0.12210428714752197,11.12106704711914,-1.7741034030914307,13.6260986328125,42.3736572265625,99.7772216796875
3.0499999,0.5793967843055725,10.091560363769531,-1.4844050407409668,22.64404296875,53.8177490234375,101.806640625
3.0699999,1.1061211824417114,8.999804496765137,-1.381454348564148,25.0701904296875,46.539306640625,105.712890625
3.0899999,1.6376339197158813,8.030152320861816,-1.3527239561080933,21.1181640625,24.5513916015625,102.4627685546875
3.1099999,2.1332337856292725,7.144298076629639,-1.2689268589019775,20.111083984375,14.007568359375,100.860595703125
3.1299999,2.58813214302063,6.54574728012085,-1.2880805730819702,18.4173583984375,7.01904296875,94.024658203125
3.1499999,2.9975404739379883,6.145915985107422,-1.3694833517074585,15.7928466796875,-5.584716796875,89.90478515625
3.1699999,3.354276657104492,5.940014362335205,-1.4628572463989258,15.7470703125,-14.2669677734375,92.1630859375
3.1899999,3.663128614425659,5.748478412628174,-1.5705963373184204,14.1448974609375,-28.1982421875,90.39306640625
3.2099999,3.912125587463379,5.427655220031738,-1.599326729774475,13.2598876953125,-39.1845703125,83.8623046875
3.2299999,4.110844135284424,4.944026470184326,-1.5753847360610962,11.260986328125,-54.2755126953125,70.0836181640625
3.2499999,4.2329487800598145,4.299986362457275,-1.4437036514282227,8.392333984375,-69.427490234375,56.8695068359375
3.2699999,4.299986362457275,3.734954595565796,-1.4939818382263184,-6.439208984375,-91.5374755859375,38.7725830078125
3.2899999,4.28322696685791,3.2345664501190186,-1.7405846118927002,-19.866943359375,-101.959228515625,21.209716796875
3.3099999,4.19224739074707,3.0119056701660156,-2.2649147510528564,-28.289794921875,-99.2889404296875,1.0833740234375
3.3299999000000002,4.019864559173584,3.0813376903533936,-3.1220390796661377,-34.8968505859375,-108.1695556640625,-18.37158203125
3.3499999,3.7660791873931885,3.181894063949585,-3.97916316986084,-24.5513916015625,-108.673095703125,-22.03369140625
3.3699999,3.445256233215332,3.3255462646484375,-4.886565685272217,-22.2625732421875,-108.428955078125,-35.0494384765625
3.3899999,3.043030261993408,3.397372245788574,-5.758055210113525,-29.1595458984375,-110.7025146484375,-62.957763671875
3.4099999,2.6024973392486572,3.687070608139038,-6.588842868804932,-29.6630859375,-107.513427734375,-86.9293212890625
3.4299999,2.121262788772583,4.244919776916504,-7.383718013763428,-29.3731689453125,-98.2208251953125,-81.7413330078125
3.4499999,1.6735470294952393,4.948814868927002,-8.092401504516602,-33.9813232421875,-88.2568359375,-73.54736328125
3.4699999,1.256955862045288,5.394136428833008,-8.504204750061035,-37.017822265625,-71.990966796875,-79.3304443359375
3.4899999,0.8188169598579407,5.216965675354004,-8.746018409729004,-35.46142578125,-65.7958984375,-112.640380859375
3.5099999,0.35913026332855225,5.679046630859375,-8.932766914367676,-34.515380859375,-68.1304931640625,-168.0145263671875
3.5299999,-0.06703764945268631,6.294356346130371,-8.815450668334961,-18.463134765625,-43.1976318359375,-149.322509765625
3.5499999,-0.47884035110473633,7.4100542068481445,-8.549694061279297,-26.611328125,-23.651123046875,-84.2132568359375
3.5699999,-0.7613561153411865,8.482656478881836,-8.164227485656738,-81.54296875,-34.8052978515625,-95.947265625
3.5899999,-1.070208191871643,8.848969459533691,-7.750030994415283,-82.1075439453125,-29.1900634765625,-119.171142578125
3.6099999,-1.3479355573654175,9.524134635925293,-7.544129371643066,-43.975830078125,-5.859375,-130.1727294921875
3.6299999,-1.699883222579956,9.718064308166504,-7.436390399932861,-8.30078125,21.8658447265625,-64.88037109375
3.6499999,-2.0015525817871094,10.685321807861328,-7.496245384216309,-46.051025390625,20.904541015625,-52.4139404296875
3.6699999,-2.2625205516815186,11.135432243347168,-7.445967197418213,-58.6700439453125,25.604248046875,-58.319091796875
3.6899999,-2.454056739807129,11.317391395568848,-7.402871608734131,-22.6593017578125,46.1273193359375,-44.5556640625
3.7099999,-2.561795711517334,11.525687217712402,-7.441178798675537,-7.32421875,51.2237548828125,-43.8385009765625
3.7299999,-2.612074136734009,11.578359603881836,-7.180211067199707,-7.9193115234375,64.422607421875,-24.5513916015625
3.7499999,-2.580949544906616,11.628637313842773,-6.89530086517334,-13.824462890625,63.7359619140625,-1.9378662109375
3.7699999,-2.499546527862549,11.441889762878418,-6.5481414794921875,-8.1787109375,62.4237060546875,7.1258544921875
3.7899999,-2.403778553009033,11.039664268493652,-6.22731876373291,3.9520263671875,78.2012939453125,7.720947265625
3.8099999,-2.293645143508911,10.716446876525879,-6.028599739074707,5.6610107421875,87.249755859375,2.655029296875
3.8299999000000002,-2.190694570541382,10.524910926818848,-5.810727596282959,2.7923583984375,87.310791015625,17.852783203125
3.8499999,-2.0925323963165283,10.572794914245605,-5.535394191741943,-5.279541015625,87.8448486328125,38.238525390625
3.8699999,-1.9776105880737305,10.857705116271973,-5.303156852722168,-13.8397216796875,85.6475830078125,40.283203125
3.8899999,-1.8315643072128296,11.097125053405762,-4.948814868927002,-3.41796875,96.13037109375,47.271728515625
3.9099999,-1.6400281190872192,11.372458457946777,-4.520252704620361,5.9661865234375,95.4132080078125,59.26513671875
3.9299999,-1.400607943534851,11.602301597595215,-3.9887399673461914,10.3302001953125,80.047607421875,71.2127685546875
3.9499999,-1.1085153818130493,11.654973983764648,-3.5027170181274414,17.1661376953125,68.0999755859375,84.41162109375
3.9699999,-0.7781155705451965,11.547234535217285,-3.224989652633667,19.927978515625,68.023681640625,91.3848876953125
3.9899999,-0.4357447028160095,11.116278648376465,-3.064578056335449,24.993896484375,76.0955810546875,103.2867431640625
4.0099999,-0.05027823522686958,10.441113471984863,-2.96162748336792,24.4293212890625,69.2291259765625,107.391357421875
4.029999900000001,0.3663128614425659,9.646238327026367,-2.87064790725708,12.51220703125,47.9583740234375,100.1129150390625
4.0499999,0.8259995579719543,8.825027465820312,-2.7078421115875244,10.31494140625,42.388916015625,98.3734130859375
4.069999900000001,1.3215993642807007,8.092401504516602,-2.5474305152893066,16.5557861328125,42.3736572265625,103.6529541015625
4.0899999000000005,1.843535304069519,7.4316020011901855,-2.410961151123047,14.58740234375,28.99169921875,102.9052734375
4.1099999,2.343923568725586,6.912060260772705,-2.252943754196167,3.4637451171875,13.8092041015625,91.4764404296875
4.1299999000000005,2.8179752826690674,6.493074893951416,-2.0829553604125977,-3.47900390625,7.8125,82.51953125
4.1499999,3.2417490482330322,6.110002517700195,-1.9919757843017578,-2.0904541015625,-0.579833984375,86.73095703125
4.1699999000000005,3.6104562282562256,5.801150798797607,-1.920149803161621,-3.875732421875,-12.3291015625,80.0323486328125
4.1899999,3.9217023849487305,5.530605792999268,-1.9105730056762695,-6.591796875,-23.6053466796875,65.155029296875
4.209999900000001,4.173093795776367,5.2480902671813965,-1.8842366933822632,-0.9307861328125,-30.2276611328125,60.24169921875
4.2299999,4.350264549255371,4.841075897216797,-1.8195933103561401,12.0697021484375,-35.9649658203125,63.7054443359375
4.249999900000001,4.455609321594238,4.455609321594238,-1.824381709098816,2.6092529296875,-53.6346435546875,45.9136962890625
4.2699999,4.469974517822266,4.005499362945557,-1.8746598958969116,-11.29150390625,-66.2078857421875,22.674560546875
4.289999900000001,4.405331134796143,3.7876269817352295,-2.2816741466522217,-9.1705322265625,-76.7974853515625,9.3231201171875
4.3099999,4.280832767486572,3.8283286094665527,-2.9903578758239746,1.1444091796875,-79.6051025390625,6.65283203125
4.329999900000001,3.907337188720703,4.537012100219727,-4.642356872558594,-10.3912353515625,-79.0863037109375,-4.364013671875
4.3499999,3.6846764087677,4.6471452713012695,-5.195417881011963,-12.3138427734375,-86.151123046875,-10.0555419921875
4.369999900000001,3.4404678344726562,4.5609540939331055,-5.552153587341309,-14.6942138671875,-91.61376953125,-29.266357421875
4.3899999,3.155557870864868,4.228160381317139,-5.765237808227539,-14.4195556640625,-89.263916015625,-47.2564697265625
4.409999900000001,2.8347349166870117,3.9815573692321777,-6.069301128387451,-18.890380859375,-91.8121337890625,-62.7899169921875
4.4299999,2.4612393379211426,3.957615375518799,-6.387730121612549,-19.012451171875,-87.40234375,-74.798583984375
4.449999900000001,2.049436569213867,4.228160381317139,-6.782773494720459,-17.7764892578125,-83.7860107421875,-79.4525146484375
4.4699999,1.6304513216018677,4.754884719848633,-7.218518257141113,-24.2767333984375,-81.7718505859375,-86.8682861328125
4.489999900000001,1.2330138683319092,5.451597213745117,-7.603984832763672,-28.5186767578125,-72.845458984375,-93.7347412109375
4.5099999,0.8403648138046265,6.050147533416748,-7.929595947265625,-29.632568359375,-62.8204345703125,-94.6197509765625
4.529999900000001,0.4620809257030487,6.926425457000732,-8.271966934204102,-32.5469970703125,-54.962158203125,-102.0660400390625
4.5499999,0.0933738648891449,7.627926826477051,-8.506598472595215,-26.5960693359375,-41.3360595703125,-92.987060546875
4.569999900000001,-0.2537853717803955,8.317456245422363,-8.65982723236084,-31.25,-23.6968994140625,-77.5146484375
4.5899999000000005,-0.5674257874488831,8.736441612243652,-8.738836288452148,-40.2069091796875,-15.1214599609375,-81.0089111328125
4.609999900000001,-0.8619126081466675,9.117119789123535,-8.688557624816895,-28.778076171875,-3.5552978515625,-92.3309326171875
4.6299999000000005,-1.0893617868423462,9.495404243469238,-8.614337921142578,-15.472412109375,7.781982421875,-84.16748046875
4.6499999,-1.2856862545013428,9.77791976928711,-8.552088737487793,-10.9710693359375,18.768310546875,-47.8668212890625
4.6699999000000005,-1.41257905960083,10.065223693847656,-8.518569946289062,-24.96337890625,28.076171875,-44.37255859375
4.6899999,-1.5059528350830078,9.873687744140625,-8.520963668823242,-23.284912109375,39.0777587890625,-48.88916015625
4.709999900000001,-1.601720929145813,9.519346237182617,-8.456320762634277,-13.9007568359375,51.0406494140625,-51.727294921875
4.7299999,-1.6903064250946045,9.263166427612305,-8.128314971923828,-10.772705078125,64.27001953125,-50.811767578125
4.749999900000001,-1.7477672100067139,9.102754592895508,-7.690176010131836,-13.1378173828125,59.2193603515625,-38.055419921875
4.7699999,-1.764526605606079,9.17697525024414,-7.091625213623047,-21.759033203125,57.647705078125,-30.1971435546875
4.789999900000001,-1.7501614093780518,9.20091724395752,-6.512228488922119,-17.27294921875,67.7490234375,-26.214599609375
4.8099999,-1.7334020137786865,9.39245319366455,-6.011840343475342,-5.67626953125,75.1800537109375,-29.7698974609375
4.829999900000001,-1.7310078144073486,9.770736694335938,-5.609614372253418,-0.1373291015625,72.0367431640625,-25.0091552734375
4.8499999,-1.7190368175506592,10.29746150970459,-5.293580055236816,-4.0435791015625,69.0460205078125,-4.058837890625
4.869999900000001,-1.680729627609253,10.898406028747559,-5.051765441894531,-16.0980224609375,72.9217529296875,12.14599609375
4.8899999,-1.6041151285171509,11.429919242858887,-4.876988887786865,-17.730712890625,75.6988525390625,16.876220703125
4.909999900000001,-1.4700398445129395,11.705251693725586,-4.800374507904053,-1.52587890625,67.93212890625,27.16064453125
4.9299999,-1.3000515699386597,11.839327812194824,-4.651933670043945,8.1787109375,73.1353759765625,39.7186279296875
4.949999900000001,-1.0965443849563599,11.801020622253418,-4.402936935424805,2.5787353515625,76.6754150390625,47.4090576171875
4.9699999,-0.8403648138046265,11.60948371887207,-4.199429988861084,2.99072265625,64.8651123046875,56.94580078125
4.989999900000001,-0.5602431893348694,11.231200218200684,-3.957615375518799,6.622314453125,54.7332763671875,69.3817138671875
5.0099999,-0.24181437492370605,10.69489860534668,-3.713406801223755,7.6141357421875,61.95068359375,79.0863037109375
5.029999900000001,0.09576806426048279,10.067618370056152,-3.6176388263702393,3.6163330078125,54.7027587890625,79.28466796875
5.0499999,0.4429273009300232,9.411606788635254,-3.5194764137268066,-0.579833984375,43.182373046875,81.0394287109375
5.069999900000001,0.7996633648872375,8.774748802185059,-3.466804027557373,2.2735595703125,39.7186279296875,87.9974365234375
5.0899999000000005,1.1755530834197998,8.257601737976074,-3.426102638244629,9.552001953125,37.2161865234375,86.8988037109375
5.109999900000001,1.5538369417190552,7.814674377441406,-3.315969467163086,15.07568359375,32.2265625,81.878662109375
5.1299999000000005,1.941697597503662,7.503427982330322,-3.181894063949585,8.331298828125,19.927978515625,77.7435302734375
5.1499999,2.296039342880249,7.271190643310547,-2.9544448852539062,0.9307861328125,11.41357421875,78.2928466796875
5.1699999000000005,2.6240451335906982,7.177816867828369,-2.8227639198303223,-2.9296875,3.662109375,76.7974853515625
5.1899999,2.9041666984558105,6.995857238769531,-2.734178304672241,-1.5716552734375,-2.960205078125,77.1026611328125
5.209999900000001,3.157952070236206,6.734889507293701,-2.741360902786255,4.3487548828125,-10.07080078125,72.8607177734375
5.2299999,3.3854012489318848,6.471527099609375,-2.7700912952423096,5.6915283203125,-18.646240234375,59.356689453125
5.249999900000001,3.584120035171509,6.155492782592773,-2.7293899059295654,9.58251953125,-23.2391357421875,58.1817626953125
5.2699999,3.758896589279175,5.834669589996338,-2.650381326675415,7.0037841796875,-32.745361328125,60.7757568359375
5.289999900000001,3.890577793121338,5.458779811859131,-2.516305923461914,2.0751953125,-43.8690185546875,53.52783203125
5.3099999,3.950432777404785,4.900930881500244,-2.425326347351074,-0.3509521484375,-53.4515380859375,38.4368896484375
5.329999900000001,3.9384617805480957,4.448426723480225,-2.580949544906616,-5.096435546875,-65.5975341796875,18.096923828125
5.3499999,3.840299606323242,4.247313976287842,-2.894589900970459,-3.8604736328125,-69.2596435546875,7.1868896484375
5.369999900000001,3.6774938106536865,4.1395745277404785,-3.4117374420166016,5.3558349609375,-71.3958740234375,15.7623291015625
5.3899999,3.4835634231567383,4.338293552398682,-3.9815573692321777,-1.953125,-78.033447265625,5.0201416015625
5.409999900000001,3.2393548488616943,4.393360137939453,-4.505887508392334,-8.6822509765625,-81.878662109375,-9.27734375
5.4299999,2.9927520751953125,4.565742492675781,-5.1810526847839355,-0.48828125,-89.7216796875,-20.172119140625
5.449999900000001,2.7269957065582275,4.929661273956299,-5.916072368621826,3.753662109375,-87.890625,-29.266357421875
5.4699999,2.4827871322631836,5.4228668212890625,-6.689399719238281,-10.3759765625,-74.5849609375,-27.069091796875
5.489999900000001,2.276885747909546,6.011840343475342,-7.419631004333496,-26.824951171875,-73.4405517578125,-25.146484375
5.5099999,2.099714994430542,6.380547523498535,-7.8098859786987305,-16.90673828125,-67.7337646484375,-27.34375
5.529999900000001,1.9321208000183105,6.433219909667969,-8.010998725891113,-3.0517578125,-65.9027099609375,-32.196044921875
5.5499999,1.7525556087493896,6.157886981964111,-7.989450931549072,-5.828857421875,-63.5986328125,-44.403076171875
5.569999900000001,1.50355863571167,5.686229228973389,-7.967903137207031,-12.75634765625,-58.77685546875,-57.4798583984375
5.5899999000000005,1.2258312702178955,5.492298603057861,-8.087613105773926,-18.951416015625,-58.9599609375,-77.8350830078125
5.609999900000001,0.9097966551780701,5.480327606201172,-8.274360656738281,-18.98193359375,-44.98291015625,-78.3843994140625
5.6299999000000005,0.608127236366272,5.810727596282959,-8.492233276367188,-24.8565673828125,-29.5562744140625,-76.934814453125
5.6499999,0.31842881441116333,6.200982570648193,-8.53532886505127,-27.16064453125,-21.8353271484375,-84.4879150390625
5.6699999000000005,0.019153613597154617,6.742072105407715,-8.389283180236816,-18.73779296875,-20.6298828125,-96.343994140625
5.6899999,-0.2825157940387726,7.532158374786377,-8.128314971923828,-11.41357421875,-17.5323486328125,-94.29931640625
5.709999900000001,-0.586579442024231,8.315062522888184,-7.884106159210205,-12.3748779296875,-9.0179443359375,-66.5130615234375
5.7299999,-0.8140285611152649,9.162610054016113,-7.7883381843566895,-22.6593017578125,-2.9449462890625,-56.793212890625
5.749999900000001,-0.9744400978088379,9.914389610290527,-7.675810813903809,-20.965576171875,9.4757080078125,-62.9119873046875
5.7699999,-1.048660397529602,10.450690269470215,-7.599195957183838,3.7078857421875,20.355224609375,-48.4619140625
5.789999900000001,-1.0797849893569946,10.843339920043945,-7.398083209991455,23.7884521484375,23.834228515625,-17.730712890625
5.8099999,-1.0558429956436157,11.154585838317871,-7.175422668457031,12.8173828125,25.604248046875,-8.1024169921875
5.829999900000001,-0.9959878921508789,11.166556358337402,-6.854599475860596,5.9967041015625,29.4342041015625,2.44140625
5.8499999,-0.7781155705451965,10.630255699157715,-5.719748020172119,38.4674072265625,23.7884521484375,32.04345703125
5.869999900000001,-0.6488286852836609,10.158597946166992,-5.006275653839111,55.8624267578125,8.72802734375,37.9180908203125
5.8899999,-0.5315127968788147,9.713275909423828,-4.3622355461120605,65.5364990234375,3.60107421875,37.17041015625
5.909999900000001,-0.42616790533065796,9.2033109664917,-4.084507942199707,54.8095703125,-8.85009765625,47.2869873046875
5.9299999,-0.35673606395721436,8.631096839904785,-4.197035789489746,49.9114990234375,-20.660400390625,61.7218017578125
5.949999900000001,-0.2944868206977844,8.063671112060547,-4.592078685760498,69.2138671875,-17.8375244140625,57.769775390625
5.9699999,-0.21308395266532898,7.259219646453857,-5.286397457122803,94.1009521484375,-21.270751953125,54.473876953125
5.989999900000001,-0.10534487664699554,6.6127848625183105,-6.023811340332031,106.475830078125,-28.1829833984375,48.03466796875
6.0099999,0.028730420395731926,6.256049156188965,-6.581660270690918,117.9656982421875,-24.2919921875,44.8150634765625
6.029999900000001,0.1867477297782898,6.0597243309021,-7.216124057769775,108.856201171875,-34.6221923828125,59.7686767578125
6.0499999,0.35913026332855225,5.9088897705078125,-7.9631147384643555,75.1800537109375,-41.900634765625,75.1953125
6.069999900000001,0.5626373887062073,5.5114521980285645,-8.827422142028809,73.0133056640625,-21.78955078125,75.98876953125
6.0899999000000005,0.811634361743927,4.800374507904053,-9.77791976928711,107.3760986328125,-3.7841796875,69.27490234375
6.109999900000001,1.0606313943862915,3.7038300037384033,-10.625467300415039,126.739501953125,-3.1585693359375,69.7784423828125
6.1299999000000005,1.2952631711959839,2.612074136734009,-11.559206008911133,101.8524169921875,-7.62939453125,57.708740234375
6.149999900000001,1.4317326545715332,1.3623007535934448,-12.555193901062012,56.5643310546875,10.8642578125,44.403076171875
6.1699999000000005,1.4484920501708984,0.19153612852096558,-13.601459503173828,44.9676513671875,47.1954345703125,23.5443115234375
6.1899999,1.3503297567367554,-0.8930372595787048,-14.769830703735352,61.58447265625,55.8624267578125,-8.1939697265625
6.209999900000001,1.1540051698684692,-1.434126853942871,-15.80173110961914,67.7947998046875,71.5179443359375,-47.8515625
6.2299999,0.8451532125473022,-1.436521053314209,-16.40028190612793,48.7823486328125,120.1934814453125,-64.4073486328125
6.249999900000001,0.4668693244457245,-0.9265560507774353,-16.16804313659668,-1.983642578125,169.891357421875,-65.85693359375
6.2699999,0.026336219161748886,-0.10055647045373917,-15.579070091247559,-52.1697998046875,138.8397216796875,-84.0911865234375
6.289999900000001,-0.4189853072166443,1.2545616626739502,-13.687650680541992,-25.81787109375,148.6358642578125,-113.0828857421875
6.3099999,-0.7445967197418213,2.937685489654541,-11.563994407653809,-5.5389404296875,154.78515625,-111.602783203125
6.329999900000001,-0.8810662031173706,4.611232280731201,-9.246406555175781,-22.3388671875,131.8206787109375,-71.1669921875
6.3499999,-0.8092401623725891,6.256049156188965,-6.732495307922363,-43.731689453125,132.9345703125,-62.225341796875
6.369999900000001,-0.5578489899635315,7.4986395835876465,-4.1395745277404785,-45.59326171875,136.1541748046875,-79.9713134765625
6.3899999,-0.17477671802043915,8.221688270568848,-1.6855180263519287,-28.2440185546875,96.038818359375,-59.356689453125
6.409999900000001,0.22266076505184174,8.904036521911621,0.524330198764801,-18.2342529296875,46.7071533203125,-32.7301025390625
6.4299999,0.5434837937355042,9.555258750915527,2.2242133617401123,-16.4642333984375,24.322509765625,-24.8565673828125
6.449999900000001,0.7326257228851318,10.04846477508545,3.071760892868042,-16.4794921875,-0.4730224609375,-10.986328125
6.4699999,0.7541735172271729,10.47942066192627,3.203441858291626,-15.289306640625,-29.205322265625,9.46044921875
6.489999900000001,0.667982280254364,10.6925048828125,2.8179752826690674,0.518798828125,-54.351806640625,28.594970703125
6.5099999,0.5123591423034668,10.620678901672363,1.886630892753601,5.67626953125,-82.0770263671875,40.740966796875
6.529999900000001,0.2849099934101105,10.235212326049805,0.7206547260284424,-5.0811767578125,-99.853515625,48.126220703125
6.5499999,0.043095629662275314,9.737217903137207,-0.4596867263317108,-8.514404296875,-110.1837158203125,53.1768798828125
6.569999900000001,-0.19632454216480255,9.004592895507812,-1.9033904075622559,-10.68115234375,-147.186279296875,69.9615478515625
6.5899999000000005,-0.4429273009300232,8.176198959350586,-3.227383852005005,1.617431640625,-162.841796875,80.01708984375
6.609999900000001,-0.6344634294509888,7.374141216278076,-4.661510944366455,7.62939453125,-159.8358154296875,70.73974609375
6.6299999000000005,-0.7422025203704834,6.387730121612549,-6.423643112182617,-11.993408203125,-180.6182861328125,78.43017578125
6.649999900000001,-0.7733271718025208,5.382165431976318,-8.322244644165039,-24.3072509765625,-181.884765625,89.0960693359375
6.6699999000000005,-0.706289529800415,4.355052947998047,-10.220847129821777,2.0294189453125,-150.8026123046875,73.944091796875
6.6899999,-0.48602294921875,3.2417490482330322,-12.105083465576172,26.18408203125,-141.54052734375,59.478759765625
6.709999900000001,-0.1843535304069519,1.968033790588379,-13.9462251663208,16.3726806640625,-150.054931640625,65.0177001953125
6.7299999,0.1604115068912506,0.9313444495201111,-15.51921558380127,4.974365234375,-123.8250732421875,55.816650390625
6.749999900000001,0.5626373887062073,-0.023942016065120697,-16.919822692871094,19.4854736328125,-74.21875,36.0260009765625
6.7699999,0.8954314589500427,-0.9193734526634216,-17.975666046142578,27.9388427734375,-50.689697265625,35.8123779296875
6.789999900000001,1.1659762859344482,-1.6352397203445435,-18.47365951538086,28.5491943359375,-24.7802734375,20.1416015625
6.8099999,1.3192051649093628,-2.389413356781006,-18.696321487426758,18.3563232421875,-1.8310546875,1.5869140625
6.829999900000001,1.314416766166687,-2.832340717315674,-18.6053409576416,-1.6632080078125,34.8968505859375,-22.552490234375
6.8499999,1.1827356815338135,-2.9472622871398926,-18.339584350585938,-12.725830078125,64.3310546875,-36.68212890625
6.869999900000001,0.9744400978088379,-2.561795711517334,-18.04749298095703,-2.13623046875,75.9735107421875,-41.229248046875
6.8899999,0.7134721279144287,-1.8124107122421265,-17.638084411621094,20.5078125,97.35107421875,-51.1627197265625
6.909999900000001,0.3902548849582672,-0.8810662031173706,-17.25022315979004,26.641845703125,127.1209716796875,-63.934326171875
6.9299999,-0.0454898327589035,0.15562310814857483,-16.936582565307617,18.6614990234375,137.451171875,-72.8607177734375
6.949999900000001,-0.608127236366272,1.3503297567367554,-16.15128517150879,26.85546875,167.9229736328125,-79.7119140625
6.9699999,-1.2641384601593018,2.4660277366638184,-14.963760375976562,20.0958251953125,179.99267578125,-75.5767822265625
6.989999900000001,-1.8698714971542358,3.339911460876465,-12.866439819335938,9.2315673828125,183.319091796875,-71.59423828125
7.0099999,-2.3032219409942627,4.048594951629639,-10.201693534851074,6.4849853515625,166.015625,-88.226318359375
7.029999900000001,-2.4420857429504395,4.960785865783691,-6.933608055114746,10.162353515625,150.7415771484375,-106.8572998046875
7.0499999,-2.2601263523101807,5.705382823944092,-3.84269380569458,15.167236328125,118.65234375,-81.4208984375
7.069999900000001,-1.843535304069519,6.761225700378418,-1.2617442607879639,4.0435791015625,84.3658447265625,-59.4635009765625
7.0899999000000005,-1.2952631711959839,8.087613105773926,0.7445967197418213,-10.92529296875,80.56640625,-72.296142578125
7.109999900000001,-0.7972691655158997,9.339780807495117,1.922544002532959,-0.3662109375,55.908203125,-49.1180419921875
7.1299999000000005,-0.40940847992897034,10.771512985229492,2.559401512145996,24.169921875,14.34326171875,-12.9547119140625
7.149999900000001,-0.1412578970193863,11.944672584533691,2.7293899059295654,43.4722900390625,-11.23046875,10.345458984375
7.1699999000000005,0.002394201699644327,12.710816383361816,2.427720546722412,38.4979248046875,-32.3028564453125,21.728515625
7.1899999,0.05506663769483566,12.876016616821289,1.8698714971542358,30.6549072265625,-50.1556396484375,42.449951171875
7.209999900000001,-0.038307227194309235,12.631808280944824,1.1348515748977661,35.9954833984375,-77.1636962890625,68.4967041015625
7.2299999,-0.28730419278144836,12.174515724182129,0.3758896589279175,52.2613525390625,-102.691650390625,84.4268798828125
7.249999900000001,-0.5817909836769104,11.276689529418945,-0.6057330369949341,48.2025146484375,-131.6680908203125,107.6812744140625
7.2699999,-0.9528923034667969,9.799467086791992,-1.8770540952682495,19.2413330078125,-147.5067138671875,135.6048583984375
7.289999900000001,-1.3072341680526733,8.02536392211914,-3.5194764137268066,-7.9193115234375,-153.3966064453125,130.6304931640625
7.3099999,-1.5825673341751099,5.916072368621826,-5.47075080871582,4.0283203125,-159.8358154296875,121.9635009765625
7.329999900000001,-1.7621324062347412,3.847482204437256,-7.812280178070068,16.0369873046875,-174.957275390625,129.94384765625
7.3499999,-1.5275006294250488,-0.05506663769483566,-13.24711799621582,3.23486328125,-128.082275390625,132.1258544921875
7.369999900000001,-1.1180921792984009,-2.2673089504241943,-15.784972190856934,27.008056640625,-98.9532470703125,117.767333984375
7.3899999,-0.6488286852836609,-4.924872875213623,-17.93975257873535,51.9256591796875,-104.91943359375,94.90966796875
7.409999900000001,-0.2106897532939911,-7.42681360244751,-19.69230842590332,47.3480224609375,-90.6219482421875,57.2662353515625
7.4299999,0.08140286058187485,-9.655815124511719,-21.02587890625,25.848388671875,-32.7301025390625,23.8037109375
7.449999900000001,0.19632454216480255,-11.252747535705566,-21.88300323486328,-6.5765380859375,24.0020751953125,-1.220703125
7.4699999,0.08858546614646912,-12.011710166931152,-22.05299186706543,-36.0565185546875,49.01123046875,-35.94970703125
7.489999900000001,-0.1628057211637497,-11.748347282409668,-21.39937400817871,-34.027099609375,80.169677734375,-83.8623046875
7.5099999,-0.507570743560791,-10.582371711730957,-20.211851119995117,-20.843505859375,108.70361328125,-108.7188720703125
7.529999900000001,-0.8690952062606812,-8.17380428314209,-18.808849334716797,-23.8189697265625,125.2593994140625,-126.5716552734375
7.5499999,-1.2617442607879639,-5.066130638122559,-17.264589309692383,-20.660400390625,145.3399658203125,-128.7384033203125
7.569999900000001,-1.7405846118927002,-1.9632453918457031,-15.76821231842041,-2.0294189453125,160.400390625,-112.8997802734375
7.5899999000000005,-2.3367409706115723,0.8834604024887085,-14.058752059936523,4.608154296875,180.6488037109375,-120.5596923828125
7.609999900000001,-2.980781078338623,3.2609026432037354,-11.949460983276367,3.90625,190.2313232421875,-138.519287109375
7.6299999000000005,-3.466804027557373,5.276820659637451,-9.30386734008789,-5.9661865234375,177.2918701171875,-135.101318359375
7.649999900000001,-3.6391866207122803,6.964732646942139,-6.356605529785156,-15.44189453125,136.993408203125,-112.85400390625
7.6699999000000005,-3.375824451446533,8.688557624816895,-3.093308687210083,-5.8746337890625,124.8321533203125,-106.0333251953125
7.6899999,-2.7293899059295654,10.261548042297363,-0.20350714027881622,-1.0223388671875,93.841552734375,-97.2747802734375
7.709999900000001,-1.8698714971542358,11.860875129699707,2.2409727573394775,16.17431640625,46.4324951171875,-59.326171875
7.7299999,-0.9528923034667969,13.524845123291016,3.957615375518799,38.238525390625,9.185791015625,-21.0418701171875
7.749999900000001,-0.19871874153614044,14.800954818725586,4.7405195236206055,44.43359375,-27.8472900390625,19.8974609375
7.7699999,0.2513911724090576,15.342044830322266,4.627991676330566,52.4139404296875,-57.06787109375,54.9774169921875
7.789999900000001,0.31364041566848755,15.054739952087402,3.663128614425659,66.0400390625,-85.8154296875,76.934814453125
7.8099999,-0.035913024097681046,14.001291275024414,1.9991583824157715,89.324951171875,-112.5335693359375,96.6796875
7.829999900000001,-0.6272808313369751,12.543222427368164,-0.1867477297782898,93.109130859375,-127.0751953125,120.05615234375
7.8499999,-1.2761094570159912,10.584765434265137,-2.693476915359497,54.412841796875,-127.685546875,151.1993408203125
7.869999900000001,-1.8315643072128296,8.195352554321289,-5.166687488555908,10.101318359375,-122.6959228515625,170.2117919921875
7.8899999,-2.1787235736846924,5.57370138168335,-7.189787864685059,6.34765625,-120.6207275390625,158.38623046875
7.909999900000001,-2.346317768096924,2.786850690841675,-8.987833023071289,29.5867919921875,-146.4996337890625,150.8941650390625
7.9299999,-2.3367409706115723,0.22505496442317963,-10.632649421691895,38.9404296875,-161.4990234375,152.3895263671875
7.949999900000001,-2.145204782485962,-2.604891538619995,-12.27267837524414,51.2542724609375,-128.7841796875,165.374755859375
7.9699999,-1.8124107122421265,-5.676652431488037,-14.018051147460938,59.6466064453125,-102.6763916015625,146.8505859375
7.989999900000001,-1.3934253454208374,-9.023746490478516,-15.61019515991211,46.051025390625,-95.3369140625,99.5330810546875
8.0099999,-0.9983820915222168,-12.200851440429688,-17.130512237548828,28.564453125,-89.4927978515625,59.75341796875
8.0299999,-0.7350199222564697,-14.67406177520752,-18.289306640625,13.763427734375,-42.0379638671875,27.1148681640625
8.049999900000001,-0.7015010714530945,-16.20635223388672,-19.25177574157715,-24.59716796875,1.7852783203125,-12.7716064453125
8.069999900000001,-0.8595184087753296,-16.34760856628418,-19.716251373291016,-63.1561279296875,31.3873291015625,-69.4427490234375
8.0899999,-1.137245774269104,-15.150507926940918,-19.460071563720703,-48.675537109375,68.206787109375,-107.0404052734375
8.1099999,-1.4484920501708984,-12.662932395935059,-18.684350967407227,-35.247802734375,90.0421142578125,-117.3248291015625
8.129999900000001,-1.702277421951294,-9.39245319366455,-17.42978858947754,-41.717529296875,105.1025390625,-125.8087158203125
8.149999900000001,-1.9369091987609863,-6.196194171905518,-16.021997451782227,-37.872314453125,111.5264892578125,-133.72802734375
8.1699999,-2.161964178085327,-3.3207578659057617,-14.61420726776123,-22.94921875,118.804931640625,-148.9715576171875
8.1899999,-2.3965959548950195,-0.9840168952941895,-13.532028198242188,-8.60595703125,120.4986572265625,-147.552490234375
8.2099999,-2.647987127304077,1.1779472827911377,-12.629413604736328,-14.3890380859375,131.500244140625,-141.8304443359375
8.229999900000001,-2.846705913543701,2.669534921646118,-11.717223167419434,-33.69140625,153.0609130859375,-121.1395263671875
8.2499999,-2.911349296569824,3.9384617805480957,-10.244789123535156,-43.243408203125,165.191650390625,-120.7275390625
8.2699999,-2.75812029838562,5.518634796142578,-7.989450931549072,-18.24951171875,148.8189697265625,-152.008056640625
8.2899999,-2.346317768096924,7.12035608291626,-5.3127336502075195,12.8631591796875,98.358154296875,-116.39404296875
8.309999900000001,-1.766920804977417,8.892065048217773,-2.6455929279327393,4.241943359375,64.0869140625,-57.2052001953125
8.3299999,-1.161187767982483,10.704475402832031,-0.5434837937355042,-22.4609375,57.7850341796875,-50.7965087890625
8.3499999,-0.6871358752250671,11.906365394592285,0.8810662031173706,-23.3917236328125,41.473388671875,-41.6259765625
8.3699999,-0.35434186458587646,12.890381813049316,1.8698714971542358,2.349853515625,6.988525390625,-2.74658203125
8.389999900000001,-0.16519992053508759,13.697227478027344,2.3989901542663574,25.0091552734375,-36.1480712890625,34.942626953125
8.4099999,-0.12449848651885986,14.118607521057129,2.518700122833252,31.524658203125,-68.2220458984375,69.9005126953125
8.4299999,-0.26815059781074524,13.87918758392334,1.8914192914962769,34.5306396484375,-95.9320068359375,100.1129150390625
8.4499999,-0.6057330369949341,12.94066047668457,0.5578489899635315,28.7017822265625,-118.255615234375,125.4119873046875
8.469999900000001,-1.137245774269104,11.267112731933594,-1.237802267074585,10.1318359375,-121.734619140625,148.193359375
8.4899999,-1.7286136150360107,9.071630477905273,-3.378218650817871,-4.1046142578125,-136.90185546875,158.1573486328125
8.5099999,-2.3080103397369385,6.380547523498535,-5.674258232116699,3.814697265625,-160.2020263671875,164.36767578125
8.5299999,-2.736572504043579,3.4955344200134277,-8.26239013671875,4.82177734375,-172.119140625,165.6646728515625
8.549999900000001,-2.9544448852539062,0.4644751250743866,-11.133037567138672,9.735107421875,-153.0303955078125,155.1971435546875
8.569999900000001,-2.8850131034851074,-2.6024973392486572,-13.848062515258789,28.778076171875,-104.095458984375,144.83642578125
8.5899999,-2.513911724090576,-5.837063789367676,-16.350004196166992,44.952392578125,-94.17724609375,130.4473876953125
8.6099999,-1.8938134908676147,-8.700529098510742,-18.195932388305664,40.46630859375,-91.5985107421875,92.0257568359375
8.629999900000001,-1.1516109704971313,-11.185709953308105,-19.460071563720703,22.705078125,-58.77685546875,57.0526123046875
8.649999900000001,-0.45489832758903503,-12.94305419921875,-20.185514450073242,-2.0294189453125,-10.0860595703125,33.538818359375
8.6699999,0.004788403399288654,-13.93664836883545,-20.29325294494629,-20.721435546875,20.3094482421875,-0.6103515625
8.6899999,0.18914192914962769,-14.008474349975586,-19.80962562561035,-27.77099609375,39.55078125,-50.628662109375
8.709999900000001,0.06703764945268631,-13.263877868652344,-19.01235580444336,-39.520263671875,58.4869384765625,-80.9783935546875
8.729999900000001,-0.22026655077934265,-11.616666793823242,-17.958906173706055,-31.9671630859375,92.1478271484375,-96.25244140625
8.7499999,-0.6057330369949341,-9.320627212524414,-17.118541717529297,-24.383544921875,106.353759765625,-112.823486328125
8.7699999,-1.015141487121582,-6.509834289550781,-16.306907653808594,-14.373779296875,117.9351806640625,-136.1541748046875
8.7899999,-1.4460978507995605,-3.691859006881714,-15.617377281188965,-10.7879638671875,133.4991455078125,-132.6446533203125
8.809999900000001,-1.900996208190918,-1.213860273361206,-14.901511192321777,-17.791748046875,152.5726318359375,-108.7188720703125
8.8299999,-2.322375535964966,1.1659762859344482,-13.838485717773438,-24.0325927734375,172.821044921875,-120.330810546875
8.8499999,-2.6575639247894287,3.066972494125366,-12.164938926696777,-11.627197265625,178.8787841796875,-125.8392333984375
8.8699999,-2.717418909072876,6.023811340332031,-7.407660007476807,-1.617431640625,136.3677978515625,-98.663330078125
8.889999900000001,-2.346317768096924,7.343016624450684,-4.738125324249268,-16.448974609375,126.15966796875,-99.212646484375
8.9099999,-1.7286136150360107,8.47547435760498,-2.0853497982025146,-17.364501953125,106.4453125,-77.1942138671875
8.9299999,-0.9696516990661621,9.44752025604248,0.21787235140800476,-9.246826171875,64.8193359375,-42.877197265625
8.9499999,-0.22026655077934265,10.381258964538574,2.164358377456665,-7.0037841796875,26.3519287109375,-32.6385498046875
8.969999900000001,0.40701428055763245,11.061211585998535,3.531447410583496,-3.326416015625,-1.708984375,-16.17431640625
8.9899999,0.8140285611152649,11.42752456665039,4.110844135284424,-1.3885498046875,-42.0989990234375,23.101806640625
9.0099999,0.9409212470054626,11.585541725158691,4.019864559173584,-2.777099609375,-74.8443603515625,50.47607421875
9.0299999,0.7541735172271729,11.374852180480957,3.1938650608062744,-1.3275146484375,-101.806640625,64.971923828125
9.049999900000001,0.28969839215278625,10.828974723815918,1.6711528301239014,9.2010498046875,-131.8511962890625,84.8541259765625
9.069999900000001,-0.35913026332855225,10.105925559997559,-0.36152446269989014,14.22119140625,-151.42822265625,108.9935302734375
9.0899999,-1.0797849893569946,9.255983352661133,-2.6886885166168213,11.23046875,-158.4014892578125,128.875732421875
9.1099999,-1.702277421951294,8.180987358093262,-5.085284233093262,10.528564453125,-165.313720703125,143.829345703125
9.129999900000001,-2.166752576828003,6.560112476348877,-7.469909191131592,16.41845703125,-176.69677734375,164.5355224609375
9.149999900000001,-2.456450939178467,4.3191399574279785,-9.967061996459961,20.904541015625,-183.3648681640625,173.3551025390625
9.1699999,-2.5785553455352783,1.4269442558288574,-12.354081153869629,48.065185546875,-155.3955078125,159.423828125
9.1899999,-2.5522189140319824,-2.0638017654418945,-14.925453186035156,70.1446533203125,-136.138916015625,144.5770263671875
9.209999900000001,-2.387019157409668,-5.839457988739014,-17.55668067932129,43.88427734375,-130.584716796875,128.021240234375
9.229999900000001,-2.073378562927246,-9.334992408752441,-19.855113983154297,9.3231201171875,-78.1402587890625,90.1031494140625
9.2499999,-1.6376339197158813,-12.29662036895752,-21.6818904876709,-7.5836181640625,-20.0653076171875,48.52294921875
9.2699999,-1.1683704853057861,-14.286201477050781,-22.488737106323242,-22.5372314453125,23.7579345703125,9.4146728515625
9.2899999,-0.7733271718025208,-15.00925064086914,-22.177490234375,-38.787841796875,46.9207763671875,-33.7371826171875
9.309999900000001,-0.5602431893348694,-14.504074096679688,-20.932504653930664,-41.778564453125,68.878173828125,-71.624755859375
9.3299999,-0.5386953949928284,-12.899958610534668,-19.244592666625977,-35.919189453125,89.5233154296875,-97.686767578125
9.3499999,-0.7015010714530945,-10.287884712219238,-17.513586044311523,-26.4129638671875,104.55322265625,-117.85888671875
9.3699999,-0.9624691009521484,-7.151480674743652,-15.988478660583496,-8.6212158203125,117.4163818359375,-132.50732421875
9.389999900000001,-1.3024457693099976,-4.0749311447143555,-14.786589622497559,0.0457763671875,124.9542236328125,-126.89208984375
9.4099999,-1.6496049165725708,-1.4437036514282227,-13.91270637512207,-10.223388671875,135.284423828125,-119.964599609375
9.4299999,-1.98958158493042,0.49799394607543945,-13.225569725036621,-13.641357421875,153.4423828125,-124.3438720703125
9.4499999,-2.279279947280884,2.164358377456665,-12.287043571472168,-1.4495849609375,174.8504638671875,-136.7034912109375
9.469999900000001,-2.43011474609375,3.7828385829925537,-11.051634788513184,-0.1678466796875,166.9464111328125,-129.5928955078125
9.4899999,-2.4444799423217773,5.212177276611328,-9.39245319366455,-14.801025390625,144.7296142578125,-93.963623046875
9.5099999,-2.2457611560821533,6.847416877746582,-7.161057472229004,-28.5186767578125,152.03857421875,-90.6982421875
9.5299999,-1.8507179021835327,8.202534675598145,-4.627991676330566,-14.9078369140625,138.0462646484375,-91.4154052734375
9.549999900000001,-1.2976573705673218,9.246406555175781,-1.8626888990402222,16.998291015625,93.017578125,-56.8084716796875
9.569999900000001,-0.6655880808830261,10.232817649841309,0.7661445140838623,18.7530517578125,45.6085205078125,-36.6058349609375
9.5899999,-0.08858546614646912,10.807426452636719,3.0142998695373535,6.65283203125,19.95849609375,-22.9949951171875
9.6099999,0.2992752194404602,11.010933876037598,4.51067590713501,0.9765625,-13.214111328125,0.2288818359375
9.629999900000001,0.4620809257030487,11.051634788513184,5.197812080383301,5.4931640625,-60.3485107421875,18.9361572265625
9.649999900000001,0.3902548849582672,10.812214851379395,5.152322292327881,8.7738037109375,-94.0399169921875,46.4324951171875
9.6699999,0.090979665517807,10.438719749450684,4.23773717880249,-13.4124755859375,-123.504638671875,73.8677978515625
9.6899999,-0.38546648621559143,9.856928825378418,2.6144683361053467,-44.00634765625,-147.3388671875,92.742919921875
9.709999900000001,-1.0319008827209473,8.78432559967041,0.3878606855869293,-29.84619140625,-174.8199462890625,115.081787109375
9.729999900000001,-1.7812861204147339,7.402871608734131,-2.2625205516815186,13.6871337890625,-199.21875,117.5689697265625
9.7499999,-2.4660277366638184,5.765237808227539,-5.315127849578857,27.099609375,-217.6055908203125,108.94775390625
9.7699999,-2.9879636764526367,3.9624037742614746,-8.959102630615234,10.5133056640625,-227.691650390625,119.6441650390625
9.7899999,-3.2609026432037354,1.7310078144073486,-12.854469299316406,34.5458984375,-185.9130859375,144.989013671875
9.809999900000001,-3.2369606494903564,-1.2497732639312744,-16.740259170532227,91.552734375,-132.232666015625,140.411376953125
9.8299999,-2.8419175148010254,-4.486733913421631,-20.24297523498535,73.1201171875,-115.1580810546875,80.6884765625
9.8499999,-2.1499931812286377,-7.987056732177734,-22.701820373535156,22.613525390625,-81.5887451171875,53.0242919921875
9.8699999,-1.1803414821624756,-10.532093048095703,-23.965959548950195,-7.8887939453125,-24.871826171875,33.02001953125
9.889999900000001,-0.23702596127986908,-12.018892288208008,-24.167072296142578,-17.88330078125,11.16943359375,-2.655029296875
9.9099999,0.45250412821769714,-12.212822914123535,-23.15911293029785,-30.242919921875,44.8760986328125,-40.4052734375
9.9299999,0.8188169598579407,-11.118672370910645,-21.50711441040039,-51.7425537109375,72.906494140625,-70.770263671875
9.9499999,0.811634361743927,-9.17697525024414,-19.484012603759766,-33.99658203125,88.531494140625,-67.901611328125
9.969999900000001,0.5841852426528931,-6.655880928039551,-17.42739486694336,-8.36181640625,110.260009765625,-71.8841552734375
9.9899999,0.19871874153614044,-4.256890773773193,-15.878345489501953,-11.688232421875,110.198974609375,-85.38818359375
10.0099999,-0.31124621629714966,-2.300827741622925,-14.640542984008789,-12.1917724609375,128.35693359375,-96.923828125
10.0299999,-0.8595184087753296,-0.5793967843055725,-13.747506141662598,-12.725830078125,148.0712890625,-107.72705078125
10.049999900000001,-1.3766659498214722,0.7948749661445618,-13.022063255310059,-13.3056640625,147.9949951171875,-95.0469970703125
10.069999900000001,-1.7932571172714233,2.006340980529785,-12.112266540527344,-10.162353515625,152.6336669921875,-81.23779296875
10.0899999,-2.0422539710998535,3.155557870864868,-10.924742698669434,-17.9443359375,163.2080078125,-89.0960693359375
10.1099999,-2.1140801906585693,4.144362926483154,-9.222464561462402,-12.054443359375,161.712646484375,-87.0361328125
10.129999900000001,-1.9704279899597168,5.202600479125977,-7.074865818023682,1.40380859375,140.6097412109375,-75.714111328125
10.149999900000001,-1.6160861253738403,6.368576526641846,-4.570530891418457,-0.67138671875,111.2823486328125,-64.8193359375
10.1699999,-1.0989385843276978,7.5201873779296875,-1.9584569931030273,-4.486083984375,91.705322265625,-50.811767578125
10.1899999,-0.5195417404174805,8.544905662536621,0.4381389021873474,-9.857177734375,62.01171875,-30.5328369140625
10.209999900000001,0.004788403399288654,9.473855972290039,2.513911724090576,-9.429931640625,24.9786376953125,-14.09912109375
10.229999900000001,0.4118026793003082,10.20887565612793,3.9887399673461914,-10.040283203125,-18.2952880859375,6.8206787109375
10.2499999,0.6847416758537292,10.632649421691895,4.774038314819336,-31.3873291015625,-53.985595703125,36.285400390625
10.2699999,0.7254431247711182,10.639832496643066,4.867412090301514,-42.6177978515625,-80.5511474609375,59.9822998046875
10.2899999,0.5147533416748047,10.170568466186523,4.084507942199707,-23.0865478515625,-124.2523193359375,69.2901611328125
10.309999900000001,0.05746084079146385,9.26795482635498,2.406172752380371,-4.5318603515625,-169.3878173828125,75.74462890625
10.3299999,-0.6153098344802856,8.10437297821045,-0.08140286058187485,-4.4403076171875,-180.35888671875,87.3870849609375
10.3499999,-1.2880805730819702,6.938396453857422,-3.224989652633667,-17.4407958984375,-172.8363037109375,92.987060546875
10.3699999,-1.8507179021835327,5.564124584197998,-6.406883716583252,-10.2996826171875,-165.6951904296875,102.691650390625
10.389999900000001,-2.3702597618103027,1.987187385559082,-12.29662036895752,33.8897705078125,-183.2427978515625,93.505859375
10.4099999,-2.3271639347076416,-0.07422025501728058,-14.798561096191406,26.3671875,-148.406982421875,80.0018310546875
10.4299999,-2.099714994430542,-2.2625205516815186,-17.173608779907227,26.2298583984375,-122.00927734375,82.9315185546875
10.4499999,-1.7142484188079834,-4.355052947998047,-19.280506134033203,15.0146484375,-112.73193359375,72.357177734375
10.469999900000001,-1.2330138683319092,-6.428431510925293,-20.942081451416016,6.0577392578125,-72.8759765625,41.778564453125
10.4899999,-0.6871358752250671,-8.216899871826172,-22.029048919677734,-9.3231201171875,-16.3726806640625,7.5225830078125
10.5099999,-0.17956513166427612,-9.277531623840332,-22.395362854003906,-32.7301025390625,22.8118896484375,-25.1617431640625
10.5299999,0.2106897532939911,-9.294290542602539,-21.981164932250977,-43.64013671875,50.78125,-46.56982421875
10.549999900000001,0.4357447028160095,-8.109161376953125,-20.95884132385254,-35.980224609375,76.35498046875,-63.0340576171875
10.569999900000001,0.4572925269603729,-6.121973514556885,-19.656396865844727,-21.17919921875,101.4251708984375,-65.9637451171875
10.5899999,0.22505496442317963,-3.8546648025512695,-18.389863967895508,-13.8092041015625,116.14990234375,-61.3861083984375
10.6099999,-0.20350714027881622,-1.7597382068634033,-17.31247329711914,3.47900390625,133.4381103515625,-73.4100341796875
10.629999900000001,-0.790086567401886,-0.08619125932455063,-16.417041778564453,11.138916015625,156.5399169921875,-91.3543701171875
10.649999900000001,-1.45806884765625,1.2976573705673218,-15.512032508850098,3.5858154296875,180.72509765625,-94.4976806640625
10.6699999,-2.0877439975738525,2.5450363159179688,-14.226346969604492,0.0152587890625,197.0062255859375,-84.3353271484375
10.6899999,-2.5330653190612793,3.756502389907837,-12.318167686462402,0.5035400390625,197.9217529296875,-79.0557861328125
10.709999900000001,-2.7102363109588623,4.896142482757568,-9.921571731567383,-3.35693359375,173.065185546875,-77.3468017578125
10.729999900000001,-2.561795711517334,5.963956356048584,-7.0341644287109375,-3.60107421875,163.3758544921875,-70.00732421875
10.7499999,-2.094926595687866,6.900089263916016,-4.043806552886963,-4.8828125,148.92578125,-57.037353515625
10.7699999,-1.37906014919281,7.6566572189331055,-1.1899182796478271,-5.4473876953125,112.213134765625,-43.487548828125
10.7899999,-0.5722141861915588,8.161833763122559,1.316810965538025,-4.0130615234375,70.80078125,-32.7606201171875
10.809999900000001,0.19153612852096558,8.556877136230469,3.2800562381744385,-2.5177001953125,37.78076171875,-26.30615234375
10.8299999,0.8068459630012512,8.83699893951416,4.548983097076416,-2.1514892578125,0.9613037109375,-11.4288330078125
10.8499999,1.213860273361206,9.01895809173584,5.130774021148682,-2.4871826171875,-38.330078125,12.4969482421875
10.8699999,1.400607943534851,9.08838939666748,5.0900726318359375,-0.9002685546875,-73.6846923828125,28.4271240234375
10.889999900000001,1.3215993642807007,8.918401718139648,4.3622355461120605,4.0740966796875,-109.2529296875,40.2679443359375
10.9099999,0.9983820915222168,8.643068313598633,2.9903578758239746,4.08935546875,-138.7481689453125,52.6123046875
10.9299999,0.42616790533065796,8.300697326660156,0.9457096457481384,-9.0484619140625,-158.0810546875,71.0296630859375
10.9499999,-0.3016694188117981,7.668628215789795,-1.3670891523361206,-17.913818359375,-164.703369140625,93.719482421875
10.969999900000001,-1.0630255937576294,6.775590896606445,-4.0533833503723145,-5.6304931640625,-182.6324462890625,97.96142578125
10.9899999,-1.699883222579956,5.568912982940674,-6.6846113204956055,22.0489501953125,-190.2618408203125,88.6688232421875
11.0099999,-2.1068975925445557,4.046200752258301,-9.457097053527832,12.9852294921875,-182.7239990234375,93.780517578125
11.0299999,-2.1930887699127197,2.434903144836426,-12.196063041687012,-1.220703125,-166.534423828125,101.07421875
11.049999900000001,-1.9776105880737305,0.7158663272857666,-14.595053672790527,16.2811279296875,-136.1083984375,96.9390869140625
11.069999900000001,-1.5921441316604614,-1.1971008777618408,-16.94615936279297,32.6080322265625,-137.9852294921875,83.4808349609375
11.0899999,-1.1348515748977661,-3.1004912853240967,-19.09136390686035,31.25,-126.1138916015625,68.3135986328125
11.1099999,-0.7110779285430908,-4.989516258239746,-21.131223678588867,5.6610107421875,-67.535400390625,49.835205078125
11.129999900000001,-0.42616790533065796,-6.811503887176514,-22.876596450805664,-9.0179443359375,-11.04736328125,35.247802734375
11.149999900000001,-0.26096799969673157,-8.056488990783691,-23.836671829223633,-16.78466796875,34.271240234375,-6.683349609375
11.1699999,-0.2801215946674347,-8.746018409729004,-23.788787841796875,-25.5584716796875,67.4591064453125,-40.58837890625
11.1899999,-0.4213795065879822,-8.468291282653809,-22.73055076599121,-24.139404296875,97.7630615234375,-58.349609375
11.209999900000001,-0.629675030708313,-7.206547260284424,-20.97081184387207,-10.6201171875,125.274658203125,-78.8116455078125
11.229999900000001,-0.8834604024887085,-5.348646640777588,-18.94292449951172,8.3770751953125,136.71875,-88.4246826171875
11.2499999,-1.1875240802764893,-3.224989652633667,-16.864757537841797,29.693603515625,149.3072509765625,-92.529296875
11.2699999,-1.558625340461731,-1.1899182796478271,-14.985308647155762,26.2451171875,162.4908447265625,-101.5625
11.2899999,-1.9393033981323242,0.8068459630012512,-13.316550254821777,10.3912353515625,171.9207763671875,-112.6556396484375
11.309999900000001,-2.248155355453491,2.765302896499634,-11.645397186279297,8.36181640625,181.15234375,-108.3221435546875
11.3299999,-2.389413356781006,4.6040496826171875,-9.75637149810791,10.43701171875,184.6466064453125,-84.47265625
11.3499999,-2.2864625453948975,6.275202751159668,-7.465120792388916,2.777099609375,169.25048828125,-69.244384765625
11.3699999,-1.9177556037902832,7.692570209503174,-4.766855716705322,1.1138916015625,144.6380615234375,-70.3125
11.389999900000001,-1.3263877630233765,8.645462036132812,-1.8531121015548706,8.6822509765625,110.77880859375,-53.375244140625
11.4099999,-0.5746083855628967,9.41639518737793,0.9074024558067322,15.8843994140625,68.90869140625,-32.28759765625
11.4299999,0.19153612852096558,9.971850395202637,3.205836057662964,12.7105712890625,28.1524658203125,-18.524169921875
11.4499999,0.8355764150619507,10.223240852355957,4.821922302246094,5.767822265625,-8.4075927734375,3.4332275390625
11.469999900000001,1.2497732639312744,10.194510459899902,5.669469833374023,2.5634765625,-46.0205078125,25.238037109375
11.4899999,1.3335703611373901,9.859322547912598,5.638344764709473,6.195068359375,-88.592529296875,40.6951904296875
11.5099999,1.0845733880996704,9.222464561462402,4.742913722991943,15.3045654296875,-126.46484375,53.955078125
11.5299999,0.5267243981361389,8.458714485168457,2.9544448852539062,21.3470458984375,-153.2135009765625,67.0928955078125
11.549999900000001,-0.27054479718208313,7.570465564727783,0.5171475410461426,13.12255859375,-166.1834716796875,84.41162109375
11.569999900000001,-1.1420341730117798,6.687005519866943,-2.343923568725586,-1.495361328125,-177.67333984375,97.3358154296875
11.5899999,-1.9081788063049316,5.623979568481445,-5.360617637634277,-8.697509765625,-189.453125,108.1390380859375
11.6099999,-2.4396915435791016,4.137180328369141,-8.219294548034668,5.7525634765625,-178.466796875,116.6534423828125
11.629999900000001,-2.609679937362671,2.1930887699127197,-11.046846389770508,3.662109375,-173.7213134765625,111.9537353515625
11.649999900000001,-2.4588451385498047,-0.2106897532939911,-13.82172679901123,3.143310546875,-169.4488525390625,91.1865234375
11.6699999,-2.0614075660705566,-2.5953147411346436,-16.5247802734375,14.4195556640625,-138.031005859375,69.580078125
11.6899999,-1.5466543436050415,-4.63517427444458,-19.278112411499023,15.2587890625,-105.46875,51.5899658203125
11.709999900000001,-1.0654197931289673,-6.179434776306152,-21.62442970275879,5.2642822265625,-58.28857421875,44.3878173828125
11.729999900000001,-0.6871358752250671,-7.299921035766602,-23.38656234741211,-12.8936767578125,-13.2904052734375,27.64892578125
11.7499999,-0.5027823448181152,-7.943961143493652,-24.296358108520508,-14.3280029296875,21.8048095703125,-9.0789794921875
11.7699999,-0.4884171485900879,-8.022970199584961,-24.138341903686523,-5.7220458984375,65.3076171875,-42.327880859375
11.7899999,-0.5937620401382446,-7.242460250854492,-23.072921752929688,-10.6353759765625,98.1903076171875,-59.4024658203125
11.809999900000001,-0.7469909191131592,-5.7772088050842285,-21.19347381591797,-11.322021484375,122.8485107421875,-62.1795654296875
11.8299999,-0.8978256583213806,-3.9600095748901367,-18.918981552124023,-1.6937255859375,136.3983154296875,-65.2313232421875
11.8499999,-1.0247182846069336,-2.2002713680267334,-16.70913314819336,14.7857666015625,143.096923828125,-79.3914794921875
11.8699999,-1.1875240802764893,-0.7230489253997803,-14.690821647644043,26.8096923828125,162.90283203125,-89.8284912109375
11.889999900000001,-1.414973258972168,1.7956513166427612,-11.39400577545166,-24.1241455078125,173.5076904296875,-85.4644775390625
11.9099999,-1.4077905416488647,2.9903578758239746,-9.732429504394531,-23.37646484375,178.9093017578125,-81.451416015625
11.9299999,-1.2737152576446533,4.235342979431152,-7.838616371154785,-2.7008056640625,181.3507080078125,-83.831787109375
11.9499999,-0.9792284965515137,5.504269599914551,-5.655104637145996,3.90625,159.11865234375,-71.624755859375
11.969999900000001,-0.5482721924781799,6.636727333068848,-3.268085241317749,-8.2855224609375,114.9749755859375,-47.30224609375
11.9899999,-0.023942016065120697,7.568071365356445,-0.9217676520347595,-18.524169921875,82.7178955078125,-33.966064453125
12.0099999,0.4884171485900879,8.092401504516602,1.192312479019165,-15.13671875,60.302734375,-28.106689453125
12.0299999,0.9193734526634216,8.31985092163086,2.942473888397217,-7.9803466796875,24.1851806640625,-15.7928466796875
12.049999900000001,1.2090718746185303,8.180987358093262,4.180276393890381,-10.5438232421875,-28.3203125,3.0975341796875
12.069999900000001,1.3455413579940796,7.86734676361084,4.999093055725098,-23.681640625,-62.3321533203125,14.617919921875
12.0899999,1.2641384601593018,7.4555439949035645,5.049371242523193,-42.1600341796875,-95.39794921875,13.8702392578125
12.1099999,0.9552865028381348,6.921637058258057,4.412513732910156,-37.2314453125,-133.1329345703125,28.228759765625
12.129999900000001,0.45010992884635925,6.466738700866699,2.8443117141723633,-17.9595947265625,-172.6837158203125,41.6259765625
12.149999900000001,-0.1149216815829277,6.011840343475342,0.38307225704193115,-30.029296875,-190.1397705078125,46.5087890625
12.1699999,-0.5506663918495178,5.094861030578613,-2.779668092727661,-67.291259765625,-176.971435546875,59.478759765625
12.1899999,-0.7469909191131592,3.861847400665283,-6.36378812789917,-86.5478515625,-169.647216796875,54.1534423828125
12.209999900000001,-0.727837324142456,2.3942017555236816,-9.888052940368652,-59.661865234375,-164.55078125,25.45166015625
12.229999900000001,-0.6057330369949341,1.1228805780410767,-13.503297805786133,-55.4046630859375,-157.1807861328125,5.2337646484375
12.2499999,-0.4381389021873474,0.47884035110473633,-17.31486701965332,-89.6148681640625,-132.8277587890625,-3.570556640625
12.2699999,-0.31842881441116333,0.43095630407333374,-20.40338706970215,-99.8687744140625,-31.9976806640625,-2.6702880859375
12.289999900000002,-0.17238251864910126,0.9552865028381348,-22.316354751586914,-75.897216796875,35.3240966796875,-16.448974609375
12.309999900000001,0.033518824726343155,1.8100165128707886,-22.47916030883789,-54.107666015625,16.265869140625,-33.0810546875
12.3299999,0.3734954595565796,3.0382418632507324,-20.36029052734375,-34.3017578125,36.102294921875,-33.14208984375
12.3499999,0.7924807667732239,4.338293552398682,-17.269376754760742,-36.31591796875,38.7420654296875,-13.916015625
12.3699999,1.2042834758758545,5.446808815002441,-13.651738166809082,-25.81787109375,27.6031494140625,3.631591796875
12.389999900000001,1.482010841369629,6.112396717071533,-10.522516250610352,-7.9498291015625,9.09423828125,2.1820068359375
12.4099999,1.5203180313110352,6.14831018447876,-8.24084186553955,7.171630859375,-2.716064453125,0.5340576171875
12.4299999,1.3120225667953491,5.906495571136475,-7.062894821166992,8.2855224609375,0.9765625,0.48828125
12.4499999,0.9433154463768005,5.492298603057861,-6.811503887176514,5.0201416015625,0.54931640625,3.72314453125
12.469999900000001,0.5315127968788147,5.0685248374938965,-7.010222434997559,17.8070068359375,1.0528564453125,8.3465576171875
12.4899999,0.19871874153614044,4.661510944366455,-7.347805023193359,20.4620361328125,-0.3662109375,7.3089599609375
12.5099999,0.021547814831137657,4.228160381317139,-7.5417351722717285,15.6402587890625,-5.1422119140625,6.561279296875
12.5299999,0.011971008032560349,3.8786067962646484,-7.627926826477051,12.0849609375,-8.5906982421875,1.8463134765625
12.549999900000001,0.1149216815829277,3.7014358043670654,-7.6111674308776855,18.4173583984375,-10.92529296875,-3.204345703125
12.569999900000001,0.2777273952960968,3.7229835987091064,-7.745242595672607,27.7862548828125,-14.9078369140625,-3.3721923828125
12.5899999,0.44771572947502136,3.8786067962646484,-8.08282470703125,24.0325927734375,-16.448974609375,1.800537109375
12.6099999,0.608127236366272,4.201824188232422,-8.643068313598633,9.857177734375,-9.918212890625,1.495361328125
12.629999900000001,0.7350199222564697,4.580107688903809,-9.35654067993164,5.31005859375,-4.33349609375,4.8828125
12.649999900000001,0.7589619159698486,4.738125324249268,-10.316615104675293,8.3770751953125,-6.622314453125,19.6990966796875
12.6699999,0.5817909836769104,4.357447147369385,-11.63342571258545,-0.0762939453125,-1.6937255859375,27.679443359375
12.6899999,0.1867477297782898,3.2824504375457764,-13.227964401245117,-30.2276611328125,30.1971435546875,6.591796875
12.709999900000001,-0.3878606855869293,1.1827356815338135,-14.958971977233887,-70.281982421875,77.45361328125,-18.7835693359375
12.729999900000001,-1.015141487121582,-1.070208191871643,-16.395492553710938,-97.10693359375,120.0408935546875,-62.68310546875
12.7499999,-1.5969325304031372,-2.8874073028564453,-17.164031982421875,-106.93359375,168.0755615234375,-118.10302734375
12.7699999,-2.1595699787139893,-3.754108190536499,-16.433799743652344,-118.682861328125,232.6507568359375,-144.2108154296875
12.789999900000002,-2.4827871322631836,-2.8419175148010254,-13.97016716003418,-145.8892822265625,265.625,-171.7681884765625
12.809999900000001,-2.6384103298187256,-1.0247182846069336,-10.29746150970459,-157.379150390625,194.580078125,-178.070068359375
12.8299999,-2.477998733520508,1.8818424940109253,-5.509057998657227,-137.0849609375,171.356201171875,-180.11474609375
12.8499999,-2.0661959648132324,5.288791656494141,-1.091755986213684,-107.421875,135.101318359375,-180.816650390625
12.8699999,-1.534683346748352,8.829815864562988,2.410961151123047,-63.079833984375,91.4154052734375,-148.0560302734375
12.889999900000001,-0.9744400978088379,12.6365966796875,4.616020679473877,-53.985595703125,44.2657470703125,-112.3199462890625
12.9099999,-0.47884035110473633,16.010026931762695,5.770026206970215,-43.9453125,22.430419921875,-56.427001953125
12.9299999,-0.0933738648891449,19.235015869140625,6.071695327758789,-10.8795166015625,-11.962890625,-4.4708251953125
12.9499999,0.11252748221158981,21.93328094482422,5.813121795654297,26.2451171875,-65.399169921875,49.5452880859375
12.969999900000001,-0.021547814831137657,23.95159339904785,5.492298603057861,67.44384765625,-96.61865234375,129.21142578125
12.9899999,-0.5746083855628967,24.78717041015625,4.745307922363281,122.039794921875,-133.2550048828125,207.275390625
13.0099999,-1.50355863571167,23.666683197021484,3.49314022064209,171.6156005859375,-169.158935546875,268.9666748046875
13.0299999,-2.6431987285614014,20.47760772705078,1.479616641998291,145.5841064453125,-173.980712890625,297.4853515625
13.049999900000001,-3.7229835987091064,15.3731689453125,-1.2186486721038818,84.3658447265625,-154.4342041015625,303.924560546875
13.069999900000001,-4.4939165115356445,9.009381294250488,-4.240131378173828,72.4945068359375,-134.9639892578125,293.701171875
13.0899999,-4.809951305389404,2.609679937362671,-7.501033782958984,60.3790283203125,-132.9498291015625,242.5537109375
13.1099999,-4.726154327392578,-3.095702886581421,-10.405200958251953,7.8582763671875,-100.6622314453125,178.1768798828125
13.129999900000001,-4.338293552398682,-7.536946773529053,-12.801796913146973,-23.8037109375,-53.924560546875,138.5650634765625
13.149999900000001,-3.799597978591919,-10.42195987701416,-14.717158317565918,-12.8631591796875,-36.31591796875,87.95166015625
13.1699999,-3.294421434402466,-12.030863761901855,-15.904682159423828,1.9073486328125,-17.8375244140625,27.3590087890625
13.1899999,-2.9065608978271484,-12.588712692260742,-16.189592361450195,-13.763427734375,29.5257568359375,-37.3687744140625
13.209999900000001,-2.6886885166168213,-12.404358863830566,-15.94777774810791,-36.3311767578125,56.21337890625,-86.181640625
13.229999900000001,-2.6408045291900635,-11.554417610168457,-14.927847862243652,-46.7376708984375,74.9053955078125,-132.26318359375
13.2499999,-2.8227639198303223,-10.642226219177246,-13.737929344177246,-35.736083984375,89.0045166015625,-171.44775390625
13.2699999,-3.2800562381744385,-9.461885452270508,-12.459425926208496,-36.2701416015625,108.2763671875,-229.2327880859375
13.289999900000002,-4.015076160430908,-8.04930591583252,-11.073183059692383,-65.3076171875,141.17431640625,-285.369873046875
13.309999900000001,-4.970362663269043,-6.320692539215088,-9.646238327026367,-75.68359375,145.99609375,-309.9365234375
13.3299999,-5.995080947875977,-3.24414324760437,-7.781155586242676,-76.385498046875,143.0816650390625,-344.8486328125
13.3499999,-6.72531270980835,1.4676456451416016,-5.351040840148926,-70.2056884765625,153.8848876953125,-367.3248291015625
13.3699999,-6.959944248199463,7.479485988616943,-2.978386878967285,-62.0269775390625,121.03271484375,-311.6912841796875
13.389999900000001,-6.598419666290283,14.5806884765625,-0.5602431893348694,-55.0079345703125,92.8497314453125,-242.034912109375
13.4099999,-4.513070106506348,27.744009017944336,2.607285737991333,-34.2559814453125,48.5687255859375,-110.4583740234375
13.4299999,-3.3734302520751953,31.95062255859375,3.19865345954895,3.8604736328125,11.2762451171875,-4.57763671875
13.4499999,-2.535459518432617,33.89471435546875,3.224989652633667,30.1513671875,-18.1427001953125,79.315185546875
13.469999900000001,-2.121262788772583,33.18842315673828,2.7078421115875244,48.9959716796875,-41.9158935546875,140.31982421875
13.4899999,-2.166752576828003,30.363265991210938,1.7908629179000854,66.9708251953125,-63.5528564453125,190.216064453125
13.5099999,-2.585737943649292,26.338613510131836,0.569819986820221,71.533203125,-79.7576904296875,225.341796875
13.5299999,-3.205836057662964,21.69386100769043,-0.9241618514060974,67.535400390625,-91.6595458984375,266.4947509765625
13.549999900000001,-3.8307228088378906,17.171215057373047,-2.432508945465088,66.2384033203125,-89.385986328125,292.3736572265625
13.569999900000001,-4.350264549255371,12.81855583190918,-3.93367338180542,70.8465576171875,-88.2720947265625,305.145263671875
13.5899999,-4.754884719848633,8.62391471862793,-5.339069843292236,74.493408203125,-89.6148681640625,311.7828369140625
13.6099999,-4.946420669555664,4.201824188232422,-6.801927089691162,93.56689453125,-88.226318359375,309.38720703125
13.629999900000001,-4.903325080871582,-0.15083470940589905,-8.422801971435547,71.868896484375,-64.4683837890625,264.312744140625
13.649999900000001,-4.575319290161133,-4.534617900848389,-9.847352027893066,22.1710205078125,-28.472900390625,206.695556640625
13.6699999,-3.9408559799194336,-8.528146743774414,-10.852916717529297,14.9993896484375,-13.00048828125,157.4554443359375
13.6899999,-3.1435868740081787,-11.777078628540039,-11.286267280578613,37.59765625,-24.0631103515625,87.34130859375
13.709999900000001,-2.4013843536376953,-14.041993141174316,-11.288661003112793,37.1551513671875,-16.78466796875,10.833740234375
13.729999900000001,-1.8938134908676147,-15.272612571716309,-11.106701850891113,-8.1939697265625,10.9100341796875,-53.192138671875
13.7499999,-1.7142484188079834,-15.684414863586426,-10.745177268981934,-34.637451171875,37.3992919921875,-100.2044677734375
13.7699999,-1.8962076902389526,-15.181632995605469,-10.144232749938965,-48.4619140625,44.0826416015625,-171.7376708984375
13.789999900000002,-2.4875755310058594,-14.171279907226562,-9.222464561462402,-52.0477294921875,46.08154296875,-244.9951171875
13.809999900000001,-3.471592426300049,-12.622231483459473,-8.35097599029541,-48.88916015625,49.0264892578125,-305.755615234375
13.8299999,-4.891354084014893,-10.340557098388672,-7.687781810760498,-47.515869140625,57.7545166015625,-361.8621826171875
13.8499999,-6.574477672576904,-6.174646377563477,-7.316680431365967,-52.398681640625,69.122314453125,-422.3785400390625
13.8699999,-7.924807548522949,0.14844051003456116,-7.024587631225586,-52.490234375,69.9920654296875,-425.6744384765625
13.889999900000001,-8.621520042419434,7.536946773529053,-6.665457725524902,-55.4351806640625,69.8699951171875,-307.55615234375
13.9099999,-8.44434928894043,15.782577514648438,-6.234501361846924,-85.7391357421875,66.6351318359375,-235.1226806640625
13.9299999,-7.4316020011901855,23.76005744934082,-5.183446884155273,-73.9898681640625,86.0748291015625,-228.9276123046875
13.9499999,-6.011840343475342,29.94906997680664,-4.005499362945557,-19.47021484375,65.460205078125,-107.7880859375
13.969999900000001,-4.520252704620361,34.371158599853516,-2.4899697303771973,17.1356201171875,21.575927734375,37.8875732421875
13.9899999,-3.203441858291626,35.934574127197266,-0.9624691009521484,37.2772216796875,3.7689208984375,106.0943603515625
14.0099999,-2.322375535964966,34.03836441040039,0.06703764945268631,45.22705078125,-23.7579345703125,153.5797119140625
14.0299999,-1.9704279899597168,29.8173885345459,0.45010992884635925,51.116943359375,-52.55126953125,184.99755859375
14.049999900000001,-2.1811177730560303,24.574087142944336,0.1628057211637497,72.44873046875,-68.0389404296875,215.667724609375
14.069999900000001,-2.8371291160583496,19.469648361206055,-0.7829039692878723,87.34130859375,-74.8443603515625,256.988525390625
14.0899999,-3.706224203109741,15.016432762145996,-2.473210334777832,73.333740234375,-91.0491943359375,294.3878173828125
14.1099999,-4.659116744995117,11.525687217712402,-4.240131378173828,61.1114501953125,-77.6214599609375,305.816650390625
14.129999900000001,-5.449203014373779,7.994239330291748,-5.9304375648498535,80.352783203125,-58.135986328125,330.9326171875
14.149999900000001,-5.880159378051758,4.414907932281494,-7.513004779815674,73.8372802734375,-74.2645263671875,328.2928466796875
14.1699999,-5.87776517868042,0.45250412821769714,-8.580819129943848,54.0618896484375,-61.126708984375,285.0341796875
14.1899999,-5.449203014373779,-3.866635799407959,-9.32541561126709,45.5322265625,-31.768798828125,239.6240234375
14.209999900000001,-4.649539470672607,-7.989450931549072,-9.952696800231934,42.6483154296875,-30.6549072265625,184.3719482421875
14.229999900000001,-3.7445313930511475,-11.291055679321289,-10.20648193359375,18.6767578125,-23.284912109375,107.025146484375
14.2499999,-2.8634653091430664,-14.101847648620605,-10.539276123046875,-4.0435791015625,-10.986328125,49.0264892578125
14.2699999,-2.190694570541382,-16.184803009033203,-10.759542465209961,-30.8990478515625,11.4593505859375,-25.69580078125
14.289999900000002,-1.965639591217041,-17.355567932128906,-10.812214851379395,-51.1016845703125,40.313720703125,-136.4593505859375
14.309999900000001,-2.209848165512085,-17.55189323425293,-10.414777755737305,-50.3387451171875,52.8411865234375,-229.5989990234375
14.3299999,-3.0358476638793945,-16.685192108154297,-9.823410034179688,-56.5185546875,43.4112548828125,-288.4979248046875
14.3499999,-4.527435302734375,-14.551958084106445,-9.105149269104004,-60.3790283203125,53.0853271484375,-361.541748046875
14.3699999,-6.404489517211914,-10.235212326049805,-8.497021675109863,-52.0782470703125,74.798583984375,-453.765869140625
14.389999900000001,-8.11634349822998,-4.326322555541992,-7.972691535949707,-47.607421875,78.7200927734375,-447.509765625
14.4099999,-9.337387084960938,2.9017724990844727,-7.474697589874268,-69.732666015625,60.1043701171875,-349.8992919921875
14.4299999,-9.524134635925293,11.197681427001953,-6.84981107711792,-105.560302734375,59.5703125,-318.603515625
14.4499999,-8.767566680908203,18.727445602416992,-6.033388137817383,-79.6661376953125,73.7457275390625,-262.7410888671875
14.469999900000001,-7.376535415649414,25.306711196899414,-5.023035049438477,-23.0560302734375,69.64111328125,-156.2347412109375
14.4899999,-5.69580602645874,30.391996383666992,-3.7014358043670654,4.69970703125,40.5120849609375,-56.182861328125
14.5099999,-4.077325344085693,33.30095291137695,-2.298433542251587,14.5111083984375,10.6353759765625,30.3802490234375
14.5299999,-2.782062292098999,33.59304428100586,-1.1109095811843872,30.3497314453125,-17.425537109375,109.2376708984375
14.549999900000001,-2.0183119773864746,31.371225357055664,-0.3423708379268646,44.9981689453125,-35.9039306640625,174.560546875
14.569999900000001,-1.8171991109848022,27.554866790771484,-0.22026655077934265,58.929443359375,-60.791015625,207.305908203125
14.5899999,-2.0590133666992188,22.771251678466797,-0.7565677165985107,83.92333984375,-83.31298828125,245.9869384765625
14.6099999,-2.5929205417633057,17.74342918395996,-1.580173134803772,74.3408203125,-78.06396484375,293.3197021484375
14.629999900000001,-3.2345664501190186,13.012486457824707,-2.8610711097717285,12.51220703125,-90.27099609375,309.2041015625
14.649999900000001,-3.845088005065918,8.233659744262695,-4.1395745277404785,12.420654296875,-107.23876953125,307.220458984375
14.6699999,-4.266467571258545,3.7277719974517822,-5.372588634490967,82.82470703125,-101.7913818359375,285.3240966796875
14.6899999,-4.484339714050293,-0.6560112833976746,-6.950367450714111,81.9091796875,-103.057861328125,252.349853515625
14.709999900000001,-4.481945514678955,-4.654327869415283,-8.604761123657227,8.2855224609375,-79.9102783203125,206.9244384765625
14.729999900000001,-4.388571739196777,-8.374917984008789,-10.321403503417969,-21.9268798828125,-40.58837890625,144.71435546875
14.7499999,-4.2951979637146,-11.563994407653809,-12.265495300292969,0.335693359375,-33.14208984375,64.2852783203125
14.7699999,-4.307168960571289,-14.008474349975586,-14.106636047363281,2.0751953125,-7.5836181640625,-27.7252197265625
14.789999900000002,-4.448426723480225,-15.227123260498047,-15.70117473602295,-25.5889892578125,63.629150390625,-111.907958984375
14.809999900000001,-4.795586109161377,-15.186421394348145,-15.919047355651855,-60.5926513671875,149.566650390625,-170.4864501953125
14.8299999,-5.2049946784973145,-13.548787117004395,-14.391546249389648,-90.6524658203125,162.6739501953125,-222.4273681640625
14.8499999,-5.5976433753967285,-10.967838287353516,-12.289437294006348,-68.3746337890625,54.7943115234375,-277.191162109375
14.8699999,-6.069301128387451,-7.733271598815918,-9.509769439697266,21.3623046875,68.206787109375,-316.131591796875
14.889999900000001,-6.4595561027526855,-2.96162748336792,-8.078036308288574,26.5655517578125,100.5401611328125,-371.2158203125
14.9099999,-6.701370716094971,1.3215993642807007,-7.24485445022583,-31.524658203125,108.2611083984375,-320.068359375
14.9299999,-6.433219909667969,12.203246116638184,-6.064512729644775,-111.8621826171875,101.01318359375,-289.0472412109375
14.9499999,-5.66228723526001,17.176002502441406,-4.955997467041016,-70.86181640625,103.5003662109375,-202.4993896484375
14.969999900000001,-4.618414878845215,21.593305587768555,-3.598485231399536,-6.317138671875,66.2689208984375,-110.321044921875
14.9899999,-3.490746021270752,25.165454864501953,-2.0470423698425293,0.701904296875,42.7703857421875,-64.14794921875
15.0099999,-2.5474305152893066,27.368120193481445,-0.7948749661445618,-17.6544189453125,13.214111328125,4.0130615234375
15.0299999,-1.968033790588379,28.462270736694336,0.05985504388809204,-4.57763671875,-17.3492431640625,95.2606201171875
15.049999900000001,-1.8602946996688843,28.63225746154785,0.3998316824436188,15.6402587890625,-47.210693359375,163.238525390625
15.069999900000001,-2.207453966140747,27.327417373657227,0.17956513166427612,41.229248046875,-72.6776123046875,233.5662841796875
15.0899999,-2.8826189041137695,24.768016815185547,-0.4141969084739685,62.4237060546875,-79.9102783203125,287.8570556640625
15.1099999,-3.821146011352539,21.14798355102539,-1.41257905960083,66.9097900390625,-91.5985107421875,321.2432861328125
15.129999900000001,-4.9152960777282715,16.21592903137207,-2.6024973392486572,92.9107666015625,-98.297119140625,369.0338134765625
15.149999900000001,-5.729324817657471,10.72602367401123,-4.082113742828369,87.890625,-102.294921875,362.6708984375
15.1699999,-6.251260757446289,5.317522048950195,-5.521028995513916,22.064208984375,-84.2132568359375,299.560546875
15.1899999,-6.248866558074951,-0.3495534360408783,-6.797138690948486,-5.523681640625,-67.8863525390625,291.0003662109375
15.209999900000001,-5.714959621429443,-5.549759387969971,-8.106766700744629,17.8375244140625,-86.42578125,251.6326904296875
15.229999900000001,-4.910507678985596,-10.249577522277832,-9.311050415039062,20.8892822265625,-79.5135498046875,143.890380859375
15.2499999,-4.07014274597168,-14.156914710998535,-10.632649421691895,-14.8468017578125,-35.0494384765625,28.533935546875
15.2699999,-3.3854012489318848,-16.656461715698242,-12.09311294555664,-49.4842529296875,-3.72314453125,-51.45263671875
15.289999900000002,-3.184288263320923,-17.719486236572266,-13.33809757232666,-59.0972900390625,28.2745361328125,-114.0289306640625
15.309999900000001,-3.600879430770874,-17.518373489379883,-13.838485717773438,-24.2462158203125,73.699951171875,-204.315185546875
15.3299999,-4.6734819412231445,-16.491260528564453,-13.376404762268066,-11.1236572265625,94.512939453125,-299.31640625
15.3499999,-6.191405773162842,-13.989320755004883,-12.662932395935059,-29.2205810546875,58.53271484375,-381.3018798828125
15.3699999,-7.738059997558594,-10.11550235748291,-11.44907283782959,-35.400390625,70.953369140625,-400.8636474609375
15.389999900000001,-9.138668060302734,-5.451597213745117,-10.160991668701172,-27.5726318359375,121.002197265625,-361.785888671875
15.4099999,-9.931148529052734,0.45489832758903503,-8.860940933227539,-37.109375,102.203369140625,-393.73779296875
15.4299999,-10.122684478759766,7.067683219909668,-7.38132381439209,-49.224853515625,64.788818359375,-399.3988037109375
15.4499999,-9.607931137084961,14.209587097167969,-5.5760955810546875,-41.290283203125,76.1871337890625,-297.3480224609375
15.469999900000001,-8.542511940002441,21.179107666015625,-4.14915132522583,-25.93994140625,62.7899169921875,-159.8968505859375
15.4899999,-7.115567684173584,27.495012283325195,-2.9735984802246094,-28.3966064453125,31.1431884765625,-96.832275390625
15.5099999,-5.65031623840332,31.665712356567383,-1.9728221893310547,-16.021728515625,19.4091796875,-17.486572265625
15.5299999,-4.441244125366211,33.54755401611328,-1.3239935636520386,10.0860595703125,-6.011962890625,92.5140380859375
15.549999900000001,-3.6296098232269287,33.20039367675781,-0.9026140570640564,23.101806640625,-35.2630615234375,168.8995361328125
15.569999900000001,-3.318363666534424,30.705636978149414,-0.9097966551780701,17.7459716796875,-64.6820068359375,213.043212890625
15.5899999,-3.445256233215332,26.49423599243164,-1.3239935636520386,54.779052734375,-78.06396484375,262.3291015625
15.6099999,-3.93367338180542,21.401769638061523,-2.0398597717285156,95.458984375,-76.080322265625,304.229736328125
15.629999900000001,-4.656722068786621,16.34042739868164,-3.066972494125366,69.854736328125,-88.5162353515625,320.86181640625
15.649999900000001,-5.370194435119629,11.17852783203125,-4.180276393890381,31.463623046875,-100.006103515625,337.554931640625
15.6699999,-5.966350555419922,6.514622688293457,-5.260061264038086,46.7071533203125,-92.0257568359375,333.1451416015625
15.6899999,-6.244078159332275,1.920149803161621,-6.507440090179443,68.1304931640625,-88.3941650390625,301.6815185546875
15.709999900000001,-6.165069580078125,-2.250549554824829,-8.08043098449707,14.6331787109375,-88.19580078125,252.685546875
15.729999900000001,-5.801150798797607,-6.009446144104004,-9.583989143371582,-37.445068359375,-46.2646484375,188.3392333984375
15.7499999,-5.2265424728393555,-9.160215377807617,-11.085153579711914,-0.7171630859375,-15.045166015625,126.861572265625
15.7699999,-4.644751071929932,-11.66455078125,-12.528857231140137,34.1644287109375,-15.3961181640625,53.6651611328125
15.789999900000002,-4.242525577545166,-13.472172737121582,-13.534421920776367,21.4691162109375,14.8162841796875,-27.9998779296875
15.809999900000001,-4.101267337799072,-14.499285697937012,-13.994109153747559,-14.434814453125,76.7669677734375,-111.572265625
15.8299999,-4.343081951141357,-14.499285697937012,-13.73314094543457,-43.4112548828125,105.499267578125,-184.906005859375
15.8499999,-4.908113479614258,-13.328520774841309,-12.708422660827637,-45.318603515625,96.13037109375,-246.673583984375
15.869999900000002,-5.743690013885498,-11.470620155334473,-11.068394660949707,-25.5889892578125,94.90966796875,-278.594970703125
15.889999900000001,-6.744466304779053,-8.564059257507324,-9.624691009521484,-8.331298828125,94.17724609375,-328.7353515625
15.9099999,-7.637503623962402,-5.0469770431518555,-8.252813339233398,-9.9334716796875,106.903076171875,-359.039306640625
15.9299999,-8.221688270568848,-0.608127236366272,-6.861782073974609,-39.4744873046875,113.189697265625,-350.8148193359375
15.9499999,-8.248024940490723,5.193023681640625,-5.760449409484863,-95.9930419921875,74.9664306640625,-336.9140625
15.969999900000001,-7.627926826477051,12.289437294006348,-4.343081951141357,-107.452392578125,71.075439453125,-292.0074462890625
15.9899999,-6.3949127197265625,19.902997970581055,-3.0837318897247314,-51.9561767578125,70.61767578125,-182.06787109375
16.0099999,-4.809951305389404,27.001806259155273,-2.1715409755706787,16.2506103515625,26.3671875,-60.9283447265625
16.0299999,-3.1747114658355713,32.37678909301758,-1.3072341680526733,38.818359375,-0.4425048828125,24.96337890625
16.0499999,-1.8291701078414917,34.84281921386719,-0.8930372595787048,31.341552734375,-16.41845703125,106.8572998046875
16.0699999,-1.0797849893569946,34.37355422973633,-0.7733271718025208,22.8729248046875,-36.8804931640625,184.0667724609375
16.089999900000002,-1.0845733880996704,31.462203979492188,-1.0534487962722778,30.120849609375,-62.98828125,232.5592041015625
16.109999900000002,-1.7286136150360107,26.544513702392578,-1.6735470294952393,78.5980224609375,-83.160400390625,276.0772705078125
16.1299999,-2.786850690841675,21.009119033813477,-2.738966703414917,96.2371826171875,-94.1162109375,295.59326171875
16.1499999,-3.9264907836914062,15.416264533996582,-4.127603530883789,48.6602783203125,-83.740234375,311.248779296875
16.1699999,-4.9583916664123535,10.532093048095703,-5.525817394256592,-26.0162353515625,-70.3125,330.169677734375
16.1899999,-5.746084213256836,6.066906929016113,-6.54574728012085,-10.772705078125,-65.49072265625,334.3658447265625
16.2099999,-6.203376770019531,2.03507137298584,-7.127538681030273,93.75,-81.146240234375,301.8951416015625
16.2299999,-6.279991149902344,-1.9823989868164062,-7.800309181213379,115.4327392578125,-101.6387939453125,250.518798828125
16.249999900000002,-5.892130374908447,-5.817910194396973,-8.647856712341309,31.829833984375,-67.718505859375,198.9288330078125
16.269999900000002,-5.17626428604126,-9.277531623840332,-9.66299819946289,-54.62646484375,-5.4168701171875,137.115478515625
16.2899999,-4.376600742340088,-12.30859088897705,-10.321403503417969,-33.9813232421875,14.8773193359375,69.7021484375
16.3099999,-3.773261785507202,-14.805743217468262,-10.716446876525879,28.01513671875,-17.2882080078125,-13.1683349609375
16.3299999,-3.5649664402008057,-16.632518768310547,-10.936713218688965,13.0615234375,-18.5546875,-114.3798828125
16.3499999,-3.8762125968933105,-17.6141414642334,-11.295844078063965,-31.5093994140625,45.6695556640625,-210.5712890625
16.3699999,-4.716577529907227,-17.269376754760742,-11.654973983764648,-35.125732421875,103.3172607421875,-299.2706298828125
16.3899999,-5.95677375793457,-14.939818382263184,-11.585541725158691,2.3345947265625,106.048583984375,-372.7874755859375
16.4099999,-7.242460250854492,-11.068394660949707,-10.862493515014648,25.9552001953125,76.1871337890625,-388.8397216796875
16.429999900000002,-8.336610794067383,-5.612008571624756,-9.782708168029785,1.3580322265625,53.5430908203125,-385.101318359375
16.4499999,-8.418013572692871,8.334216117858887,-8.010998725891113,-92.34619140625,47.027587890625,-331.6650390625
16.4699999,-7.539340972900391,15.540762901306152,-6.938396453857422,-74.493408203125,71.319580078125,-243.0267333984375
16.4899999,-6.224924564361572,22.498313903808594,-5.928043365478516,-75.9735107421875,53.375244140625,-199.8443603515625
16.5099999,-4.862623691558838,28.139053344726562,-4.833893299102783,-57.4798583984375,5.9967041015625,-91.094970703125
16.5299999,-3.6727054119110107,32.041603088378906,-3.627215623855591,3.570556640625,10.589599609375,42.29736328125
16.5499999,-2.829946517944336,33.62177276611328,-2.896984100341797,41.8548583984375,-3.2501220703125,118.438720703125
16.5699999,-2.4875755310058594,32.46537399291992,-2.58813214302063,44.7998046875,-32.318115234375,171.1273193359375
16.589999900000002,-2.6671407222747803,29.21883773803711,-2.612074136734009,47.943115234375,-43.548583984375,228.57666015625
16.609999900000002,-3.2393548488616943,24.614788055419922,-3.136404275894165,67.138671875,-51.26953125,277.0233154296875
16.6299999,-4.01268196105957,19.488801956176758,-3.957615375518799,79.620361328125,-55.11474609375,311.676025390625
16.6499999,-4.752490520477295,14.279019355773926,-5.054159641265869,45.562744140625,-56.5643310546875,328.216552734375
16.6699999,-5.355829238891602,9.196128845214844,-6.244078159332275,-3.326416015625,-53.1158447265625,337.615966796875
16.6899999,-5.621585369110107,4.381389141082764,-7.311892032623291,19.7906494140625,-46.722412109375,320.6787109375
16.7099999,-5.542576789855957,-0.1149216815829277,-8.099584579467773,58.2122802734375,-42.7398681640625,278.045654296875
16.7299999,-5.0876784324646,-4.285621166229248,-8.755595207214355,19.2718505859375,-51.0406494140625,226.2420654296875
16.749999900000002,-4.326322555541992,-7.987056732177734,-9.21288776397705,-41.015625,-37.4298095703125,173.1109619140625
16.769999900000002,-3.471592426300049,-11.092336654663086,-9.751583099365234,-52.5970458984375,-17.0745849609375,106.4453125
16.7899999,-2.7437551021575928,-13.613430976867676,-10.314221382141113,-35.8734130859375,-1.953125,31.158447265625
16.8099999,-2.3319525718688965,-15.480908393859863,-10.864887237548828,-40.283203125,14.0380859375,-54.1534423828125
16.8299999,-2.346317768096924,-15.969325065612793,-11.204863548278809,-67.291259765625,43.5638427734375,-156.707763671875
16.8499999,-2.7461493015289307,-15.468936920166016,-11.063606262207031,-87.310791015625,79.8492431640625,-213.5467529296875
16.8699999,-3.507505416870117,-13.66610336303711,-10.38604736328125,-85.174560546875,87.70751953125,-250.54931640625
16.8899999,-4.563348293304443,-10.92953109741211,-9.50737476348877,-63.720703125,64.483642578125,-309.3719482421875
16.9099999,-5.750872611999512,-7.371747016906738,-8.339004516601562,-60.97412109375,73.699951171875,-350.4180908203125
16.929999900000002,-6.876147270202637,-2.382230758666992,-7.443572998046875,-80.5511474609375,86.6851806640625,-377.4566650390625
16.9499999,-7.5201873779296875,3.8283286094665527,-6.5696892738342285,-77.81982421875,86.12060546875,-345.855712890625
16.9699999,-7.508216381072998,11.063606262207031,-5.6910176277160645,-74.9053955078125,75.0885009765625,-271.54541015625
16.9899999,-6.7492547035217285,18.511966705322266,-4.726154327392578,-66.7572021484375,69.9920654296875,-204.4830322265625
17.0099999,-5.451597213745117,25.124752044677734,-3.711012601852417,-29.1748046875,61.9354248046875,-121.612548828125
17.0299999,-3.998316764831543,29.89400291442871,-2.786850690841675,7.904052734375,39.61181640625,-15.869140625
17.0499999,-2.695871114730835,32.55875015258789,-1.9321208000183105,26.42822265625,17.4102783203125,59.906005859375
17.0699999,-1.7980455160140991,32.654518127441406,-1.2545616626739502,42.449951171875,-1.7242431640625,119.476318359375
17.089999900000002,-1.436521053314209,30.583532333374023,-1.0055646896362305,43.731689453125,-27.7099609375,176.1474609375
17.109999900000002,-1.6352397203445435,27.064056396484375,-1.05105459690094,39.215087890625,-42.54150390625,219.54345703125
17.1299999,-2.2146365642547607,22.65872573852539,-1.5849615335464478,48.9959716796875,-54.1534423828125,253.2806396484375
17.1499999,-3.0358476638793945,18.296489715576172,-2.363077163696289,67.474365234375,-62.8814697265625,272.3388671875
17.1699999,-3.840299606323242,13.895946502685547,-3.2992098331451416,80.1239013671875,-65.2313232421875,301.5289306640625
17.1899999,-4.400542736053467,9.8784761428833,-4.383783340454102,58.563232421875,-70.6787109375,312.835693359375
17.2099999,-4.663905143737793,5.920860767364502,-5.264849662780762,40.0543212890625,-56.45751953125,300.445556640625
17.2299999,-4.572925090789795,2.049436569213867,-5.875370979309082,36.6668701171875,-47.0428466796875,276.5045166015625
17.249999900000002,-4.19224739074707,-1.721431016921997,-6.299144744873047,35.5224609375,-65.91796875,237.030029296875
17.269999900000002,-3.6846764087677,-5.451597213745117,-6.744466304779053,20.4010009765625,-80.413818359375,195.9686279296875
17.2899999,-3.1316158771514893,-9.08838939666748,-7.534552574157715,13.61083984375,-63.201904296875,136.1236572265625
17.3099999,-2.7246015071868896,-12.500126838684082,-8.999804496765137,-7.0037841796875,-39.1845703125,52.6275634765625
17.3299999,-2.6216509342193604,-15.397110939025879,-10.565611839294434,-30.9600830078125,0.823974609375,-36.9873046875
17.3499999,-2.8658595085144043,-17.341203689575195,-11.870451927185059,-45.2117919921875,29.0679931640625,-121.3531494140625
17.3699999,-3.466804027557373,-17.55668067932129,-12.677297592163086,-68.8323974609375,33.203125,-207.8857421875
17.3899999,-4.32871675491333,-16.21832275390625,-12.42111873626709,-68.084716796875,64.94140625,-254.1046142578125
17.409999900000003,-5.315127849578857,-13.110648155212402,-11.75792407989502,-94.7723388671875,77.1484375,-288.970947265625
17.429999900000002,-6.337451934814453,-8.923190116882324,-10.551246643066406,-126.3885498046875,89.29443359375,-315.91796875
17.4499999,-7.184999465942383,-3.552995204925537,-8.99740982055664,-87.066650390625,107.940673828125,-346.6339111328125
17.4699999,-7.6111674308776855,3.045424461364746,-7.474697589874268,-34.210205078125,94.329833984375,-369.873046875
17.4899999,-7.340622425079346,10.441113471984863,-5.995080947875977,-16.1590576171875,79.8187255859375,-312.5152587890625
17.5099999,-6.392518520355225,17.820043563842773,-4.812345504760742,-26.7486572265625,75.74462890625,-203.79638671875
17.5299999,-4.862623691558838,24.61957550048828,-3.794809579849243,-37.017822265625,80.1239013671875,-149.7955322265625
17.5499999,-3.1483752727508545,29.376853942871094,-2.9281086921691895,-20.599365234375,67.44384765625,-76.3397216796875
17.5699999,-1.5897499322891235,32.06075668334961,-1.9776105880737305,8.819580078125,39.1693115234375,16.326904296875
17.589999900000002,-0.45250412821769714,32.601844787597656,-1.0462661981582642,17.5323486328125,11.8560791015625,81.573486328125
17.609999900000002,0.0933738648891449,31.11025619506836,-0.2825157940387726,12.8326416015625,-13.031005859375,135.955810546875
17.6299999,0.011971008032560349,28.1270809173584,0.181959331035614,18.157958984375,-34.4390869140625,185.6842041015625
17.6499999,-0.6129156351089478,24.212562561035156,0.2777273952960968,43.0145263671875,-58.624267578125,227.9815673828125
17.6699999,-1.6280571222305298,19.92933464050293,-0.047884032130241394,72.113037109375,-81.8634033203125,259.124755859375
17.6899999,-2.827552318572998,15.507244110107422,-0.8978256583213806,78.6285400390625,-97.3052978515625,281.3873291015625
17.7099999,-3.9647979736328125,11.15697956085205,-2.229001760482788,76.9805908203125,-101.6693115234375,294.6929931640625
17.7299999,-4.824316501617432,6.689399719238281,-3.9480385780334473,75.3021240234375,-91.97998046875,293.6859130859375
17.749999900000002,-5.264849662780762,2.3558945655822754,-5.774814605712891,61.5386962890625,-78.9031982421875,267.9901123046875
17.769999900000002,-5.25527286529541,-1.9393033981323242,-7.577648162841797,38.543701171875,-69.76318359375,228.33251953125
17.7899999,-4.853046894073486,-5.9519853591918945,-9.107542991638184,37.8265380859375,-56.7779541015625,185.394287109375
17.8099999,-4.220977783203125,-9.490615844726562,-10.486603736877441,39.703369140625,-40.7867431640625,123.59619140625
17.8299999,-3.4811692237854004,-12.552799224853516,-11.707646369934082,18.6920166015625,-19.22607421875,49.6368408203125
17.8499999,-2.8179752826690674,-14.939818382263184,-12.588712692260742,-29.266357421875,23.406982421875,-32.4554443359375
17.8699999,-2.427720546722412,-16.33085060119629,-12.933477401733398,-72.3724365234375,67.93212890625,-122.833251953125
17.8899999,-2.4803929328918457,-16.668432235717773,-12.279860496520996,-67.5811767578125,92.1173095703125,-206.8634033203125
17.909999900000003,-3.1483752727508545,-15.629348754882812,-11.12346076965332,-44.6929931640625,71.4874267578125,-291.778564453125
17.929999900000002,-4.3622355461120605,-12.54801082611084,-9.859322547912598,-36.1480712890625,50.5523681640625,-371.15478515625
17.9499999,-5.750872611999512,-7.943961143493652,-9.074024200439453,-50.933837890625,73.9593505859375,-380.6915283203125
17.9699999,-7.824251174926758,4.165910720825195,-7.994239330291748,-97.96142578125,125.3662109375,-345.672607421875
17.9899999,-7.85537576675415,11.099518775939941,-7.062894821166992,-117.0196533203125,97.625732421875,-339.4775390625
18.0099999,-7.036558628082275,18.45929527282715,-5.233725070953369,-67.5201416015625,99.1363525390625,-225.738525390625
18.0299999,-5.57370138168335,24.590845108032227,-3.0573954582214355,-24.200439453125,91.12548828125,-58.28857421875
18.0499999,-3.6942532062530518,29.443893432617188,-0.8690952062606812,-35.7818603515625,29.8614501953125,6.5155029296875
18.0699999,-1.9081788063049316,31.814151763916016,1.0031704902648926,-37.7655029296875,-19.47021484375,23.4832763671875
18.089999900000002,-0.6368576288223267,31.65613555908203,2.3127987384796143,26.85546875,-27.4505615234375,126.8463134765625
18.109999900000002,-0.10295066982507706,30.39678382873535,2.432508945465088,60.4095458984375,-66.131591796875,186.8438720703125
18.1299999,-0.31603461503982544,27.63866424560547,1.7836803197860718,67.8558349609375,-93.9178466796875,230.4534912109375
18.1499999,-1.113303780555725,23.975536346435547,0.37828385829925537,66.925048828125,-95.733642578125,273.040771484375
18.1699999,-2.2385785579681396,19.943700790405273,-1.3215993642807007,53.955078125,-90.9423828125,299.37744140625
18.1899999,-3.471592426300049,15.653290748596191,-3.0142998695373535,50.2166748046875,-96.0540771484375,326.8585205078125
18.2099999,-4.611232280731201,11.350910186767578,-4.355052947998047,66.986083984375,-105.16357421875,335.2813720703125
18.2299999,-5.499481201171875,6.6846113204956055,-5.640739440917969,73.974609375,-111.5264892578125,329.132080078125
18.249999900000002,-5.978321552276611,1.8076223134994507,-6.921637058258057,51.483154296875,-94.970703125,292.29736328125
18.269999900000002,-6.004657745361328,-3.07415509223938,-8.31985092163086,22.9949951171875,-68.7713623046875,232.147216796875
18.2899999,-5.578489780426025,-7.711723804473877,-9.461885452270508,35.491943359375,-50.994873046875,171.7376708984375
18.3099999,-4.843470096588135,-11.604695320129395,-10.630255699157715,31.2957763671875,-55.6488037109375,97.8240966796875
18.3299999,-4.048594951629639,-14.590265274047852,-11.398794174194336,-3.7841796875,-36.956787109375,7.7056884765625
18.3499999,-3.428496837615967,-16.548721313476562,-11.97100830078125,-38.7725830078125,4.0130615234375,-80.6884765625
18.3699999,-3.160346269607544,-17.468095779418945,-12.076353073120117,-49.1790771484375,25.81787109375,-167.8009033203125
18.3899999,-3.464409828186035,-17.14966583251953,-11.619060516357422,-33.447265625,25.9246826171875,-262.6800537109375
18.409999900000003,-4.24970817565918,-14.844050407409668,-10.951078414916992,-12.1917724609375,18.096923828125,-349.6551513671875
18.429999900000002,-5.34625244140625,-11.259930610656738,-10.113107681274414,-23.0255126953125,36.163330078125,-355.0262451171875
18.4499999,-6.600813865661621,-6.933608055114746,-9.311050415039062,-49.102783203125,67.352294921875,-312.2406005859375
18.4699999,-7.69735860824585,-1.45806884765625,-8.645462036132812,-58.837890625,54.5806884765625,-372.344970703125
18.4899999,-8.269572257995605,4.412513732910156,-7.503427982330322,-36.8194580078125,53.2379150390625,-396.6827392578125
18.5099999,-8.169015884399414,10.60391902923584,-6.785167694091797,-16.6473388671875,33.660888671875,-294.98291015625
18.5299999,-7.343016624450684,17.367538452148438,-6.021417140960693,6.0577392578125,29.9835205078125,-202.117919921875
18.5499999,-5.894524574279785,23.894132614135742,-5.722142219543457,7.32421875,36.2548828125,-159.9884033203125
18.5699999,-4.225766181945801,29.154193878173828,-5.468356609344482,24.7039794921875,30.2734375,-53.16162109375
18.589999900000002,-2.695871114730835,32.6353645324707,-5.078101634979248,60.882568359375,21.2860107421875,77.94189453125
18.609999900000002,-1.577778935432434,33.842041015625,-4.393360137939453,69.9310302734375,1.1444091796875,152.496337890625
18.6299999,-1.1348515748977661,32.520442962646484,-3.536235809326172,67.9931640625,-27.099609375,201.3092041015625
18.6499999,-1.4844050407409668,29.053638458251953,-2.8347349166870117,108.3221435546875,-61.03515625,263.97705078125
18.6699999,-2.4612393379211426,24.207773208618164,-2.5115175247192383,171.051025390625,-76.7669677734375,321.5484619140625
18.6899999,-3.797203779220581,18.729839324951172,-2.892195701599121,164.1082763671875,-77.667236328125,338.958740234375
18.7099999,-5.238513469696045,12.749124526977539,-3.706224203109741,104.8431396484375,-56.549072265625,359.2529296875
18.7299999,-6.502651691436768,6.485892295837402,-4.616020679473877,64.02587890625,-39.24560546875,366.3330078125
18.749999900000002,-7.376535415649414,0.3974374830722809,-5.501875400543213,78.094482421875,-59.9517822265625,317.7490234375
18.769999900000002,-7.793126583099365,-5.279214859008789,-6.399701118469238,74.249267578125,-74.8748779296875,240.1275634765625
18.7899999,-7.733271598815918,-10.266336441040039,-7.4555439949035645,17.852783203125,-53.192138671875,181.1065673828125
18.8099999,-7.328651428222656,-14.300566673278809,-8.757989883422852,-23.590087890625,-17.15087890625,112.9913330078125
18.8299999,-6.890512466430664,-17.310077667236328,-10.038887977600098,-27.40478515625,3.173828125,18.890380859375
18.8499999,-6.6127848625183105,-18.83757972717285,-10.910377502441406,-47.3785400390625,16.4947509765625,-95.123291015625
18.8699999,-6.521805286407471,-18.883068084716797,-11.317391395568848,-84.8846435546875,29.8309326171875,-177.6275634765625
18.8899999,-6.651092529296875,-16.977283477783203,-10.99656867980957,-106.5826416015625,59.50927734375,-226.348876953125
18.909999900000003,-6.943184852600098,-13.721169471740723,-10.20648193359375,-99.6856689453125,68.7103271484375,-261.016845703125
18.929999900000002,-7.264008045196533,-9.849745750427246,-9.035717010498047,-79.7119140625,56.1370849609375,-281.2042236328125
18.9499999,-7.5968017578125,-5.537788391113281,-7.8960771560668945,-75.6072998046875,43.27392578125,-318.206787109375
18.9699999,-7.594407558441162,-0.35434186458587646,-6.916848659515381,-86.48681640625,46.2188720703125,-352.60009765625
18.9899999,-7.022193431854248,5.353435039520264,-6.509834289550781,-75.714111328125,48.5687255859375,-297.42431640625
19.0099999,-5.75326681137085,12.102689743041992,-6.4380083084106445,-49.98779296875,44.891357421875,-220.8251953125
19.0299999,-3.8163576126098633,18.904617309570312,-6.406883716583252,-14.4805908203125,52.7496337890625,-159.85107421875
19.0499999,-1.5921441316604614,24.90209197998047,-6.36378812789917,16.17431640625,39.97802734375,-77.4993896484375
19.0699999,0.4429273009300232,29.10152244567871,-6.186617374420166,44.769287109375,11.8255615234375,22.76611328125
19.089999900000002,1.8387469053268433,31.280244827270508,-5.9974751472473145,55.908203125,-4.486083984375,92.0867919921875
19.109999900000002,2.3247697353363037,30.885202407836914,-6.09324312210083,51.4373779296875,-11.2762451171875,154.3121337890625
19.1299999,1.900996208190918,28.37607765197754,-6.299144744873047,49.6368408203125,-6.591796875,213.9892578125
19.1499999,0.7996633648872375,24.41606903076172,-6.536170482635498,57.3577880859375,-7.75146484375,248.1536865234375
19.1699999,-0.7422025203704834,19.596540451049805,-6.497863292694092,69.6868896484375,-17.425537109375,271.6064453125
19.1899999,-2.4157495498657227,14.511256217956543,-6.19379997253418,96.1456298828125,-28.7017822265625,289.97802734375
19.2099999,-4.0078935623168945,9.406818389892578,-5.9304375648498535,91.278076171875,-43.365478515625,297.05810546875
19.2299999,-5.360617637634277,4.400542736053467,-5.870582580566406,52.001953125,-40.58837890625,286.529541015625
19.249999900000002,-6.289567947387695,-0.7637503147125244,-6.064512729644775,24.4293212890625,-28.50341796875,261.6729736328125
19.269999900000002,-6.718130111694336,-5.74129581451416,-6.50025749206543,9.063720703125,-27.7252197265625,201.66015625
19.2899999,-6.720524311065674,-10.505757331848145,-7.254431247711182,-14.9078369140625,-38.726806640625,123.9166259765625
19.3099999,-6.4834980964660645,-14.171279907226562,-8.315062522888184,-61.767578125,-28.4423828125,35.0189208984375
19.3299999,-6.232107162475586,-16.448165893554688,-9.526528358459473,-87.646484375,5.950927734375,-39.5050048828125
19.3499999,-6.102819919586182,-17.051504135131836,-10.946290016174316,-95.184326171875,23.468017578125,-94.42138671875
19.3699999,-6.069301128387451,-15.91425895690918,-11.769895553588867,-105.8502197265625,50.445556640625,-158.2794189453125
19.3899999,-6.172252178192139,-13.814543724060059,-12.00452709197998,-124.6795654296875,81.72607421875,-199.3865966796875
19.409999900000003,-6.339846134185791,-10.754754066467285,-11.504138946533203,-130.7220458984375,96.6339111328125,-239.2425537109375
19.429999900000002,-6.528987884521484,-7.271190643310547,-10.376470565795898,-111.4654541015625,103.5003662109375,-273.1781005859375
19.4499999,-6.689399719238281,-3.315969467163086,-9.162610054016113,-98.44970703125,99.06005859375,-296.5240478515625
19.4699999,-6.607996463775635,1.192312479019165,-7.785943984985352,-102.996826171875,113.5101318359375,-309.2193603515625
19.4899999,-6.18182897567749,5.832275390625,-6.414066314697266,-127.0599365234375,129.4708251953125,-277.8167724609375
19.5099999,-4.108449935913086,16.09382438659668,-3.071760892868042,-128.8604736328125,99.3804931640625,-215.1031494140625
19.5299999,-2.6216509342193604,21.052215576171875,-1.2737152576446533,-76.1260986328125,67.0013427734375,-144.7906494140625
19.5499999,-1.091755986213684,25.558103561401367,0.3495534360408783,-35.125732421875,38.8336181640625,-71.7620849609375
19.5699999,0.2106897532939911,29.16377067565918,1.4724340438842773,-14.556884765625,3.5247802734375,6.77490234375
19.589999900000002,1.0438719987869263,31.39756202697754,1.8794482946395874,7.354736328125,-33.3099365234375,93.68896484375
19.609999900000002,1.2066776752471924,31.584308624267578,1.7381904125213623,37.353515625,-49.0875244140625,184.4482421875
19.6299999,0.6967126727104187,29.84132957458496,0.8906430602073669,56.793212890625,-67.9473876953125,238.5101318359375
19.6499999,-0.45010992884635925,26.19017219543457,-0.3711012601852417,63.2781982421875,-84.47265625,272.3236083984375
19.6699999,-2.0398597717285156,21.155166625976562,-1.7932571172714233,84.869384765625,-83.6639404296875,314.8651123046875
19.6899999,-3.7852327823638916,15.397110939025879,-3.294421434402466,123.9471435546875,-86.0595703125,333.160400390625
19.7099999,-5.386953830718994,9.3828763961792,-4.948814868927002,110.16845703125,-90.179443359375,317.3065185546875
19.7299999,-6.555324077606201,3.184288263320923,-6.495469093322754,54.50439453125,-68.389892578125,293.88427734375
19.749999900000002,-7.117961883544922,-2.6575639247894287,-7.99184513092041,16.387939453125,-41.351318359375,245.6207275390625
19.769999900000002,-7.01979923248291,-8.006210327148438,-9.332598686218262,9.46044921875,-37.78076171875,169.2657470703125
19.7899999,-6.447585105895996,-12.378023147583008,-10.398017883300781,-14.16015625,-28.9154052734375,79.65087890625
19.8099999,-5.631162166595459,-15.368380546569824,-11.070788383483887,-33.355712890625,-1.6021728515625,-11.4288330078125
19.8299999,-4.8602294921875,-16.519990921020508,-11.504138946533203,-52.8106689453125,19.805908203125,-89.019775390625
19.8499999,-4.3406877517700195,-15.861586570739746,-11.422736167907715,-73.6846923828125,41.748046875,-143.7835693359375
19.8699999,-4.197035789489746,-13.816938400268555,-10.948684692382812,-87.2344970703125,59.87548828125,-183.0902099609375
19.8899999,-4.414907932281494,-10.862493515014648,-10.244789123535156,-81.8328857421875,69.4427490234375,-227.72216796875
19.909999900000003,-4.929661273956299,-7.524975776672363,-9.48343276977539,-59.7076416015625,76.4312744140625,-269.5770263671875
19.929999900000002,-5.564124584197998,-3.7612907886505127,-8.822632789611816,-56.3507080078125,87.2650146484375,-301.1474609375
