# Time (seconds),Accel_X,Accel_Y,Accel_Z,Gyro_X,Gyro_Y,Gyro_Z
0.0099999,2.3295583724975586,-1.6041151285171509,9.38048267364502,0.2899169921875,1.068115234375,-1.6021728515625
0.029999900000000003,2.3104045391082764,-1.647210717201233,9.378087997436523,0.48828125,1.373291015625,-1.0986328125
0.0499999,2.279279947280884,-1.7286136150360107,9.366117477416992,-0.579833984375,1.220703125,-1.03759765625
0.0699999,2.207453966140747,-1.9800047874450684,9.430760383605957,-9.70458984375,4.180908203125,-4.669189453125
0.08999990000000001,2.1715409755706787,-2.1164743900299072,9.464279174804688,-10.0555419921875,2.86865234375,-6.7596435546875
0.10999990000000001,2.140416383743286,-2.2457611560821533,9.452308654785156,-4.8370361328125,1.922607421875,-9.94873046875
0.1299999,2.126051187515259,-2.276885747909546,9.3828763961792,0.3509521484375,1.5716552734375,-15.1214599609375
0.14999990000000002,2.1284453868865967,-2.279279947280884,9.241618156433105,2.2430419921875,1.556396484375,-15.838623046875
0.1699999,2.185906171798706,-2.0877439975738525,9.155426979064941,2.44140625,4.1961669921875,-17.5628662109375
0.1899999,2.3032219409942627,-1.7190368175506592,9.126696586608887,0.244140625,4.5166015625,-16.1895751953125
0.20999990000000002,2.513911724090576,-1.0989385843276978,9.275136947631836,-1.4495849609375,4.7607421875,-9.6435546875
0.2299999,2.806004285812378,-0.18914192914962769,9.57201862335205,-4.3792724609375,3.41796875,0.152587890625
0.2499999,3.1292216777801514,0.8427590131759644,9.99100399017334,-14.3890380859375,2.197265625,18.524169921875
0.2699999,3.4165258407592773,1.8962076902389526,10.414777755737305,-10.6353759765625,-6.7138671875,34.6221923828125
0.28999990000000003,3.56017804145813,2.6216509342193604,10.6925048828125,-4.7149658203125,-15.1214599609375,52.4749755859375
0.3099999,3.5218706130981445,2.8874073028564453,10.754754066467285,-4.4708251953125,-19.1192626953125,67.3980712890625
0.3299999,3.2632968425750732,2.4684219360351562,10.524910926818848,1.4190673828125,-22.1710205078125,77.8961181640625
0.34999990000000003,2.8203697204589844,1.403002142906189,10.041281700134277,1.9073486328125,-23.5137939453125,81.939697265625
0.3699999,2.2673089504241943,-0.1604115068912506,9.459490776062012,-7.080078125,-16.3421630859375,79.7119140625
0.3899999,1.680729627609253,-2.008735179901123,8.825027465820312,-17.2271728515625,-8.331298828125,71.3958740234375
0.40999990000000003,1.1492167711257935,-3.8762125968933105,8.269572257995605,-15.80810546875,-4.119873046875,57.6934814453125
0.4299999,0.730231523513794,-5.549759387969971,7.879317760467529,-5.3253173828125,-0.7476806640625,38.4521484375
0.4499999,0.42377370595932007,-6.950367450714111,7.649474620819092,-0.1220703125,2.7923583984375,16.7083740234375
0.4699999,0.24660277366638184,-7.979874134063721,7.627926826477051,3.7078857421875,5.79833984375,-7.7667236328125
0.4899999,0.1628057211637497,-8.592789649963379,7.781155586242676,9.8876953125,8.4381103515625,-34.7900390625
0.5099999,0.14604631066322327,-8.769960403442383,7.989450931549072,9.7503662109375,10.7269287109375,-55.755615234375
0.5299999,0.19632454216480255,-8.437167167663574,8.281543731689453,6.5460205078125,15.7928466796875,-75.9735107421875
0.5499999,0.3232172429561615,-7.55131196975708,8.525752067565918,1.068115234375,19.10400390625,-93.292236328125
0.5699999,0.5770025849342346,-6.129156112670898,8.815450668334961,2.777099609375,21.30126953125,-101.4251708984375
0.5899998999999999,1.0079588890075684,-4.182670593261719,9.148244857788086,9.7503662109375,19.2108154296875,-100.3875732421875
0.6099998999999999,1.644816517829895,-1.8483237028121948,9.567230224609375,13.580322265625,14.6636962890625,-92.0562744140625
0.6299999,2.473210334777832,0.727837324142456,10.103530883789062,8.6822509765625,12.3291015625,-73.5015869140625
0.6499999,3.3854012489318848,3.3063924312591553,10.682928085327148,-5.7830810546875,9.002685546875,-43.1976318359375
0.6699999,4.211400985717773,5.521028995513916,11.185709953308105,-15.4266357421875,-0.2288818359375,-4.45556640625
0.6899999,4.726154327392578,6.959944248199463,11.432312965393066,-12.725830078125,-11.1236572265625,32.5469970703125
0.7099999,4.819528102874756,7.400477409362793,11.329362869262695,-5.0811767578125,-18.8140869140625,57.06787109375
0.7299998999999999,4.462791919708252,6.7061591148376465,10.888829231262207,-0.1983642578125,-21.0418701171875,73.9593505859375
0.7499998999999999,3.7852327823638916,5.106832027435303,10.232817649841309,-1.495361328125,-20.5841064453125,88.775634765625
0.7699999,2.9759926795959473,2.9281086921691895,9.59596061706543,-8.11767578125,-15.0604248046875,95.1690673828125
0.7899999,2.1787235736846924,0.47165772318840027,9.038111686706543,-14.007568359375,-12.4359130859375,95.27587890625
0.8099999,1.4867992401123047,-2.008735179901123,8.633491516113281,-13.12255859375,-11.04736328125,88.8214111328125
0.8299999,0.9552865028381348,-4.2951979637146,8.377311706542969,-2.5177001953125,-9.613037109375,71.1669921875
0.8499998999999999,0.5554547905921936,-6.277596950531006,8.214506149291992,11.688232421875,-9.521484375,48.3551025390625
0.8699998999999999,0.2537853717803955,-7.872135162353516,8.101978302001953,9.552001953125,-7.2021484375,23.590087890625
0.8899999,0.05746084079146385,-9.02135181427002,8.051700592041016,-3.0517578125,2.227783203125,-2.38037109375
0.9099999,-0.06464344263076782,-9.581595420837402,8.003816604614258,-0.4425048828125,6.3323974609375,-34.332275390625
0.9299999,-0.10534487664699554,-9.658209800720215,7.960720539093018,4.7149658203125,9.46044921875,-55.0384521484375
0.9499999,-0.028730420395731926,-9.105149269104004,8.008605003356934,9.765625,15.2740478515625,-77.5146484375
0.9699998999999999,0.1388636976480484,-8.022970199584961,8.08043098449707,10.1165771484375,16.2353515625,-95.2911376953125
0.9899998999999999,0.40701428055763245,-6.560112476348877,8.274360656738281,12.6953125,19.22607421875,-102.0965576171875
1.0099999,0.828393816947937,-4.654327869415283,8.597578048706055,16.0369873046875,20.7977294921875,-107.48291015625
1.0299999,1.41257905960083,-2.4420857429504395,9.033323287963867,13.7176513671875,19.7906494140625,-105.072021484375
1.0499999,2.1595699787139893,-0.07661445438861847,9.648633003234863,6.34765625,18.73779296875,-85.693359375
1.0699999,3.0310592651367188,2.343923568725586,10.362105369567871,-2.62451171875,15.1214599609375,-61.46240234375
1.0899999,3.88818359375,4.596867084503174,11.082759857177734,-11.5509033203125,7.4310302734375,-35.5072021484375
1.1099999,4.5609540939331055,6.428431510925293,11.592724800109863,-14.2974853515625,-5.06591796875,-0.2899169921875
1.1299999,4.881777286529541,7.469909191131592,11.774683952331543,-12.0086669921875,-13.153076171875,39.73388671875
1.1499999,4.824316501617432,7.711723804473877,11.535264015197754,-6.9732666015625,-19.744873046875,64.14794921875
1.1699998999999999,4.4077253341674805,6.947973251342773,10.99656867980957,-1.4190673828125,-22.7203369140625,81.1614990234375
1.1899998999999999,3.737348794937134,5.420472621917725,10.27591323852539,-0.7171630859375,-24.59716796875,99.029541015625
1.2099999,2.96162748336792,3.35667085647583,9.586383819580078,-7.080078125,-20.6756591796875,110.6719970703125
1.2299999,2.1811177730560303,1.048660397529602,9.006986618041992,-17.791748046875,-13.427734375,110.809326171875
1.2499999,1.4676456451416016,-1.3335703611373901,8.583212852478027,-20.01953125,-10.92529296875,106.0943603515625
1.2699999,0.8571242094039917,-3.6774938106536865,8.26478385925293,-9.918212890625,-12.8021240234375,96.2066650390625
1.2899999,0.3926490843296051,-5.829881191253662,8.073247909545898,3.1585693359375,-10.345458984375,72.723388671875
1.3099999,0.014365210197865963,-7.762001991271973,7.90086555480957,3.753662109375,-4.4403076171875,42.755126953125
1.3299999,-0.24181437492370605,-9.337387084960938,7.845798969268799,-10.3607177734375,4.69970703125,13.7786865234375
1.3499999,-0.38307225704193115,-10.314221382141113,7.814674377441406,-4.6234130859375,6.53076171875,-20.56884765625
1.3699999,-0.4381389021873474,-10.699687004089355,7.850587368011475,10.772705078125,6.65283203125,-50.750732421875
1.3899999,-0.4213795065879822,-10.438719749450684,7.850587368011475,17.486572265625,10.19287109375,-74.89013671875
1.4099999,-0.35434186458587646,-9.641449928283691,7.872135162353516,16.29638671875,15.9759521484375,-97.4884033203125
1.4299998999999999,-0.2082955539226532,-8.31985092163086,7.915230751037598,10.8642578125,22.2015380859375,-116.76025390625
1.4499999,0.08379705995321274,-6.543353080749512,8.149862289428711,10.1165771484375,29.296875,-124.847412109375
1.4699999,0.586579442024231,-4.316745758056641,8.571242332458496,16.3726806640625,26.580810546875,-124.6337890625
1.4899999,1.3646949529647827,-1.7980455160140991,9.258378028869629,23.1781005859375,19.8516845703125,-115.509033203125
1.5099999,2.3965959548950195,1.0127472877502441,10.18493366241455,10.8184814453125,17.669677734375,-99.334716796875
1.5299999,3.5458126068115234,3.821146011352539,11.183316230773926,-14.5111083984375,12.847900390625,-65.643310546875
1.5499999,4.5609540939331055,6.339846134185791,12.040440559387207,-26.67236328125,-3.875732421875,-18.6004638671875
1.5699999,5.190629482269287,8.31985092163086,12.322956085205078,-19.7296142578125,-25.08544921875,17.852783203125
1.5899999,4.891354084014893,8.942343711853027,11.26950740814209,2.532958984375,-24.200439453125,79.5440673828125
1.6099999,4.197035789489746,7.644686222076416,10.280701637268066,6.5155029296875,-23.468017578125,97.3358154296875
1.6299999,3.397372245788574,5.623979568481445,9.406818389892578,-2.5482177734375,-18.8751220703125,114.1204833984375
1.6499999,2.5953147411346436,3.1651346683502197,8.791508674621582,-15.838623046875,-12.4359130859375,126.5716552734375
1.6699999,1.8507179021835327,0.5937620401382446,8.528146743774414,-20.263671875,-7.843017578125,126.861572265625
1.6899998999999999,1.1444283723831177,-2.0183119773864746,8.456320762634277,-13.916015625,-10.5133056640625,118.9727783203125
1.7099999,0.5219359993934631,-4.537012100219727,8.518569946289062,-3.631591796875,-13.580322265625,100.5706787109375
1.7299999,-0.019153613597154617,-6.868964672088623,8.51138687133789,-2.838134765625,-13.397216796875,73.516845703125
1.7499999,-0.42616790533065796,-8.880094528198242,8.38688850402832,-14.9688720703125,-4.791259765625,42.4041748046875
1.7699999,-0.6703764796257019,-10.417171478271484,8.212111473083496,-13.5498046875,2.7313232421875,7.2021484375
1.7899999,-0.7613561153411865,-11.298237800598145,7.910442352294922,7.9498291015625,-2.13623046875,-30.9906005859375
1.8099999,-0.7254431247711182,-11.532869338989258,7.6566572189331055,12.2833251953125,3.2196044921875,-60.1348876953125
1.8299999,-0.6105214357376099,-11.12106704711914,7.433996200561523,4.94384765625,14.58740234375,-85.693359375
1.8499999,-0.4429273009300232,-10.132261276245117,7.350199222564697,4.8370361328125,21.3623046875,-110.3363037109375
1.8699999,-0.19632454216480255,-8.607154846191406,7.47230339050293,10.2386474609375,21.392822265625,-130.5084228515625
1.8899999,0.17956513166427612,-6.560112476348877,7.802703380584717,15.7623291015625,21.209716796875,-138.5650634765625
1.9099999,0.751779317855835,-4.022258758544922,8.327033042907715,15.625,24.10888671875,-134.9639892578125
1.9299998999999999,1.5729905366897583,-1.1420341730117798,9.141061782836914,4.913330078125,33.2183837890625,-117.6605224609375
1.9499999,2.585737943649292,1.900996208190918,10.134655952453613,-14.95361328125,32.1807861328125,-88.8671875
1.9699999,3.6583402156829834,4.7620673179626465,11.219228744506836,-27.587890625,18.2037353515625,-51.2847900390625
1.9899999,4.565742492675781,7.041347026824951,12.114660263061523,-24.1851806640625,1.922607421875,-10.9100341796875
2.0099999,5.0876784324646,8.485051155090332,12.538434028625488,-12.2833251953125,-13.48876953125,20.4315185546875
2.0299999,5.142745018005371,8.786720275878906,12.260706901550293,-4.6539306640625,-24.59716796875,51.6204833984375
2.0499999,4.807557106018066,8.090007781982422,11.614272117614746,2.7618408203125,-22.6898193359375,74.6307373046875
2.0699999,4.19224739074707,6.581660270690918,10.613495826721191,-0.5950927734375,-21.9268798828125,96.0693359375
2.0899999,3.44765043258667,4.534617900848389,9.706093788146973,-14.34326171875,-18.798828125,113.677978515625
2.1099999,2.655169725418091,2.2385785579681396,9.002198219299316,-18.8751220703125,-12.6953125,122.9705810546875
2.1299999,1.8555063009262085,-0.24181437492370605,8.547300338745117,-11.474609375,-12.9852294921875,123.8861083984375
2.1499999,1.1180921792984009,-2.719813108444214,8.310274124145508,-2.960205078125,-15.899658203125,110.7025146484375
2.1699999,0.47165772318840027,-5.161899089813232,8.197746276855469,-2.5177001953125,-13.1378173828125,91.9342041015625
2.1899999,-0.05027823522686958,-7.465120792388916,8.121131896972656,-14.0228271484375,-5.767822265625,70.159912109375
2.2099999,-0.4213795065879822,-9.3828763961792,7.996633529663086,-16.3726806640625,-1.03759765625,34.881591796875
2.2299999,-0.6392518281936646,-10.769119262695312,7.845798969268799,3.8604736328125,-1.2664794921875,-6.65283203125
2.2499999,-0.7326257228851318,-11.480196952819824,7.649474620819092,20.538330078125,-0.762939453125,-40.3594970703125
2.2699999,-0.730231523513794,-11.468226432800293,7.450755596160889,15.8233642578125,8.4686279296875,-63.8885498046875
2.2899999,-0.6560112833976746,-10.824186325073242,7.343016624450684,11.8865966796875,19.561767578125,-90.789794921875
2.3099999,-0.5099649429321289,-9.605537414550781,7.38132381439209,9.9334716796875,26.153564453125,-113.0828857421875
2.3299999,-0.24660277366638184,-7.888894557952881,7.647080421447754,3.021240234375,31.646728515625,-124.359130859375
2.3499999,0.21308395266532898,-5.681440830230713,8.214506149291992,5.0048828125,34.4085693359375,-128.204345703125
2.3699999,0.9050082564353943,-3.093308687210083,8.992621421813965,10.650634765625,28.7933349609375,-121.185302734375
2.3899999,1.8171991109848022,-0.2801215946674347,9.96945571899414,1.4495849609375,24.3377685546875,-102.142333984375
2.4099999,2.9017724990844727,2.5905263423919678,11.02051067352295,-15.6402587890625,21.881103515625,-74.6917724609375
2.4299999,3.9839515686035156,5.224148273468018,11.978191375732422,-26.519775390625,10.7574462890625,-39.3218994140625
2.4499999,4.869806289672852,7.319074630737305,12.576741218566895,-20.08056640625,-11.16943359375,1.7547607421875
2.4699999,5.355829238891602,8.437167167663574,12.667720794677734,-8.30078125,-25.7110595703125,40.3289794921875
2.4899999,5.355829238891602,8.51138687133789,12.162544250488281,0.8697509765625,-33.4625244140625,68.29833984375
2.5099999,4.879383087158203,7.450755596160889,11.190498352050781,2.2735595703125,-34.942626953125,91.4154052734375
2.5299999,4.101267337799072,5.631162166595459,10.079588890075684,-3.0059814453125,-29.510498046875,110.809326171875
2.5499999,3.184288263320923,3.3423056602478027,9.066842079162598,-9.27734375,-22.491455078125,123.3978271484375
2.5699999,2.2673089504241943,0.8954314589500427,8.346187591552734,-13.824462890625,-19.256591796875,129.1351318359375
2.5899999,1.4053963422775269,-1.6855180263519287,7.9176249504089355,-8.2855224609375,-18.829345703125,129.2572021484375
2.6099999,0.6488286852836609,-4.244919776916504,7.735665798187256,3.0517578125,-18.585205078125,110.8856201171875
2.6299999,-0.014365210197865963,-6.754043102264404,7.6351094245910645,1.6632080078125,-13.946533203125,80.596923828125
2.6499999,-0.5410895943641663,-9.045293807983398,7.599195957183838,-8.5906982421875,-2.25830078125,48.1109619140625
2.6699999,-0.9002198576927185,-10.81700325012207,7.582436561584473,-7.2021484375,5.584716796875,7.6751708984375
2.6899999,-1.0654197931289673,-11.84650993347168,7.5417351722717285,11.7034912109375,2.7923583984375,-32.40966796875
2.7099999,-1.0965443849563599,-12.196063041687012,7.481880187988281,19.5465087890625,6.103515625,-59.3109130859375
2.7299999,-0.9983820915222168,-11.753135681152344,7.3885064125061035,12.8631591796875,16.0980224609375,-86.395263671875
2.7499999,-0.8212111592292786,-10.666168212890625,7.29034423828125,10.0250244140625,26.0467529296875,-113.6932373046875
2.7699999,-0.5554547905921936,-9.057265281677246,7.304709434509277,6.34765625,33.1268310546875,-126.739501953125
2.7899999,-0.10773907601833344,-6.830657482147217,7.6351094245910645,12.054443359375,39.61181640625,-134.6588134765625
2.8099999,0.5554547905921936,-4.201824188232422,8.24084186553955,20.3399658203125,34.9273681640625,-133.3465576171875
2.8299999,1.5203180313110352,-1.1755530834197998,9.29189682006836,13.0157470703125,32.2113037109375,-118.5455322265625
2.8499999,2.7293899059295654,2.0901381969451904,10.632649421691895,-13.3819580078125,32.89794921875,-91.12548828125
2.8699999,4.0294413566589355,5.243301868438721,11.997344970703125,-37.933349609375,20.416259765625,-46.5240478515625
2.8899999,5.16429328918457,7.965508937835693,13.08910083770752,-45.5474853515625,0.885009765625,1.4801025390625
2.9099999,5.810727596282959,9.636661529541016,13.515268325805664,-38.9862060546875,-18.7835693359375,48.0804443359375
2.9299999,5.822698593139648,10.022128105163574,13.168108940124512,-21.087646484375,-33.38623046875,82.7484130859375
2.9499999,5.1810526847839355,9.035717010498047,12.102689743041992,-7.1868896484375,-39.154052734375,106.3995361328125
2.9699999,4.084507942199707,6.914454460144043,10.733205795288086,-6.6070556640625,-35.4461669921875,127.655029296875
2.9899999,2.7724854946136475,4.0294413566589355,9.387664794921875,-13.1378173828125,-26.4434814453125,141.326904296875
3.0099999,1.4915876388549805,0.7398083209991455,8.379706382751465,-17.7154541015625,-21.1334228515625,141.2811279296875
3.0299999,0.38546648621559143,-2.5929205417633057,7.7763671875,-12.359619140625,-21.6217041015625,127.8839111328125
3.0499999,-0.44532153010368347,-5.791574001312256,7.501033782958984,-5.2490234375,-21.881103515625,108.428955078125
3.0699999,-1.0055646896362305,-8.5903959274292,7.3669586181640625,1.2054443359375,-18.707275390625,79.28466796875
3.0899999,-1.3120225667953491,-10.862493515014648,7.225700855255127,-0.5035400390625,-10.6353759765625,40.008544921875
3.1099999,-1.400607943534851,-13.19205093383789,6.823474884033203,17.425537109375,1.800537109375,-42.4041748046875
3.1299999,-1.3215993642807007,-13.160926818847656,6.576871871948242,24.4293212890625,8.97216796875,-71.5789794921875
3.1499999,-1.2066776752471924,-12.325350761413574,6.423643112182617,19.287109375,23.9410400390625,-99.1973876953125
3.1699999,-1.0462661981582642,-10.83855152130127,6.457161903381348,14.984130859375,34.9884033203125,-122.7264404296875
3.1899999,-0.8068459630012512,-9.02135181427002,6.756437301635742,22.15576171875,36.5447998046875,-131.9427490234375
3.2099999,-0.38067805767059326,-6.744466304779053,7.386112213134766,37.872314453125,32.6690673828125,-145.9808349609375
3.2299999,0.3232172429561615,-3.9815573692321777,8.427590370178223,22.186279296875,39.0777587890625,-153.1829833984375
3.2499999,1.381454348564148,-0.7733271718025208,9.861717224121094,-26.947021484375,50.8880615234375,-125.5645751953125
3.2699999,2.7269957065582275,2.7054479122161865,11.453861236572266,-51.9866943359375,39.4744873046875,-77.4078369140625
3.2899999,4.165910720825195,6.169857978820801,12.959814071655273,-37.200927734375,12.725830078125,-39.9169921875
3.3099999,5.322310447692871,8.801085472106934,13.833697319030762,-16.876220703125,-15.7012939453125,7.4462890625
3.3299999000000002,5.872976779937744,10.137049674987793,13.84566879272461,-8.4228515625,-33.7677001953125,57.5408935546875
3.3499999,5.724536418914795,10.074800491333008,13.139378547668457,-3.662109375,-37.7349853515625,87.371826171875
3.3699999,4.944026470184326,8.56645393371582,11.93509578704834,-10.4217529296875,-35.7666015625,114.1204833984375
3.3899999,3.8139634132385254,6.090848922729492,10.72602367401123,-22.3846435546875,-33.905029296875,136.3372802734375
3.4099999,2.5929205417633057,3.1699230670928955,9.708487510681152,-21.9268798828125,-34.8358154296875,142.08984375
3.4299999,1.4676456451416016,0.1628057211637497,9.035717010498047,-1.9073486328125,-41.046142578125,139.373779296875
3.4499999,0.5123591423034668,-2.7317841053009033,8.508993148803711,9.9639892578125,-47.2564697265625,133.636474609375
3.4699999,-0.2298433631658554,-5.420472621917725,8.039729118347168,-3.4942626953125,-37.53662109375,121.673583984375
3.4899999,-0.7996633648872375,-7.884106159210205,7.474697589874268,-23.1170654296875,-20.294189453125,94.4366455078125
3.5099999,-1.2042834758758545,-10.072406768798828,6.892906665802002,-13.7176513671875,-7.50732421875,55.908203125
3.5299999,-1.4676456451416016,-11.791443824768066,6.354211330413818,12.3748779296875,-4.3487548828125,12.0697021484375
3.5499999,-1.6041151285171509,-12.971784591674805,5.963956356048584,22.4151611328125,0.457763671875,-25.848388671875
3.5699999,-1.6615760326385498,-13.496114730834961,5.726930618286133,17.486572265625,11.962890625,-62.68310546875
3.5899999,-1.647210717201233,-13.30457878112793,5.702988624572754,14.70947265625,29.4189453125,-99.0753173828125
3.6099999,-1.601720929145813,-12.502521514892578,5.856217384338379,22.5677490234375,34.85107421875,-127.3345947265625
3.6299999,-1.479616641998291,-11.025299072265625,6.248866558074951,27.4658203125,35.5072021484375,-150.665283203125
3.6499999,-1.2401964664459229,-9.064447402954102,6.919242858886719,25.1007080078125,42.205810546875,-166.7327880859375
3.6699999,-0.7996633648872375,-6.6630635261535645,7.8960771560668945,20.7977294921875,45.1812744140625,-176.0711669921875
3.6899999,-0.040701430290937424,-3.8115692138671875,9.279925346374512,12.6495361328125,41.4886474609375,-175.628662109375
3.7099999,1.0845733880996704,-0.3256114423274994,10.852916717529297,-15.5181884765625,29.2205810546875,-156.280517578125
3.7299999,2.5522189140319824,3.576937437057495,12.404358863830566,-41.1224365234375,19.317626953125,-108.917236328125
3.7499999,4.127603530883789,7.393294811248779,13.771448135375977,-38.8946533203125,14.190673828125,-42.41943359375
3.7699999,5.415684223175049,10.393229484558105,14.324508666992188,-30.1666259765625,-19.500732421875,15.1214599609375
3.7899999,6.114790916442871,11.925518989562988,14.099453926086426,-16.54052734375,-47.0123291015625,55.4351806640625
3.8099999,6.050147533416748,11.724405288696289,13.098677635192871,1.6937255859375,-48.8128662109375,92.3919677734375
3.8299999000000002,5.305551052093506,10.012551307678223,11.563994407653809,10.2386474609375,-44.403076171875,126.3427734375
3.8499999,4.141968727111816,7.261613845825195,9.99339771270752,5.1727294921875,-42.29736328125,146.3165283203125
3.8699999,2.8227639198303223,3.950432777404785,8.7268648147583,-3.082275390625,-36.4990234375,154.9072265625
3.8899999,1.5538369417190552,0.45489832758903503,7.9176249504089355,-4.9591064453125,-29.9835205078125,159.149169921875
3.9099999,0.47884035110473633,-2.9544448852539062,7.580042362213135,5.4473876953125,-25.970458984375,150.6500244140625
3.9299999,-0.33997663855552673,-6.088454723358154,7.536946773529053,13.85498046875,-29.205322265625,124.237060546875
3.9499999,-0.9074024558067322,-8.93037223815918,7.568071365356445,-0.091552734375,-26.397705078125,92.8955078125
3.9699999,-1.2473790645599365,-11.238382339477539,7.565677165985107,-19.6685791015625,-8.7890625,55.267333984375
3.9899999,-1.4269442558288574,-12.921506881713867,7.331045627593994,-14.0533447265625,0.5950927734375,10.7421875
4.0099999,-1.455674648284912,-13.781024932861328,7.003039836883545,15.1214599609375,-1.1749267578125,-35.3546142578125
4.029999900000001,-1.4053963422775269,-13.910311698913574,6.636727333068848,26.611328125,3.8909912109375,-70.8160400390625
4.0499999,-1.280897855758667,-13.220781326293945,6.385335922241211,11.9171142578125,19.3939208984375,-99.395751953125
4.069999900000001,-1.115697979927063,-11.942277908325195,6.308721542358398,0.457763671875,31.31103515625,-120.4071044921875
4.0899999000000005,-0.9145850539207458,-10.254365921020508,6.493074893951416,9.1552734375,34.5001220703125,-135.7574462890625
4.1099999,-0.6153098344802856,-8.26239013671875,6.936002254486084,29.754638671875,28.2135009765625,-152.9083251953125
4.1299999000000005,-0.1364694982767105,-5.992686748504639,7.69735860824585,38.75732421875,26.123046875,-169.6014404296875
4.1499999,0.5482721924781799,-3.509899616241455,8.645462036132812,19.317626953125,24.4293212890625,-162.9180908203125
4.1699999000000005,1.436521053314209,-0.7015010714530945,9.528923034667969,-15.0909423828125,22.2015380859375,-139.1448974609375
4.1899999,2.6001031398773193,2.473210334777832,10.560823440551758,-32.8521728515625,35.5682373046875,-111.51123046875
4.209999900000001,3.9001545906066895,5.652710437774658,11.544840812683105,-33.50830078125,38.51318359375,-66.5130615234375
4.2299999,5.16429328918457,8.530540466308594,12.394782066345215,-28.167724609375,5.9661865234375,-8.544921875
4.249999900000001,6.090848922729492,10.41956615447998,13.074735641479492,-14.3890380859375,-19.2718505859375,43.426513671875
4.2699999,6.406883716583252,10.936713218688965,13.103466033935547,-2.9449462890625,-35.308837890625,80.7647705078125
4.289999900000001,6.030993938446045,10.06043529510498,12.54801082611084,6.317138671875,-40.069580078125,104.2022705078125
4.3099999,5.0876784324646,7.972691535949707,11.496956825256348,5.7220458984375,-39.337158203125,130.7830810546875
4.329999900000001,3.8786067962646484,5.348646640777588,10.347740173339844,-8.2855224609375,-33.26416015625,148.8189697265625
4.3499999,2.631227731704712,2.494758129119873,9.35654067993164,-28.7628173828125,-25.32958984375,160.614013671875
4.369999900000001,1.5083470344543457,-0.31842881441116333,8.683769226074219,-39.9169921875,-20.69091796875,168.3349609375
4.3899999,0.5770025849342346,-3.0142998695373535,8.317456245422363,-30.487060546875,-23.92578125,159.149169921875
4.409999900000001,-0.14365209639072418,-5.523423194885254,8.094796180725098,-11.627197265625,-33.0963134765625,134.4146728515625
4.4299999,-0.689530074596405,-7.898471355438232,7.843404769897461,1.6632080078125,-35.7513427734375,104.06494140625
4.449999900000001,-1.0582371950149536,-9.914389610290527,7.448361396789551,5.9051513671875,-29.022216796875,69.39697265625
4.4699999,-1.2880805730819702,-11.51611042022705,6.871358871459961,0.0152587890625,-15.19775390625,32.0892333984375
4.489999900000001,-1.3670891523361206,-12.574347496032715,6.246472358703613,-6.3323974609375,1.312255859375,-4.547119140625
4.5099999,-1.3120225667953491,-12.928689002990723,5.758055210113525,8.270263671875,12.664794921875,-44.921875
4.529999900000001,-1.1779472827911377,-12.658143997192383,5.446808815002441,15.1214599609375,21.0113525390625,-71.8994140625
4.5499999,-0.993593692779541,-11.827356338500977,5.477933406829834,13.00048828125,31.6162109375,-90.9423828125
4.569999900000001,-0.811634361743927,-10.644620895385742,5.7772088050842285,12.939453125,41.778564453125,-111.2060546875
4.5899999000000005,-0.5793967843055725,-9.138668060302734,6.404489517211914,14.7857666015625,46.630859375,-134.8876953125
4.609999900000001,-0.29209262132644653,-7.532158374786377,7.254431247711182,21.30126953125,42.6788330078125,-145.721435546875
4.6299999000000005,0.4381389021873474,-4.043806552886963,8.844181060791016,28.8543701171875,24.810791015625,-147.6287841796875
4.6499999,0.9002198576927185,-2.2816741466522217,9.411606788635254,26.214599609375,36.2091064453125,-148.5748291015625
4.6699999000000005,1.6352397203445435,-0.1149216815829277,10.098742485046387,3.23486328125,55.0994873046875,-143.6309814453125
4.6899999,2.760514497756958,2.5713725090026855,11.154585838317871,-23.2696533203125,45.8831787109375,-100.64697265625
4.709999900000001,4.211400985717773,5.664681434631348,12.528857231140137,-31.9976806640625,14.46533203125,-37.2467041015625
4.7299999,5.657498836517334,8.647856712341309,13.848062515258789,-29.5562744140625,-9.6893310546875,15.5181884765625
4.749999900000001,6.600813865661621,10.551246643066406,14.437036514282227,-24.078369140625,-32.135009765625,62.0269775390625
4.7699999,6.785167694091797,11.17852783203125,14.123395919799805,-11.16943359375,-51.6204833984375,97.198486328125
4.789999900000001,6.200982570648193,10.326191902160645,13.105859756469727,0.579833984375,-56.854248046875,130.4168701171875
4.8099999,5.027823448181152,8.403648376464844,11.693281173706055,1.434326171875,-54.3060302734375,156.585693359375
4.829999900000001,3.512293815612793,5.600037574768066,10.20648193359375,-10.1318359375,-52.4444580078125,176.8951416015625
4.8499999,1.9105730056762695,2.2816741466522217,8.932766914367676,-11.2152099609375,-47.2412109375,181.1370849609375
4.869999900000001,0.38307225704193115,-1.3742717504501343,7.888894557952881,-3.326416015625,-41.1224365234375,168.426513671875
4.8899999,-0.912190854549408,-5.092466831207275,7.0988078117370605,1.8157958984375,-33.9202880859375,143.6767578125
4.909999900000001,-1.9105730056762695,-8.674192428588867,6.493074893951416,-0.4119873046875,-26.6876220703125,109.222412109375
4.9299999,-2.5761611461639404,-11.851298332214355,5.971138954162598,-0.6866455078125,-17.7459716796875,64.9566650390625
4.949999900000001,-2.937685489654541,-14.415488243103027,5.540182590484619,8.514404296875,-3.72314453125,12.359619140625
4.9699999,-2.9735984802246094,-16.03636360168457,5.185841083526611,25.970458984375,6.8206787109375,-46.2188720703125
4.989999900000001,-2.7293899059295654,-16.41225242614746,5.169081687927246,35.8123779296875,18.9361572265625,-99.67041015625
5.0099999,-2.2409727573394775,-15.51921558380127,5.377377033233643,23.5748291015625,25.57373046875,-125.6103515625
5.029999900000001,-1.6352397203445435,-13.457807540893555,5.889736175537109,8.575439453125,36.4837646484375,-142.15087890625
5.0499999,-0.9672574996948242,-10.558429718017578,6.53377628326416,-1.2054443359375,49.6826171875,-154.6630859375
5.069999900000001,-0.26336219906806946,-7.297526836395264,7.3454108238220215,11.4288330078125,56.304931640625,-161.43798828125
5.0899999000000005,0.5410895943641663,-3.804386615753174,8.355764389038086,25.0701904296875,52.9022216796875,-155.2734375
5.109999900000001,1.4652514457702637,-0.4812345504760742,9.588777542114258,18.2037353515625,46.600341796875,-131.256103515625
5.1299999000000005,2.4875755310058594,2.434903144836426,10.857705116271973,3.1585693359375,33.14208984375,-97.7783203125
5.1499999,3.557783842086792,4.876988887786865,12.038045883178711,-8.3160400390625,22.39990234375,-72.44873046875
5.1699999000000005,4.54419469833374,6.66785192489624,12.871228218078613,-17.5018310546875,11.627197265625,-41.07666015625
5.1899999,5.307945251464844,7.733271598815918,13.201627731323242,-17.4102783203125,-7.0648193359375,2.593994140625
5.209999900000001,5.698200225830078,7.999027729034424,12.935872077941895,-9.8724365234375,-21.453857421875,39.4287109375
5.2299999,5.633556365966797,7.402871608734131,12.081141471862793,0.8697509765625,-27.9083251953125,61.58447265625
5.249999900000001,5.094861030578613,5.892130374908447,10.78587818145752,9.82666015625,-24.9176025390625,81.878662109375
5.2699999,4.225766181945801,3.7684733867645264,9.370905876159668,10.498046875,-20.20263671875,97.3052978515625
5.289999900000001,3.203441858291626,1.237802267074585,8.236053466796875,5.462646484375,-7.8582763671875,100.3570556640625
5.3099999,2.1978771686553955,-1.4197616577148438,7.522581577301025,-1.6021728515625,-2.410888671875,94.3145751953125
5.329999900000001,1.381454348564148,-3.885789394378662,7.364564418792725,-4.791259765625,1.52587890625,77.33154296875
5.3499999,0.8212111592292786,-5.947196960449219,7.620744228363037,-8.514404296875,2.6397705078125,60.6842041015625
5.369999900000001,0.5339069962501526,-7.393294811248779,8.106766700744629,-11.077880859375,-0.1983642578125,43.548583984375
5.3899999,0.48602294921875,-8.180987358093262,8.65982723236084,-8.392333984375,-2.349853515625,25.1617431640625
5.409999900000001,0.6153098344802856,-8.286332130432129,9.050082206726074,-2.655029296875,-6.34765625,4.0435791015625
5.4299999,0.9050082564353943,-7.671022415161133,9.23682975769043,7.9498291015625,-9.033203125,-13.3514404296875
5.449999900000001,1.2665326595306396,-6.643909931182861,9.157821655273438,12.02392578125,-7.0037841796875,-15.4571533203125
5.4699999,1.7070658206939697,-5.214571475982666,8.932766914367676,5.9051513671875,-2.2125244140625,-16.143798828125
5.489999900000001,2.126051187515259,-3.804386615753174,8.681375503540039,-0.18310546875,4.7607421875,-14.46533203125
5.5099999,2.4827871322631836,-2.6024973392486572,8.523358345031738,-0.518798828125,5.615234375,-6.805419921875
5.529999900000001,2.741360902786255,-1.8100165128707886,8.523358345031738,2.7008056640625,5.8135986328125,-1.495361328125
5.5499999,2.8993782997131348,-1.3934253454208374,8.712499618530273,2.593994140625,5.2642822265625,-1.52587890625
5.569999900000001,2.9281086921691895,-1.4293384552001953,8.954314231872559,-1.251220703125,4.2877197265625,1.800537109375
5.5899999000000005,2.8778305053710938,-1.7118542194366455,9.260771751403809,-4.425048828125,3.936767578125,5.584716796875
5.609999900000001,2.7461493015289307,-2.1332337856292725,9.411606788635254,-4.669189453125,0.9613037109375,4.1046142578125
5.6299999000000005,2.583343744277954,-2.6144683361053467,9.466673851013184,-2.5634765625,0.5645751953125,3.4332275390625
5.6499999,2.4372973442077637,-3.002328872680664,9.354146003723145,0.1678466796875,1.3427734375,-0.823974609375
5.6699999000000005,2.341529369354248,-3.220201253890991,9.17936897277832,2.3193359375,0.79345703125,-3.692626953125
5.6899999,2.3104045391082764,-3.294421434402466,9.011775016784668,3.662109375,1.3275146484375,-1.6021728515625
5.709999900000001,2.3319525718688965,-3.1866824626922607,8.892065048217773,2.1820068359375,1.190185546875,-1.3427734375
5.7299999,2.3918075561523438,-2.9975404739379883,8.880094528198242,-0.5035400390625,2.7313232421875,-1.434326171875
5.749999900000001,2.449268341064453,-2.8227639198303223,8.944737434387207,-1.861572265625,3.84521484375,2.1514892578125
5.7699999,2.494758129119873,-2.6791117191314697,9.050082206726074,-1.8768310546875,1.739501953125,3.2196044921875
5.789999900000001,2.5067291259765625,-2.650381326675415,9.160215377807617,-1.5716552734375,1.6021728515625,2.7618408203125
5.8099999,2.4827871322631836,-2.715024709701538,9.217676162719727,-1.800537109375,1.03759765625,1.9073486328125
5.829999900000001,2.4420857429504395,-2.82515811920166,9.220070838928223,-1.129150390625,0.9002685546875,0
5.8499999,2.3942017555236816,-2.9472622871398926,9.172186851501465,-0.0762939453125,-0.2288818359375,-0.30517578125
5.869999900000001,2.3535003662109375,-3.043030261993408,9.078812599182129,0.91552734375,-0.9307861328125,-0.5340576171875
5.8899999,2.3367409706115723,-3.0789434909820557,8.99740982055664,2.288818359375,0.2899169921875,-2.9449462890625
5.909999900000001,2.341529369354248,-3.071760892868042,8.911218643188477,2.716064453125,1.129150390625,-3.2958984375
5.9299999,2.3750481605529785,-2.9951462745666504,8.89685344696045,2.349853515625,2.13623046875,-2.685546875
5.949999900000001,2.4372973442077637,-2.849100112915039,8.937555313110352,1.5716552734375,2.13623046875,-1.9683837890625
5.9699999,2.492363929748535,-2.7006595134735107,9.009381294250488,-0.762939453125,2.0599365234375,1.3427734375
5.989999900000001,2.5258827209472656,-2.5929205417633057,9.102754592895508,-2.38037109375,2.227783203125,4.1961669921875
6.0099999,2.513911724090576,-2.585737943649292,9.14345645904541,-1.8157958984375,1.46484375,4.08935546875
6.029999900000001,2.473210334777832,-2.676717519760132,9.172186851501465,-1.251220703125,1.251220703125,1.9073486328125
6.0499999,2.425326347351074,-2.806004285812378,9.174580574035645,-2.3193359375,1.434326171875,0.0457763671875
6.069999900000001,2.38462495803833,-2.918531894683838,9.169792175292969,-2.3651123046875,0.7171630859375,0.1220703125
6.0899999000000005,2.363077163696289,-2.980781078338623,9.14585018157959,-0.8087158203125,0.0457763671875,0.6866455078125
6.109999900000001,2.3558945655822754,-2.9927520751953125,9.093177795410156,0.3509521484375,-0.0762939453125,0.2899169921875
6.1299999000000005,2.3582887649536133,-2.985569477081299,9.028534889221191,0.9002685546875,1.007080078125,-0.8087158203125
6.149999900000001,2.3965959548950195,-2.8802247047424316,8.971074104309082,-0.946044921875,1.52587890625,0.244140625
6.1699999000000005,2.4133553504943848,-2.8634653091430664,9.002198219299316,-0.79345703125,0.762939453125,2.2125244140625
6.1899999,2.43011474609375,-2.8443117141723633,9.062053680419922,-0.518798828125,0.9765625,-0.091552734375
6.209999900000001,2.434903144836426,-2.8347349166870117,9.107542991638184,-0.67138671875,0.762939453125,-1.8157958984375
6.2299999,2.432508945465088,-2.846705913543701,9.148244857788086,-0.7171630859375,0.8697509765625,0.9307861328125
6.249999900000001,2.427720546722412,-2.827552318572998,9.136273384094238,-1.7547607421875,0.5645751953125,2.3345947265625
6.2699999,2.4133553504943848,-2.832340717315674,9.105149269104004,-1.220703125,1.068115234375,0.8392333984375
6.289999900000001,2.3942017555236816,-2.8658595085144043,9.030928611755371,1.068115234375,0.7171630859375,-0.1220703125
6.3099999,2.3774423599243164,-2.896984100341797,8.971074104309082,1.6021728515625,1.190185546875,0.30517578125
6.329999900000001,2.3726539611816406,-2.918531894683838,8.937555313110352,0.213623046875,2.1820068359375,0.4730224609375
6.3499999,2.3750481605529785,-2.9233202934265137,8.947132110595703,0.48828125,1.617431640625,0.030517578125
6.369999900000001,2.3750481605529785,-2.942473888397217,8.983044624328613,1.190185546875,1.251220703125,0.152587890625
6.3899999,2.3726539611816406,-2.935291290283203,9.028534889221191,1.434326171875,1.0986328125,-1.1444091796875
6.409999900000001,2.367865562438965,-2.935291290283203,9.069235801696777,2.197265625,1.434326171875,-1.2969970703125
6.4299999,2.382230758666992,-2.87064790725708,9.119514465332031,1.373291015625,1.6021728515625,-1.0833740234375
6.449999900000001,2.3989901542663574,-2.8131868839263916,9.150638580322266,-0.6561279296875,1.1444091796875,1.373291015625
6.4699999,2.4205379486083984,-2.7509377002716064,9.188945770263672,-1.1444091796875,1.068115234375,2.50244140625
6.489999900000001,2.434903144836426,-2.7222073078155518,9.186552047729492,0.030517578125,0.06103515625,1.0986328125
6.5099999,2.4229321479797363,-2.7509377002716064,9.153033256530762,0.1983642578125,-0.0457763671875,1.4801025390625
6.529999900000001,2.406172752380371,-2.8203697204589844,9.107542991638184,-1.1749267578125,1.0528564453125,2.2430419921875
6.5499999,2.382230758666992,-2.875436305999756,9.064447402954102,-0.48828125,1.40380859375,-0.030517578125
6.569999900000001,2.3582887649536133,-2.9496564865112305,9.042900085449219,-0.2288818359375,0.7476806640625,0.091552734375
6.5899999000000005,2.3511061668395996,-2.9759926795959473,9.05487060546875,0.244140625,0.579833984375,-0.152587890625
6.609999900000001,2.3558945655822754,-2.9712042808532715,9.062053680419922,0.457763671875,0.0762939453125,-0.9307861328125
6.6299999000000005,2.3702597618103027,-2.9281086921691895,9.069235801696777,0.0457763671875,0.3662109375,-0.762939453125
6.649999900000001,2.38462495803833,-2.8850131034851074,9.066842079162598,-0.518798828125,1.0223388671875,0.640869140625
6.6699999000000005,2.3918075561523438,-2.8562827110290527,9.042900085449219,0.030517578125,0.457763671875,0.79345703125
6.6899999,2.3989901542663574,-2.8419175148010254,9.042900085449219,0.54931640625,0.9307861328125,-0.8087158203125
6.709999900000001,2.403778553009033,-2.8371291160583496,9.05247688293457,0.30517578125,0.9307861328125,-0.9918212890625
6.7299999,2.410961151123047,-2.82515811920166,9.069235801696777,-0.7171630859375,0.3204345703125,0.48828125
6.749999900000001,2.4157495498657227,-2.8155810832977295,9.097966194152832,-1.220703125,0.3814697265625,1.5716552734375
6.7699999,2.410961151123047,-2.8203697204589844,9.119514465332031,-1.5106201171875,0.640869140625,1.0833740234375
6.789999900000001,2.4013843536376953,-2.849100112915039,9.131484985351562,-1.1444091796875,-0.518798828125,-0.0152587890625
6.8099999,2.389413356781006,-2.8874073028564453,9.126696586608887,-0.3814697265625,-1.5716552734375,-0.18310546875
6.829999900000001,2.3798365592956543,-2.8993782997131348,9.102754592895508,0.3509521484375,-1.52587890625,-0.152587890625
6.8499999,2.3726539611816406,-2.911349296569824,9.05487060546875,1.3427734375,-0.1983642578125,0.335693359375
6.869999900000001,2.3750481605529785,-2.896984100341797,9.028534889221191,1.1749267578125,1.8157958984375,-0.5340576171875
6.8899999,2.38462495803833,-2.8802247047424316,9.002198219299316,0.3662109375,0.9307861328125,-0.67138671875
6.909999900000001,2.403778553009033,-2.849100112915039,9.023746490478516,0,1.3427734375,-0.18310546875
6.9299999,2.4205379486083984,-2.82515811920166,9.047688484191895,-0.6561279296875,1.2359619140625,0.9765625
6.949999900000001,2.427720546722412,-2.8203697204589844,9.081207275390625,-1.1138916015625,1.28173828125,1.007080078125
6.9699999,2.427720546722412,-2.832340717315674,9.11233139038086,-1.4190673828125,1.1749267578125,-0.3509521484375
6.989999900000001,2.4229321479797363,-2.8586769104003906,9.119514465332031,-1.220703125,0.48828125,-0.579833984375
7.0099999,2.4181437492370605,-2.87064790725708,9.10993766784668,-0.9613037109375,0.2899169921875,-0.0762939453125
7.029999900000001,2.4157495498657227,-2.853888511657715,9.078812599182129,-1.2054443359375,0.762939453125,0.579833984375
7.0499999,2.410961151123047,-2.853888511657715,9.05487060546875,-1.2664794921875,1.2664794921875,1.6937255859375
7.069999900000001,2.403778553009033,-2.846705913543701,9.030928611755371,-1.2664794921875,1.3427734375,0.732421875
7.0899999000000005,2.3989901542663574,-2.8658595085144043,9.047688484191895,-0.8697509765625,1.7547607421875,0.2899169921875
7.109999900000001,2.3918075561523438,-2.889801502227783,9.045293807983398,-0.4730224609375,0.42724609375,0.1983642578125
7.1299999000000005,2.3942017555236816,-2.9041666984558105,9.05487060546875,-0.30517578125,0.4730224609375,0.06103515625
7.149999900000001,2.3965959548950195,-2.892195701599121,9.045293807983398,-0.48828125,1.129150390625,-0.030517578125
7.1699999000000005,2.4013843536376953,-2.8874073028564453,9.050082206726074,-0.701904296875,1.9378662109375,1.2969970703125
7.1899999,2.403778553009033,-2.868253707885742,9.05487060546875,-1.4495849609375,1.3885498046875,1.15966796875
7.209999900000001,2.3965959548950195,-2.889801502227783,9.069235801696777,-0.8697509765625,0.274658203125,0.9307861328125
7.2299999,2.3942017555236816,-2.8993782997131348,9.074024200439453,0.2899169921875,0.3814697265625,-0.4119873046875
7.249999900000001,2.389413356781006,-2.9161376953125,9.057265281677246,-0.1983642578125,1.2054443359375,-0.274658203125
7.2699999,2.3942017555236816,-2.9017724990844727,9.038111686706543,-0.335693359375,1.40380859375,0.640869140625
7.289999900000001,2.3942017555236816,-2.894589900970459,9.030928611755371,0.0457763671875,0.8544921875,1.7547607421875
7.3099999,2.387019157409668,-2.911349296569824,9.035717010498047,0.0152587890625,0.6561279296875,1.15966796875
7.329999900000001,2.382230758666992,-2.9281086921691895,9.059659004211426,0.244140625,0.9307861328125,-1.2969970703125
7.3499999,2.3798365592956543,-2.9328970909118652,9.081207275390625,0.5035400390625,0.946044921875,-1.922607421875
7.369999900000001,2.387019157409668,-2.913743495941162,9.090784072875977,0.091552734375,0.2288818359375,0.3814697265625
7.3899999,2.3989901542663574,-2.875436305999756,9.0859956741333,-0.6866455078125,0.3509521484375,1.4190673828125
7.409999900000001,2.408566951751709,-2.8443117141723633,9.064447402954102,-0.396728515625,0.701904296875,0.67138671875
7.4299999,2.406172752380371,-2.8419175148010254,9.040505409240723,0.67138671875,0.7171630859375,0.3204345703125
7.449999900000001,2.3965959548950195,-2.8658595085144043,9.026140213012695,-0.8544921875,1.52587890625,1.0986328125
7.4699999,2.3918075561523438,-2.8778305053710938,9.047688484191895,-1.2054443359375,1.7242431640625,0.18310546875
7.489999900000001,2.387019157409668,-2.8993782997131348,9.074024200439453,-0.8392333984375,0.6103515625,0.579833984375
7.5099999,2.387019157409668,-2.911349296569824,9.114726066589355,-0.9765625,0.701904296875,0.9613037109375
7.529999900000001,2.387019157409668,-2.9041666984558105,9.129091262817383,-1.6021728515625,0.5950927734375,0.335693359375
7.5499999,2.3798365592956543,-2.9281086921691895,9.119514465332031,-1.251220703125,0.335693359375,0.91552734375
7.569999900000001,2.3726539611816406,-2.9328970909118652,9.093177795410156,-0.48828125,0.6103515625,-0.1373291015625
7.5899999000000005,2.367865562438965,-2.942473888397217,9.057265281677246,-0.3204345703125,0.8392333984375,-0.79345703125
7.609999900000001,2.365471363067627,-2.9520506858825684,9.035717010498047,-0.5645751953125,1.0528564453125,-0.152587890625
7.6299999000000005,2.3726539611816406,-2.940079689025879,9.026140213012695,-0.4119873046875,1.03759765625,-0.5035400390625
7.649999900000001,2.3774423599243164,-2.9305028915405273,9.026140213012695,0.091552734375,0.7171630859375,-0.7476806640625
7.6699999000000005,2.389413356781006,-2.892195701599121,9.035717010498047,-0.579833984375,0.8392333984375,0.1983642578125
7.6899999,2.3918075561523438,-2.8826189041137695,9.045293807983398,-0.91552734375,1.28173828125,0.640869140625
7.709999900000001,2.389413356781006,-2.8850131034851074,9.047688484191895,-0.640869140625,1.556396484375,0.1373291015625
7.7299999,2.389413356781006,-2.894589900970459,9.062053680419922,-0.1068115234375,1.3885498046875,-0.2593994140625
7.749999900000001,2.3965959548950195,-2.896984100341797,9.074024200439453,-0.2593994140625,0.9613037109375,0.06103515625
7.7699999,2.4013843536376953,-2.8993782997131348,9.090784072875977,-1.03759765625,0.762939453125,0.762939453125
7.789999900000001,2.406172752380371,-2.894589900970459,9.107542991638184,-1.922607421875,1.068115234375,0.9613037109375
7.8099999,2.3965959548950195,-2.8993782997131348,9.095572471618652,-2.1820068359375,0.8697509765625,0.4730224609375
7.829999900000001,2.382230758666992,-2.9161376953125,9.071630477905273,-1.373291015625,0.67138671875,0.6561279296875
7.8499999,2.363077163696289,-2.935291290283203,9.02135181427002,-0.4730224609375,1.007080078125,0.7476806640625
7.869999900000001,2.343923568725586,-2.9688100814819336,8.987833023071289,0.6103515625,1.3275146484375,0.5645751953125
7.8899999,2.3367409706115723,-3.00711727142334,8.987833023071289,1.0986328125,1.5716552734375,-0.91552734375
7.909999900000001,2.341529369354248,-3.0142998695373535,9.02135181427002,1.4190673828125,0.6561279296875,-2.5177001953125
7.9299999,2.360682964324951,-2.9879636764526367,9.090784072875977,1.46484375,0.1068115234375,-1.4801025390625
7.949999900000001,2.389413356781006,-2.9328970909118652,9.133879661560059,0.0457763671875,-0.2593994140625,0.54931640625
7.9699999,2.4157495498657227,-2.849100112915039,9.141061782836914,-1.5869140625,0.5035400390625,1.1138916015625
7.989999900000001,2.4205379486083984,-2.8203697204589844,9.081207275390625,-3.021240234375,1.5716552734375,2.13623046875
8.0099999,2.408566951751709,-2.8107926845550537,9.016563415527344,-2.01416015625,2.8228759765625,2.1820068359375
8.0299999,2.3750481605529785,-2.896984100341797,8.959102630615234,-0.1678466796875,2.0904541015625,1.800537109375
8.049999900000001,2.3535003662109375,-2.959233283996582,8.973467826843262,0.4119873046875,1.6632080078125,-0.6256103515625
8.069999900000001,2.346317768096924,-3.0190882682800293,9.028534889221191,-0.1068115234375,0.8087158203125,-1.8310546875
8.0899999,2.3582887649536133,-3.0119056701660156,9.097966194152832,-0.6103515625,0.518798828125,-0.4425048828125
8.1099999,2.3702597618103027,-2.959233283996582,9.126696586608887,-1.312255859375,0.2288818359375,0.762939453125
8.129999900000001,2.3774423599243164,-2.913743495941162,9.114726066589355,-1.5869140625,1.1749267578125,1.708984375
8.149999900000001,2.367865562438965,-2.9017724990844727,9.057265281677246,-1.068115234375,1.03759765625,1.1749267578125
8.1699999,2.3535003662109375,-2.9233202934265137,9.004592895507812,0.518798828125,1.434326171875,0.1983642578125
8.1899999,2.341529369354248,-2.9520506858825684,8.975862503051758,0.67138671875,1.40380859375,-0.579833984375
8.2099999,2.343923568725586,-2.964021682739258,8.999804496765137,0.518798828125,1.3275146484375,-0.1068115234375
8.229999900000001,2.3535003662109375,-2.9544448852539062,9.045293807983398,-0.3204345703125,0.91552734375,0.5035400390625
8.2499999,2.365471363067627,-2.937685489654541,9.102754592895508,-1.312255859375,0.823974609375,0.7171630859375
8.2699999,2.3702597618103027,-2.9305028915405273,9.119514465332031,-1.4495849609375,0.79345703125,0.7171630859375
8.2899999,2.3702597618103027,-2.9257144927978516,9.121908187866211,-0.457763671875,1.190185546875,0.030517578125
8.309999900000001,2.360682964324951,-2.9328970909118652,9.078812599182129,0.274658203125,0.823974609375,0.335693359375
8.3299999,2.3535003662109375,-2.9448680877685547,9.05247688293457,0.9613037109375,0.885009765625,0.518798828125
8.3499999,2.3511061668395996,-2.9448680877685547,9.030928611755371,-1.0528564453125,1.5716552734375,0.42724609375
8.3699999,2.3487119674682617,-2.9688100814819336,9.038111686706543,-0.9613037109375,1.1444091796875,0.5645751953125
8.389999900000001,2.3487119674682617,-2.983175277709961,9.050082206726074,-0.3204345703125,0.3509521484375,0.1220703125
8.4099999,2.3487119674682617,-2.9903578758239746,9.062053680419922,-0.7171630859375,0.8697509765625,-0.701904296875
8.4299999,2.346317768096924,-2.9903578758239746,9.05247688293457,-0.335693359375,0.946044921875,-0.244140625
8.4499999,2.343923568725586,-2.964021682739258,9.033323287963867,-0.274658203125,1.2664794921875,-0.0152587890625
8.469999900000001,2.341529369354248,-2.956839084625244,9.016563415527344,0.030517578125,1.4801025390625,0.9307861328125
8.4899999,2.346317768096924,-2.937685489654541,9.014169692993164,-0.152587890625,1.7242431640625,0.2899169921875
8.5099999,2.3487119674682617,-2.9496564865112305,9.030928611755371,-0.3814697265625,1.6326904296875,0.152587890625
8.5299999,2.3535003662109375,-2.9496564865112305,9.062053680419922,-0.42724609375,1.0833740234375,0.2288818359375
8.549999900000001,2.3558945655822754,-2.9472622871398926,9.093177795410156,-0.7781982421875,0.9307861328125,0.1983642578125
8.569999900000001,2.3511061668395996,-2.959233283996582,9.105149269104004,-1.0986328125,0.8544921875,1.129150390625
8.5899999,2.346317768096924,-2.9544448852539062,9.100360870361328,-0.7476806640625,0.7476806640625,0.0457763671875
8.6099999,2.33913516998291,-2.959233283996582,9.081207275390625,-0.8087158203125,1.1138916015625,-0.396728515625
8.629999900000001,2.3343467712402344,-2.956839084625244,9.047688484191895,-0.4730224609375,1.190185546875,0.54931640625
8.649999900000001,2.3343467712402344,-2.9472622871398926,9.038111686706543,0.5950927734375,1.28173828125,0.9918212890625
8.6699999,2.3343467712402344,-2.9448680877685547,9.01895809173584,-0.18310546875,0.7171630859375,0.9307861328125
8.6899999,2.3367409706115723,-2.96162748336792,9.040505409240723,-0.701904296875,1.4495849609375,0.9765625
8.709999900000001,2.3343467712402344,-2.978386878967285,9.045293807983398,-0.54931640625,1.15966796875,-0.0762939453125
8.729999900000001,2.3319525718688965,-2.9951462745666504,9.062053680419922,-0.5035400390625,0.9307861328125,0.030517578125
8.7499999,2.3271639347076416,-3.00711727142334,9.069235801696777,0.0457763671875,1.03759765625,0.42724609375
8.7699999,2.3271639347076416,-2.9975404739379883,9.064447402954102,-0.1220703125,0.91552734375,0.06103515625
8.7899999,2.3271639347076416,-2.9903578758239746,9.050082206726074,-0.274658203125,0.9765625,-0.091552734375
8.809999900000001,2.322375535964966,-2.980781078338623,9.026140213012695,-0.030517578125,1.1444091796875,0.335693359375
8.8299999,2.319981336593628,-2.9664158821105957,9.011775016784668,0.091552734375,1.5411376953125,0.3509521484375
8.8499999,2.31758713722229,-2.9664158821105957,9.004592895507812,0.3662109375,1.4190673828125,0.4425048828125
8.8699999,2.31758713722229,-2.9664158821105957,9.026140213012695,0.91552734375,1.220703125,0.1983642578125
8.889999900000001,2.322375535964966,-2.964021682739258,9.059659004211426,0.091552734375,1.3275146484375,-0.0457763671875
8.9099999,2.3247697353363037,-2.9664158821105957,9.102754592895508,-0.67138671875,0.9002685546875,0.4730224609375
8.9299999,2.3295583724975586,-2.96162748336792,9.136273384094238,-0.9307861328125,0.48828125,0.457763671875
8.9499999,2.3319525718688965,-2.9520506858825684,9.14345645904541,-0.6561279296875,0.0152587890625,-0.152587890625
8.969999900000001,2.3319525718688965,-2.9496564865112305,9.119514465332031,-1.3885498046875,0.457763671875,0.9002685546875
8.9899999,2.3295583724975586,-2.937685489654541,9.08838939666748,-0.274658203125,0.9613037109375,0.9918212890625
9.0099999,2.3247697353363037,-2.940079689025879,9.042900085449219,0.152587890625,0.732421875,0.91552734375
9.0299999,2.31758713722229,-2.959233283996582,9.030928611755371,-0.1678466796875,1.0528564453125,1.03759765625
9.049999900000001,2.3080103397369385,-2.9879636764526367,9.030928611755371,-0.579833984375,1.1138916015625,0.1983642578125
9.069999900000001,2.300827741622925,-3.0142998695373535,9.047688484191895,-1.1749267578125,1.2359619140625,-0.274658203125
9.0899999,2.296039342880249,-3.023876667022705,9.074024200439453,-0.640869140625,0.6256103515625,0.1220703125
9.1099999,2.293645143508911,-3.0406360626220703,9.078812599182129,-0.0457763671875,-0.030517578125,1.068115234375
9.129999900000001,2.300827741622925,-3.023876667022705,9.083600997924805,-0.2899169921875,0.54931640625,-0.8392333984375
9.149999900000001,2.3080103397369385,-2.999934673309326,9.064447402954102,-1.0223388671875,0.7476806640625,-0.823974609375
9.1699999,2.31758713722229,-2.985569477081299,9.035717010498047,-1.1138916015625,0.5035400390625,1.4801025390625
9.1899999,2.3247697353363037,-2.9496564865112305,9.004592895507812,0.3662109375,1.251220703125,-0.1373291015625
9.209999900000001,2.315192937850952,-2.9903578758239746,9.009381294250488,-0.54931640625,1.0986328125,1.0528564453125
9.229999900000001,2.3032219409942627,-3.021482467651367,9.028534889221191,-0.1678466796875,1.068115234375,-0.3662109375
9.2499999,2.296039342880249,-3.0382418632507324,9.050082206726074,0.5340576171875,0.701904296875,-1.7852783203125
9.2699999,2.298433542251587,-3.0382418632507324,9.069235801696777,0.518798828125,0.8392333984375,-0.823974609375
9.2899999,2.3032219409942627,-3.00711727142334,9.074024200439453,-0.1678466796875,0.4425048828125,0.3814697265625
9.309999900000001,2.3127987384796143,-2.978386878967285,9.066842079162598,-0.5645751953125,0.9613037109375,0.762939453125
9.3299999,2.31758713722229,-2.959233283996582,9.059659004211426,-0.4119873046875,1.46484375,-0.213623046875
9.3499999,2.3127987384796143,-2.9735984802246094,9.057265281677246,-0.06103515625,0.946044921875,0.06103515625
9.3699999,2.3127987384796143,-2.9759926795959473,9.062053680419922,-0.396728515625,0.640869140625,-0.3204345703125
9.389999900000001,2.3104045391082764,-2.9903578758239746,9.07641887664795,-0.732421875,0.7171630859375,-0.42724609375
9.4099999,2.315192937850952,-2.9879636764526367,9.078812599182129,-0.8544921875,0.6256103515625,-0.18310546875
9.4299999,2.319981336593628,-2.980781078338623,9.07641887664795,-0.4425048828125,0.579833984375,-0.1373291015625
9.4499999,2.322375535964966,-2.9759926795959473,9.064447402954102,-0.1220703125,0.7476806640625,0.5340576171875
9.469999900000001,2.322375535964966,-2.9688100814819336,9.050082206726074,-0.1983642578125,1.007080078125,0.54931640625
9.4899999,2.31758713722229,-2.9879636764526367,9.033323287963867,-0.48828125,0.6103515625,0.4119873046875
9.5099999,2.3127987384796143,-2.999934673309326,9.033323287963867,-0.396728515625,0.8392333984375,-0.518798828125
9.5299999,2.3080103397369385,-3.023876667022705,9.033323287963867,-0.0762939453125,0.2899169921875,-0.6256103515625
9.549999900000001,2.3127987384796143,-3.0142998695373535,9.047688484191895,0.1068115234375,0.5950927734375,-0.5645751953125
9.569999900000001,2.319981336593628,-2.9975404739379883,9.062053680419922,-0.18310546875,0.7171630859375,0.3509521484375
9.5899999,2.3247697353363037,-2.985569477081299,9.074024200439453,-0.42724609375,0.3814697265625,0.701904296875
9.6099999,2.3295583724975586,-2.9759926795959473,9.07641887664795,-1.0528564453125,0.7476806640625,0.030517578125
9.629999900000001,2.3247697353363037,-2.978386878967285,9.064447402954102,-1.0528564453125,0.67138671875,-0.274658203125
9.649999900000001,2.319981336593628,-2.9879636764526367,9.05247688293457,-0.2899169921875,0.91552734375,0.4425048828125
9.6699999,2.315192937850952,-2.983175277709961,9.035717010498047,0.091552734375,0.6256103515625,0.3814697265625
9.6899999,2.3127987384796143,-3.002328872680664,9.035717010498047,-0.213623046875,0.8392333984375,0.48828125
9.709999900000001,2.315192937850952,-3.004723072052002,9.038111686706543,-0.8087158203125,0.91552734375,-0.244140625
9.729999900000001,2.31758713722229,-3.0166940689086914,9.050082206726074,-0.79345703125,0.9613037109375,-0.2593994140625
9.7499999,2.322375535964966,-3.002328872680664,9.064447402954102,-0.48828125,0.9765625,-0.030517578125
9.7699999,2.3247697353363037,-2.9975404739379883,9.071630477905273,-0.6866455078125,0.2593994140625,0.5645751953125
9.7899999,2.3247697353363037,-2.999934673309326,9.059659004211426,-0.7781982421875,0.244140625,0.518798828125
9.809999900000001,2.3247697353363037,-2.999934673309326,9.035717010498047,-0.701904296875,0.8544921875,-0.6256103515625
9.8299999,2.322375535964966,-3.002328872680664,9.011775016784668,-0.0762939453125,1.6021728515625,-0.3662109375
9.8499999,2.315192937850952,-3.021482467651367,8.990227699279785,-0.091552734375,1.190185546875,0.885009765625
9.8699999,2.315192937850952,-3.0119056701660156,8.990227699279785,-0.244140625,0.9765625,-0.0152587890625
9.889999900000001,2.3104045391082764,-3.023876667022705,8.995016098022461,0.3814697265625,0.8697509765625,-0.3662109375
9.9099999,2.3056161403656006,-3.0358476638793945,9.004592895507812,0.5645751953125,1.2664794921875,0.1068115234375
9.9299999,2.3056161403656006,-3.028665065765381,9.028534889221191,0.0457763671875,1.6937255859375,-0.6866455078125
9.9499999,2.3032219409942627,-3.0119056701660156,9.10993766784668,-1.8310546875,2.62451171875,-1.0528564453125
9.969999900000001,2.2888567447662354,-2.9712042808532715,9.394847869873047,-14.4195556640625,5.9356689453125,2.8839111328125
9.9899999,2.27209734916687,-3.2297780513763428,10.290278434753418,-30.4107666015625,9.735107421875,10.8184814453125
10.0099999,2.2864625453948975,-3.6774938106536865,11.841721534729004,-22.0794677734375,-15.228271484375,-2.0751953125
10.0299999,2.3127987384796143,-4.357447147369385,13.69962215423584,-13.00048828125,-72.3876953125,-25.8941650390625
10.049999900000001,2.3582887649536133,-5.018246650695801,15.349226951599121,-19.1650390625,-110.595703125,-38.1317138671875
10.069999900000001,2.3750481605529785,-5.207388877868652,15.76821231842041,-35.491943359375,-134.368896484375,-48.8433837890625
10.0899999,2.3942017555236816,-4.642356872558594,14.338873863220215,-33.9813232421875,-146.8963623046875,-57.159423828125
10.1099999,2.4851813316345215,-3.5386300086975098,11.60708999633789,-14.6484375,-115.966796875,-43.1060791015625
10.129999900000001,2.693476915359497,-2.0470423698425293,7.496245384216309,-17.76123046875,-92.315673828125,-17.547607421875
10.149999900000001,3.0190882682800293,-0.49799394607543945,3.2632968425750732,-24.139404296875,-52.886962890625,-2.197265625
10.1699999,3.2585084438323975,0.5267243981361389,-0.6823474764823914,-18.707275390625,10.2081298828125,29.876708984375
10.1899999,3.287238836288452,1.161187767982483,-3.8570590019226074,4.21142578125,72.2198486328125,50.35400390625
10.209999900000001,2.956839084625244,0.9241618514060974,-5.319916248321533,22.6593017578125,159.3475341796875,69.9920654296875
10.229999900000001,2.425326347351074,0.035913024097681046,-4.824316501617432,13.1072998046875,210.9832763671875,80.230712890625
10.2499999,1.8315643072128296,-1.194706678390503,-2.1763293743133545,1.8463134765625,211.3494873046875,67.7642822265625
10.2699999,1.3120225667953491,-2.7437551021575928,2.4229321479797363,6.6375732421875,185.455322265625,72.296142578125
10.2899999,0.8786720037460327,-4.343081951141357,7.905653953552246,43.121337890625,134.307861328125,71.8231201171875
10.309999900000001,0.507570743560791,-5.863399982452393,13.333309173583984,64.727783203125,69.9462890625,42.724609375
10.3299999,0.1412578970193863,-7.180211067199707,17.829620361328125,36.102294921875,29.9224853515625,3.84521484375
10.3499999,-0.11971008777618408,-7.977479934692383,20.805612564086914,0.030517578125,-4.2266845703125,-16.5252685546875
10.3699999,-0.24899697303771973,-8.015787124633789,21.794418334960938,-31.0211181640625,-47.1038818359375,-28.74755859375
10.389999900000001,-0.15083470940589905,-7.412448406219482,21.38979721069336,-50.4302978515625,-73.3184814453125,-40.740966796875
10.4099999,0.08858546614646912,-6.461950302124023,19.349937438964844,-73.73046875,-111.053466796875,-48.0194091796875
10.4299999,0.47405192255973816,-5.372588634490967,16.543933868408203,-80.4901123046875,-133.6822509765625,-57.2509765625
10.4499999,0.9145850539207458,-4.311957359313965,13.208810806274414,-65.0482177734375,-136.0626220703125,-63.018798828125
10.469999900000001,1.3718775510787964,-3.2585084438323975,9.524134635925293,-40.6341552734375,-133.331298828125,-58.89892578125
10.4899999,1.9057846069335938,-2.209848165512085,6.066906929016113,-8.6669921875,-102.081298828125,-50.7659912109375
10.5099999,2.432508945465088,-1.2497732639312744,2.8155810832977295,7.75146484375,-62.1490478515625,-29.022216796875
10.5299999,2.918531894683838,-0.38546648621559143,-0.021547814831137657,5.2642822265625,-25.482177734375,-5.7525634765625
10.549999900000001,3.1914708614349365,0.2322375625371933,-2.3774423599243164,9.002685546875,37.53662109375,19.6380615234375
10.569999900000001,3.1938650608062744,0.629675030708313,-3.8498764038085938,44.37255859375,103.4698486328125,38.787841796875
10.5899999,2.911349296569824,0.31364041566848755,-3.687070608139038,69.82421875,164.1693115234375,61.5081787109375
10.6099999,2.3487119674682617,-0.2992752194404602,-1.8411411046981812,39.00146484375,160.5224609375,64.178466796875
10.629999900000001,1.6136919260025024,-1.9033904075622559,2.454056739807129,-2.0599365234375,170.1507568359375,76.0955810546875
10.649999900000001,0.8930372595787048,-4.311957359313965,8.621520042419434,12.20703125,146.30126953125,74.432373046875
10.6699999,0.2944868206977844,-6.710947513580322,15.435418128967285,39.5050048828125,46.0968017578125,6.988525390625
10.6899999,-0.10534487664699554,-9.155426979064941,21.114465713500977,24.169921875,-74.15771484375,-37.2161865234375
10.709999900000001,-0.035913024097681046,-9.495404243469238,23.664289474487305,-34.0118408203125,-129.5318603515625,-83.343505859375
10.729999900000001,0.2753331959247589,-7.714118003845215,20.240581512451172,-33.9813232421875,-131.317138671875,-68.1915283203125
10.7499999,0.7709329724311829,-5.2049946784973145,15.413870811462402,-29.60205078125,-113.800048828125,-64.2852783203125
10.7699999,1.3742717504501343,-2.9688100814819336,10.409989356994629,-34.8358154296875,-101.348876953125,-50.9796142578125
10.7899999,2.094926595687866,-1.0797849893569946,5.995080947875977,-36.56005859375,-84.075927734375,-37.750244140625
10.809999900000001,2.8658595085144043,0.15801730751991272,2.6815059185028076,-19.195556640625,-44.921875,-19.378662109375
10.8299999,3.5434184074401855,0.828393816947937,0.1412578970193863,-1.6021728515625,-14.6484375,7.38525390625
10.8499999,3.955221176147461,1.1635819673538208,-1.6496049165725708,13.7786865234375,13.73291015625,22.186279296875
10.8699999,3.9049429893493652,1.1204863786697388,-2.913743495941162,37.0635986328125,64.0411376953125,42.1905517578125
10.889999900000001,3.450044631958008,0.5722141861915588,-2.6647465229034424,49.346923828125,157.16552734375,74.3408203125
10.9099999,2.6360161304473877,-0.5602431893348694,-1.335964560508728,4.21142578125,181.6253662109375,91.1712646484375
10.9299999,1.7932571172714233,-2.0805611610412598,2.22660756111145,-29.60205078125,169.9676513671875,76.019287109375
10.9499999,1.0295066833496094,-4.431667327880859,7.220912456512451,-12.359619140625,146.270751953125,76.0650634765625
10.969999900000001,0.4692635238170624,-6.655880928039551,12.823344230651855,12.9547119140625,67.5048828125,42.8619384765625
10.9899999,0.07661445438861847,-8.65743350982666,17.9924259185791,14.6331787109375,-6.34765625,-8.5296630859375
11.0099999,-0.16759411990642548,-10.177751541137695,21.583728790283203,-26.031494140625,-56.09130859375,-31.9366455078125
11.0299999,-0.22744916379451752,-10.390835762023926,22.78322410583496,-71.7315673828125,-98.5870361328125,-65.7501220703125
11.049999900000001,-0.15562310814857483,-9.682151794433594,21.480777740478516,-77.178955078125,-127.6397705078125,-81.6650390625
11.069999900000001,0.1388636976480484,-7.95832633972168,18.29888343811035,-54.6112060546875,-135.3607177734375,-82.8094482421875
11.0899999,0.6033388376235962,-5.868188381195068,14.013262748718262,-31.6314697265625,-132.0953369140625,-75.714111328125
11.1099999,1.2425906658172607,-3.8379054069519043,9.655815124511719,-16.6015625,-124.9847412109375,-69.488525390625
11.129999900000001,2.0039467811584473,-2.1763293743133545,5.868188381195068,-3.2806396484375,-104.339599609375,-59.9212646484375
11.149999900000001,2.801215887069702,-0.912190854549408,2.631227731704712,-0.640869140625,-87.127685546875,-44.464111328125
11.1699999,3.533841609954834,0.05267243832349777,0.043095629662275314,8.2855224609375,-52.3681640625,-20.44677734375
11.1899999,3.995922565460205,0.6919242739677429,-2.190694570541382,17.364501953125,3.35693359375,11.322021484375
11.209999900000001,4.048594951629639,1.194706678390503,-4.173093795776367,37.5518798828125,60.333251953125,35.1104736328125
11.229999900000001,3.663128614425659,1.3287819623947144,-5.135562419891357,66.95556640625,149.1851806640625,62.1337890625
11.2499999,2.9520506858825684,0.9074024558067322,-4.395754337310791,62.1185302734375,212.8143310546875,92.6055908203125
11.2699999,2.030282974243164,-0.14365209639072418,-1.8363527059555054,22.186279296875,203.4912109375,103.3935546875
11.2899999,1.091755986213684,-1.8148049116134644,3.201047658920288,40.5426025390625,183.6700439453125,86.1968994140625
11.309999900000001,0.26336219906806946,-4.479551315307617,9.78989028930664,72.5555419921875,146.7132568359375,84.53369140625
11.3299999,-0.4572925269603729,-7.091625213623047,16.800113677978516,40.435791015625,64.3463134765625,37.994384765625
11.3499999,-0.9481038451194763,-9.579200744628906,22.78082847595215,8.6822509765625,-38.543701171875,-18.5394287109375
11.3699999,-1.137245774269104,-11.049241065979004,26.319459915161133,-17.1051025390625,-95.88623046875,-57.80029296875
11.389999900000001,-1.0271124839782715,-10.8720703125,26.285940170288086,-37.65869140625,-153.289794921875,-90.0115966796875
11.4099999,-0.5961562395095825,-9.385271072387695,23.240516662597656,-33.3099365234375,-171.2646484375,-90.118408203125
11.4299999,0.06464344263076782,-7.01979923248291,18.09537696838379,-29.144287109375,-169.2962646484375,-79.8492431640625
11.4499999,0.8140285611152649,-4.405331134796143,12.11705493927002,-35.46142578125,-158.7066650390625,-74.2645263671875
11.469999900000001,1.6280571222305298,-1.8770540952682495,6.22731876373291,-36.7584228515625,-132.537841796875,-68.6798095703125
11.4899999,2.4660277366638184,0.2561795711517334,1.1779472827911377,-15.655517578125,-70.6634521484375,-33.8897705078125
11.5099999,3.2106244564056396,1.9105730056762695,-2.829946517944336,-0.3509521484375,-6.988525390625,9.6282958984375
11.5299999,3.691859006881714,3.043030261993408,-5.875370979309082,7.26318359375,38.1011962890625,37.6129150390625
11.549999900000001,3.7684733867645264,3.1675288677215576,-6.907271862030029,31.2652587890625,130.3558349609375,65.36865234375
11.569999900000001,3.380612850189209,2.3319525718688965,-6.289567947387695,34.8358154296875,195.9991455078125,91.7816162109375
11.5899999,2.7102363109588623,1.0319008827209473,-3.3686418533325195,21.209716796875,202.484130859375,83.9385986328125
11.6099999,1.778891921043396,-0.9792284965515137,1.3670891523361206,13.2904052734375,182.342529296875,96.13037109375
11.629999900000001,0.7589619159698486,-3.7852327823638916,7.824251174926758,48.5992431640625,158.50830078125,109.0850830078125
11.649999900000001,-0.2082955539226532,-6.603208065032959,14.63814926147461,68.328857421875,85.8154296875,50.6439208984375
11.6699999,-1.0127472877502441,-9.50737476348877,20.599712371826172,30.57861328125,-19.561767578125,-18.3868408203125
11.6899999,-1.3982137441635132,-11.396400451660156,24.574087142944336,-11.138916015625,-73.8067626953125,-46.9970703125
11.709999900000001,-1.2952631711959839,-11.386823654174805,25.141511917114258,-41.9158935546875,-120.3155517578125,-75.37841796875
11.729999900000001,-0.828393816947937,-9.914389610290527,22.740127563476562,-38.5589599609375,-134.8419189453125,-77.392578125
11.7499999,-0.06464344263076782,-7.354987621307373,18.365921020507812,-28.62548828125,-131.744384765625,-67.718505859375
11.7699999,0.8020575642585754,-4.78122091293335,13.378799438476562,-32.928466796875,-126.6021728515625,-58.9141845703125
11.7899999,1.6065093278884888,-2.497152328491211,8.458714485168457,-49.5147705078125,-130.5999755859375,-63.5986328125
11.809999900000001,2.410961151123047,-0.5793967843055725,4.278438568115234,-32.623291015625,-99.3194580078125,-61.1572265625
11.8299999,3.0885202884674072,0.6272808313369751,1.335964560508728,8.6822509765625,-20.1873779296875,-15.594482421875
11.8499999,3.5865142345428467,1.6089035272598267,-1.1516109704971313,17.8985595703125,-10.4217529296875,11.41357421875
11.8699999,3.8570590019226074,2.013523578643799,-2.497152328491211,45.166015625,23.7579345703125,22.308349609375
11.889999900000001,3.84269380569458,1.5610195398330688,-2.5115175247192383,73.8372802734375,109.1461181640625,49.3011474609375
11.9099999,3.5673606395721436,0.5817909836769104,-1.8291701078414917,42.9229736328125,138.214111328125,66.1163330078125
11.9299999,3.1435868740081787,-0.6871358752250671,0.18914192914962769,6.4849853515625,136.627197265625,53.0242919921875
11.9499999,2.63362193107605,-2.27209734916687,3.201047658920288,1.953125,148.193359375,58.837890625
11.969999900000001,2.008735179901123,-3.6583402156829834,6.763619899749756,1.983642578125,147.3236083984375,63.5833740234375
11.9899999,1.3335703611373901,-4.9799394607543945,10.864887237548828,4.0435791015625,105.28564453125,51.57470703125
12.0099999,0.6488286852836609,-6.4380083084106445,15.361198425292969,0.2899169921875,61.0809326171875,34.423828125
12.0299999,0.0694318488240242,-7.740454196929932,19.302053451538086,-27.5115966796875,-11.5509033203125,-2.5634765625
12.049999900000001,-0.3998316824436188,-8.791508674621582,21.648372650146484,-57.9376220703125,-72.052001953125,-34.820556640625
12.069999900000001,-0.5554547905921936,-8.901641845703125,22.024261474609375,-61.70654296875,-95.550537109375,-64.971923828125
12.0899999,-0.45489832758903503,-8.38449478149414,20.113689422607422,-55.7098388671875,-103.4698486328125,-67.68798828125
12.1099999,-0.08140286058187485,-7.029376029968262,16.76420021057129,-55.0537109375,-125.9765625,-73.42529296875
12.129999900000001,0.4812345504760742,-5.135562419891357,12.196063041687012,-39.1998291015625,-142.730712890625,-80.87158203125
12.149999900000001,1.237802267074585,-3.2992098331451416,8.219294548034668,5.5389404296875,-91.4306640625,-61.8896484375
12.1699999,1.9991583824157715,-1.580173134803772,4.034229755401611,18.9056396484375,-64.0869140625,-28.7628173828125
12.1899999,2.827552318572998,-0.004788403399288654,0.6727706789970398,20.1416015625,-58.6090087890625,-24.2156982421875
12.209999900000001,3.4811692237854004,0.9481038451194763,-1.9584569931030273,31.951904296875,11.1083984375,10.498046875
12.229999900000001,3.976768970489502,1.5753847360610962,-4.496310710906982,48.5382080078125,115.2801513671875,61.09619140625
12.2499999,3.6511576175689697,1.0079588890075684,-3.6391866207122803,64.8040771484375,136.0626220703125,65.4754638671875
12.2699999,2.786850690841675,0.21547815203666687,-1.0342950820922852,63.7969970703125,165.34423828125,68.6187744140625
12.289999900000002,1.4484920501708984,-1.6663644313812256,3.514688014984131,3.72314453125,197.265625,104.522705078125
12.309999900000001,0.023942016065120697,-4.3191399574279785,10.074800491333008,-26.5960693359375,182.0068359375,98.69384765625
12.3299999,-1.1994950771331787,-7.117961883544922,17.08023452758789,2.166748046875,58.4564208984375,5.706787109375
12.3499999,-1.889025092124939,-9.931148529052734,22.749704360961914,20.5535888671875,-79.498291015625,-37.41455078125
12.3699999,-1.8579005002975464,-10.936713218688965,25.790340423583984,-7.6141357421875,-106.50634765625,-59.6771240234375
12.389999900000001,-1.5059528350830078,-10.615890502929688,24.98349380493164,-68.2830810546875,-130.5389404296875,-67.5811767578125
12.4099999,-0.8786720037460327,-8.860940933227539,21.528661727905273,-94.970703125,-147.76611328125,-76.96533203125
12.4299999,-0.15801730751991272,-6.528987884521484,16.673221588134766,-76.416015625,-139.190673828125,-82.916259765625
12.4499999,0.5578489899635315,-4.165910720825195,11.461043357849121,-45.9442138671875,-128.11279296875,-68.4356689453125
12.469999900000001,1.3192051649093628,-2.0207061767578125,6.7492547035217285,-10.3607177734375,-120.9259033203125,-63.6138916015625
12.4899999,2.0853497982025146,-0.6967126727104187,3.19865345954895,23.3917236328125,-85.1287841796875,-44.6014404296875
12.5099999,2.827552318572998,-0.023942016065120697,0.7158663272857666,18.85986328125,-48.7060546875,-25.45166015625
12.5299999,3.5434184074401855,0.14365209639072418,-0.6536170840263367,8.270263671875,-18.85986328125,-16.1590576171875
12.549999900000001,4.125209331512451,0.2849099934101105,-1.4700398445129395,-2.777099609375,14.739990234375,2.410888671875
12.569999900000001,4.431667327880859,0.5650315880775452,-2.0015525817871094,14.007568359375,54.1839599609375,40.2374267578125
12.5899999,4.323928356170654,0.6727706789970398,-2.205059766769409,47.0733642578125,112.0758056640625,78.06396484375
12.6099999,3.8355112075805664,0.5841852426528931,-1.5945383310317993,68.4356689453125,152.7862548828125,74.6002197265625
12.629999900000001,2.9233202934265137,-0.15562310814857483,0.047884032130241394,46.7376708984375,162.3992919921875,71.6400146484375
12.649999900000001,1.7812861204147339,-1.7741034030914307,3.5194764137268066,11.2457275390625,180.35888671875,92.4530029296875
12.6699999,0.6655880808830261,-4.062960147857666,8.286332130432129,9.7198486328125,156.005859375,86.8988037109375
12.6899999,-0.26815059781074524,-6.466738700866699,13.742717742919922,19.683837890625,76.7059326171875,26.7181396484375
12.709999900000001,-0.8858546018600464,-8.889671325683594,18.95728874206543,7.110595703125,6.28662109375,-6.9732666015625
12.729999900000001,-1.1061211824417114,-10.285490036010742,22.555774688720703,-25.9857177734375,-47.3175048828125,-29.84619140625
12.7499999,-1.0247182846069336,-10.438719749450684,23.714567184448242,-64.5904541015625,-94.66552734375,-59.4329833984375
12.7699999,-0.7350199222564697,-9.612719535827637,22.42169952392578,-77.3773193359375,-117.828369140625,-71.685791015625
12.789999900000002,-0.29209262132644653,-7.8745293617248535,19.13685417175293,-77.5909423828125,-126.068115234375,-78.6895751953125
12.809999900000001,0.24660277366638184,-5.9304375648498535,14.72912883758545,-69.27490234375,-124.69482421875,-73.79150390625
12.8299999,0.849941611289978,-3.9911341667175293,10.280701637268066,-52.06298828125,-108.2000732421875,-69.122314453125
12.8499999,1.5514427423477173,-2.434903144836426,6.210559368133545,-37.445068359375,-90.88134765625,-57.769775390625
12.8699999,2.389413356781006,-1.1516109704971313,2.9903578758239746,-16.8304443359375,-69.000244140625,-45.6390380859375
12.889999900000001,3.2393548488616943,-0.06464344263076782,0.3064578175544739,-1.4190673828125,-51.45263671875,-26.4892578125
12.9099999,4.046200752258301,0.8451532125473022,-1.8698714971542358,13.275146484375,-16.5863037109375,8.7432861328125
12.9299999,4.525041103363037,1.8962076902389526,-3.8355112075805664,39.6270751953125,36.07177734375,33.3099365234375
12.9499999,4.4532151222229,2.4157495498657227,-5.207388877868652,70.648193359375,98.2818603515625,67.2454833984375
12.969999900000001,3.758896589279175,2.47560453414917,-5.066130638122559,89.6148681640625,175.1556396484375,90.6982421875
12.9899999,2.451662540435791,1.4484920501708984,-3.0573954582214355,23.3612060546875,223.1597900390625,111.14501953125
13.0099999,0.7829039692878723,-0.9289502501487732,2.0685901641845703,-47.9736328125,256.6680908203125,137.6495361328125
13.0299999,-0.8188169598579407,-4.714183330535889,9.394847869873047,-12.87841796875,189.4378662109375,123.9471435546875
13.049999900000001,-2.1715409755706787,-8.7484130859375,17.12572479248047,49.4537353515625,29.8004150390625,27.6641845703125
13.069999900000001,-2.9712042808532715,-12.473791122436523,23.31952476501465,46.6156005859375,-73.944091796875,-40.771484375
13.0899999,-3.160346269607544,-14.135366439819336,26.096797943115234,-2.7923583984375,-86.639404296875,-80.56640625
13.1099999,-2.8131868839263916,-13.627796173095703,24.933216094970703,-40.679931640625,-111.7401123046875,-92.1173095703125
13.129999900000001,-1.9584569931030273,-11.216835021972656,21.128829956054688,-42.938232421875,-113.4796142578125,-85.02197265625
13.149999900000001,-0.8188169598579407,-7.850587368011475,15.928624153137207,-41.8548583984375,-114.013671875,-79.345703125
13.1699999,0.4381389021873474,-4.596867084503174,10.828974723815918,-36.285400390625,-104.9652099609375,-66.5435791015625
13.1899999,1.6663644313812256,-1.9847931861877441,6.428431510925293,-31.1279296875,-95.7489013671875,-55.633544921875
13.209999900000001,2.786850690841675,-0.2106897532939911,3.1316158771514893,-14.2822265625,-78.0792236328125,-43.8232421875
13.229999900000001,3.7181951999664307,0.9289502501487732,0.5530605912208557,1.220703125,-54.901123046875,-25.3753662109375
13.2499999,4.37420654296875,1.4532804489135742,-1.2856862545013428,11.53564453125,-16.021728515625,3.2196044921875
13.2699999,4.680664539337158,1.6855180263519287,-2.5689783096313477,30.2276611328125,34.881591796875,26.092529296875
13.289999900000002,4.563348293304443,1.5969325304031372,-3.1028854846954346,56.5032958984375,71.9146728515625,39.61181640625
13.309999900000001,4.05817174911499,1.2449848651885986,-2.5522189140319824,82.3822021484375,105.5145263671875,55.877685546875
13.3299999,3.1938650608062744,0.4908113479614258,-0.751779317855835,88.8671875,132.3394775390625,75.3021240234375
13.3499999,2.0207061767578125,-0.8906430602073669,2.6001031398773193,53.2684326171875,149.0325927734375,91.888427734375
13.3699999,0.7781155705451965,-3.181894063949585,7.501033782958984,17.0745849609375,152.77099609375,98.358154296875
13.389999900000001,-0.40701428055763245,-6.071695327758789,13.690045356750488,11.0321044921875,104.1412353515625,61.309814453125
13.4099999,-1.3503297567367554,-9.26795482635498,19.49837875366211,29.7088623046875,-10.4217529296875,2.471923828125
13.4299999,-1.778891921043396,-11.39161205291748,23.798364639282227,28.4271240234375,-99.2279052734375,-63.751220703125
13.4499999,-1.7956513166427612,-11.884817123413086,24.84223747253418,-14.5263671875,-138.214111328125,-91.2933349609375
13.469999900000001,-1.3766659498214722,-10.680533409118652,22.795194625854492,-51.177978515625,-136.71875,-74.981689453125
13.4899999,-0.6392518281936646,-8.183381080627441,18.504785537719727,-69.244384765625,-114.0594482421875,-62.07275390625
13.5099999,0.2561795711517334,-5.434837818145752,13.476961135864258,-74.798583984375,-103.6529541015625,-62.2100830078125
13.5299999,1.2617442607879639,-3.0310592651367188,8.83939266204834,-66.0858154296875,-99.365234375,-63.0340576171875
13.549999900000001,2.3080103397369385,-1.0821791887283325,5.066130638122559,-37.90283203125,-92.376708984375,-58.868408203125
13.569999900000001,3.3255462646484375,0.3711012601852417,2.2577321529388428,2.5177001953125,-75.958251953125,-39.1693115234375
13.5899999,4.197035789489746,1.314416766166687,0.11252748221158981,22.4151611328125,-49.9420166015625,-11.71875
13.6099999,4.774038314819336,1.8626888990402222,-1.6879122257232666,25.87890625,-18.8140869140625,6.011962890625
13.629999900000001,4.9583916664123535,2.10210919380188,-2.8826189041137695,33.0963134765625,40.0543212890625,22.3236083984375
13.649999900000001,4.663905143737793,2.0422539710998535,-3.555389642715454,27.801513671875,104.888916015625,57.2662353515625
13.6699999,3.9480385780334473,1.6615760326385498,-2.9951462745666504,31.31103515625,149.688720703125,84.7625732421875
13.6899999,2.9448680877685547,0.9385270476341248,-1.1899182796478271,38.3148193359375,173.4466552734375,96.4508056640625
13.709999900000001,1.7070658206939697,-0.5554547905921936,2.691082715988159,2.74658203125,207.550048828125,121.8414306640625
13.729999900000001,0.3663128614425659,-2.935291290283203,7.929595947265625,-35.0341796875,168.7469482421875,150.543212890625
13.7499999,-1.015141487121582,-6.766014099121094,14.743494033813477,17.6239013671875,93.81103515625,120.9869384765625
13.7699999,-3.023876667022705,-14.36760425567627,24.96673583984375,-16.5252685546875,-110.16845703125,-100.189208984375
13.789999900000002,-3.1531636714935303,-15.342044830322266,25.414451599121094,-75.0579833984375,-130.645751953125,-133.7432861328125
13.809999900000001,-2.612074136734009,-13.603854179382324,22.517467498779297,-75.439453125,-118.255615234375,-114.105224609375
13.8299999,-1.5394717454910278,-9.852140426635742,17.183185577392578,-62.835693359375,-106.38427734375,-86.8682861328125
13.8499999,-0.11013327538967133,-5.681440830230713,11.274295806884766,-51.81884765625,-92.9718017578125,-81.024169921875
13.8699999,1.4317326545715332,-1.9033904075622559,5.810727596282959,-43.51806640625,-76.6754150390625,-80.0323486328125
13.889999900000001,2.8874073028564453,0.9888052940368652,1.2761094570159912,-28.228759765625,-57.31201171875,-52.9327392578125
13.9099999,4.156333923339844,3.004723072052002,-1.8315643072128296,4.180908203125,-5.950927734375,-9.2926025390625
13.9299999,5.008669853210449,4.223371982574463,-3.773261785507202,30.670166015625,35.2783203125,17.059326171875
13.9499999,5.327098846435547,4.548983097076416,-4.19224739074707,55.267333984375,64.27001953125,36.19384765625
13.969999900000001,5.04218864440918,4.086902141571045,-3.337517261505127,70.9228515625,99.06005859375,66.8487548828125
13.9899999,4.206612586975098,3.0166940689086914,-1.1971008777618408,65.49072265625,135.2386474609375,93.170166015625
14.0099999,2.9233202934265137,1.1994950771331787,2.1140801906585693,30.426025390625,169.5404052734375,120.9259033203125
14.0299999,1.3742717504501343,-1.4987702369689941,6.754043102264404,1.3275146484375,164.7796630859375,138.824462890625
14.049999900000001,-0.12928688526153564,-5.171475887298584,12.358869552612305,25.08544921875,114.74609375,114.2120361328125
14.069999900000001,-1.4891934394836426,-9.057265281677246,17.68117904663086,29.3731689453125,13.1378173828125,35.5377197265625
14.0899999,-2.4013843536376953,-12.356474876403809,21.696256637573242,-0.6256103515625,-55.206298828125,-36.80419921875
14.1099999,-2.7748796939849854,-14.020444869995117,23.113622665405273,-38.2080078125,-78.2470703125,-75.01220703125
14.129999900000001,-2.5761611461639404,-13.448230743408203,21.708227157592773,-68.115234375,-103.057861328125,-95.611572265625
14.149999900000001,-1.8483237028121948,-11.195286750793457,18.3324031829834,-60.6842041015625,-99.7467041015625,-92.4224853515625
14.1699999,-0.7637503147125244,-7.9415669441223145,14.008474349975586,-48.095703125,-90.667724609375,-83.5723876953125
14.1899999,0.4572925269603729,-4.795586109161377,9.847352027893066,-37.3992919921875,-79.3914794921875,-69.2291259765625
14.209999900000001,1.6543933153152466,-2.233790159225464,6.45476770401001,-28.13720703125,-72.296142578125,-60.4248046875
14.229999900000001,2.7222073078155518,-0.49320554733276367,3.9480385780334473,-21.6522216796875,-62.6068115234375,-51.0101318359375
14.2499999,3.6296098232269287,0.6105214357376099,2.1164743900299072,-14.4195556640625,-40.7562255859375,-31.25
14.2699999,4.299986362457275,1.2880805730819702,0.6655880808830261,2.655029296875,-11.04736328125,-5.035400390625
14.289999900000002,4.680664539337158,1.6328455209732056,-0.4836287498474121,21.91162109375,22.979736328125,22.88818359375
14.309999900000001,4.711789131164551,1.8531121015548706,-1.3000515699386597,46.1883544921875,61.553955078125,40.71044921875
14.3299999,4.347870349884033,1.7741034030914307,-1.2521674633026123,66.009521484375,102.9510498046875,64.51416015625
14.3499999,3.584120035171509,1.292868971824646,-0.1604115068912506,60.5316162109375,130.6610107421875,94.757080078125
14.3699999,2.4899697303771973,0.21787235140800476,2.473210334777832,20.0042724609375,153.289794921875,116.3482666015625
14.389999900000001,1.1563993692398071,-2.0039467811584473,6.840234279632568,-8.4991455078125,149.5513916015625,130.2947998046875
14.4099999,-0.19871874153614044,-5.322310447692871,12.538434028625488,13.7939453125,93.07861328125,103.851318359375
14.4299999,-1.4939818382263184,-9.299078941345215,18.009185791015625,19.10400390625,-17.7154541015625,28.4423828125
14.4499999,-2.382230758666992,-12.789825439453125,22.16551971435547,-19.744873046875,-83.3740234375,-50.811767578125
14.469999900000001,-2.7748796939849854,-14.535198211669922,23.365015029907227,-65.7958984375,-109.6038818359375,-105.133056640625
14.4899999,-2.6024973392486572,-13.934253692626953,21.392192840576172,-72.174072265625,-133.3160400390625,-119.6136474609375
14.5099999,-1.845929503440857,-11.219228744506836,17.281347274780273,-43.182373046875,-119.4305419921875,-107.5592041015625
14.5299999,-0.7134721279144287,-7.570465564727783,12.200851440429688,-19.195556640625,-99.1973876953125,-88.409423828125
14.549999900000001,0.6105214357376099,-4.019864559173584,7.489062786102295,-16.9677734375,-80.7952880859375,-71.9451904296875
14.569999900000001,1.987187385559082,-1.2473790645599365,3.840299606323242,-19.10400390625,-64.178466796875,-60.4400634765625
14.5899999,3.2776620388031006,0.6823474764823914,1.2449848651885986,-6.34765625,-47.1343994140625,-43.212890625
14.6099999,4.364629745483398,2.008735179901123,-0.5530605912208557,10.2996826171875,-19.7906494140625,-16.6473388671875
14.629999900000001,5.020640850067139,2.738966703414917,-1.8387469053268433,17.7459716796875,23.74267578125,21.942138671875
14.649999900000001,5.16429328918457,3.0358476638793945,-2.408566951751709,35.8734130859375,73.760986328125,51.0406494140625
14.6699999,4.73573112487793,2.695871114730835,-2.075772762298584,43.1671142578125,115.631103515625,75.836181640625
14.6899999,3.8786067962646484,1.7549498081207275,-0.47644615173339844,40.252685546875,140.68603515625,96.343994140625
14.709999900000001,2.7317841053009033,0.0694318488240242,2.492363929748535,31.0821533203125,147.15576171875,112.6251220703125
14.729999900000001,1.455674648284912,-2.3582887649536133,6.5481414794921875,27.008056640625,128.8604736328125,116.02783203125
14.7499999,0.24899697303771973,-5.442020416259766,11.372458457946777,28.99169921875,89.508056640625,85.4949951171875
14.7699999,-0.8403648138046265,-8.757989883422852,16.139312744140625,16.4947509765625,34.149169921875,37.5823974609375
14.789999900000002,-1.625662922859192,-11.566388130187988,19.81441307067871,-12.9547119140625,-31.55517578125,-15.7012939453125
14.809999900000001,-2.011129379272461,-13.175292015075684,21.543025970458984,-33.6151123046875,-75.714111328125,-64.4073486328125
14.8299999,-1.9249382019042969,-12.902353286743164,20.872650146484375,-50.628662109375,-99.9603271484375,-96.1761474609375
14.8499999,-1.3838485479354858,-11.176133155822754,18.17438507080078,-52.0477294921875,-96.9390869140625,-90.1336669921875
14.8699999,-0.47884035110473633,-8.24084186553955,14.192827224731445,-44.86083984375,-96.5728759765625,-83.1756591796875
14.889999900000001,0.6344634294509888,-5.0876784324646,9.8784761428833,-31.2347412109375,-88.1195068359375,-69.6563720703125
14.9099999,1.7741034030914307,-2.4444799423217773,6.016628742218018,-15.0909423828125,-61.0504150390625,-43.914794921875
14.9299999,2.8131868839263916,-0.3256114423274994,2.7533318996429443,-15.1214599609375,-41.351318359375,-32.1502685546875
14.9499999,3.620033025741577,0.9864110946655273,0.42616790533065796,-9.7808837890625,-11.5509033203125,-11.566162109375
14.969999900000001,4.079719543457031,1.5705963373184204,-0.8690952062606812,11.4288330078125,30.9600830078125,22.308349609375
14.9899999,4.168305397033691,1.5418659448623657,-1.1468225717544556,27.6947021484375,66.009521484375,39.306640625
15.0099999,3.9624037742614746,0.8906430602073669,0.0933738648891449,35.46142578125,96.099853515625,47.210693359375
15.0299999,3.5027170181274414,-0.26336219906806946,2.499546527862549,19.805908203125,96.7864990234375,61.981201171875
15.049999900000001,2.918531894683838,-2.0590133666992188,5.880159378051758,5.2337646484375,79.925537109375,80.6121826171875
15.069999900000001,2.2625205516815186,-4.137180328369141,9.603142738342285,7.9498291015625,54.5501708984375,63.1561279296875
15.0899999,1.5634137392044067,-6.430825710296631,12.60307788848877,6.072998046875,16.66259765625,29.4189453125
15.1099999,0.9816226959228516,-8.185775756835938,14.494497299194336,9.2620849609375,-10.7269287109375,-1.556396484375
15.129999900000001,0.5937620401382446,-9.117119789123535,14.81771469116211,9.8876953125,-20.8282470703125,-13.916015625
15.149999900000001,0.48602294921875,-8.87291145324707,13.742717742919922,2.3040771484375,-25.115966796875,-20.0347900390625
15.1699999,0.6751648783683777,-7.793126583099365,11.87763500213623,0.18310546875,-17.913818359375,-22.1405029296875
15.1899999,1.070208191871643,-6.27280855178833,9.75397777557373,-1.6326904296875,-8.36181640625,-15.8538818359375
15.209999900000001,1.5825673341751099,-4.72376012802124,7.979874134063721,-5.157470703125,-1.03759765625,-7.7056884765625
15.229999900000001,2.0685901641845703,-3.4572272300720215,6.900089263916016,-4.241943359375,6.195068359375,-1.1444091796875
15.2499999,2.3702597618103027,-2.7988216876983643,6.461950302124023,-4.5166015625,5.4473876953125,8.941650390625
15.2699999,2.473210334777832,-2.698265314102173,6.629544734954834,-4.21142578125,8.392333984375,12.87841796875
15.289999900000002,2.121262788772583,-3.9240965843200684,7.7883381843566895,0.457763671875,6.9122314453125,3.4637451171875
15.309999900000001,1.8770540952682495,-4.6734819412231445,8.374917984008789,1.28173828125,2.86865234375,-2.2735595703125
15.3299999,1.6950948238372803,-5.173870086669922,8.662221908569336,0.6561279296875,0.244140625,-4.1046142578125
15.3499999,1.6160861253738403,-5.295974254608154,8.65982723236084,-2.7313232421875,6.011962890625,-2.410888671875
15.3699999,1.6519991159439087,-5.035006046295166,8.324639320373535,-2.38037109375,10.7879638671875,1.0528564453125
15.389999900000001,1.7764976024627686,-4.448426723480225,7.850587368011475,6.561279296875,12.7410888671875,4.7149658203125
15.4099999,1.9560627937316895,-3.7038300037384033,7.371747016906738,5.4779052734375,19.378662109375,18.1427001953125
15.4299999,2.1499931812286377,-2.9927520751953125,7.240066051483154,-4.241943359375,34.820556640625,33.50830078125
15.4499999,2.3295583724975586,-2.298433542251587,7.513004779815674,-13.6871337890625,36.2701416015625,44.1131591796875
15.469999900000001,2.454056739807129,-1.944091796875,8.4108304977417,-21.636962890625,28.6865234375,61.767578125
15.4899999,2.497152328491211,-1.9536685943603516,9.655815124511719,-26.702880859375,12.0086669921875,78.43017578125
15.5099999,2.456450939178467,-2.161964178085327,11.111490249633789,-27.1759033203125,-7.049560546875,75.13427734375
15.5299999,2.2864625453948975,-2.6862943172454834,12.411541938781738,-31.3568115234375,-26.7486572265625,77.3773193359375
15.549999900000001,2.011129379272461,-3.3949780464172363,13.419500350952148,-30.9295654296875,-53.1005859375,86.4105224609375
15.569999900000001,1.5945383310317993,-4.264073371887207,13.802573204040527,-28.9764404296875,-83.770751953125,78.8116455078125
15.5899999,1.0654197931289673,-5.20978307723999,13.52005672454834,-32.8521728515625,-103.8055419921875,61.767578125
15.6099999,0.3998316824436188,-6.40927791595459,12.60307788848877,-27.5421142578125,-108.6578369140625,49.591064453125
15.629999900000001,-0.28730419278144836,-7.785943984985352,11.224017143249512,-12.87841796875,-110.7635498046875,33.0352783203125
15.649999900000001,-0.8858546018600464,-9.071630477905273,9.667786598205566,-3.0364990234375,-113.1591796875,-10.7269287109375
15.6699999,-1.3024457693099976,-10.326191902160645,8.015787124633789,-5.31005859375,-109.527587890625,-42.7398681640625
15.6899999,-1.45806884765625,-11.042057991027832,6.356605529785156,-17.0440673828125,-87.95166015625,-64.3463134765625
15.709999900000001,-1.3623007535934448,-11.070788383483887,4.55616569519043,-26.2298583984375,-60.8367919921875,-84.8236083984375
15.729999900000001,-1.015141487121582,-10.412383079528809,3.050212860107422,-10.7269287109375,-22.6898193359375,-99.8687744140625
15.7499999,-0.4644751250743866,-9.133879661560059,1.9153614044189453,-0.885009765625,10.406494140625,-101.62353515625
15.7699999,0.18914192914962769,-7.738059997558594,1.3718775510787964,-2.960205078125,29.7088623046875,-91.522216796875
15.789999900000002,0.8475474119186401,-6.301538944244385,1.3192051649093628,0.30517578125,50.445556640625,-94.4671630859375
15.809999900000001,1.4197616577148438,-5.080495834350586,1.659181833267212,9.552001953125,81.6192626953125,-105.3466796875
15.8299999,1.9512743949890137,-3.773261785507202,2.4827871322631836,16.4947509765625,112.457275390625,-103.8055419921875
15.8499999,2.3295583724975586,-2.7269957065582275,3.3231520652770996,17.8680419921875,109.68017578125,-71.7620849609375
15.869999900000002,2.561795711517334,-1.6879122257232666,4.240131378173828,30.364990234375,113.2659912109375,-55.2215576171875
15.889999900000001,2.655169725418091,-1.0199298858642578,5.2480902671813965,45.074462890625,148.49853515625,-56.7779541015625
15.9099999,2.7533318996429443,-0.24660277366638184,6.605602264404297,37.567138671875,166.748046875,-45.34912109375
15.9299999,2.7988216876983643,0.3208230137825012,7.726089000701904,12.7716064453125,119.7967529296875,3.875732421875
15.9499999,3.0119056701660156,0.8738836050033569,9.634267807006836,26.8707275390625,104.278564453125,42.9840087890625
15.969999900000001,3.177105665206909,1.1899182796478271,11.252747535705566,42.54150390625,86.822509765625,51.910400390625
15.9899999,3.2369606494903564,1.2713210582733154,12.96460247039795,22.491455078125,52.7496337890625,62.408447265625
16.0099999,3.066972494125366,0.8236053586006165,14.652514457702637,-18.341064453125,32.2113037109375,104.5684814453125
16.0299999,2.6862943172454834,0.1388636976480484,15.818490982055664,-29.1290283203125,-1.4801025390625,115.0970458984375
16.0499999,2.1140801906585693,-0.7469909191131592,16.297330856323242,-1.9683837890625,-38.665771484375,87.6922607421875
16.0699999,1.455674648284912,-1.9560627937316895,15.816096305847168,7.8887939453125,-67.3370361328125,94.482421875
16.089999900000002,0.8930372595787048,-2.8419175148010254,14.633360862731934,-9.765625,-81.35986328125,104.339599609375
16.109999900000002,0.42377370595932007,-3.667917013168335,13.06515884399414,-43.7774658203125,-81.5887451171875,110.7940673828125
16.1299999,0.019153613597154617,-4.367023944854736,11.281478881835938,-56.5032958984375,-88.2720947265625,106.8572998046875
16.1499999,-0.31603461503982544,-5.070919036865234,9.821015357971191,-33.6456298828125,-85.9375,91.2322998046875
16.1699999,-0.6727706789970398,-5.940014362335205,8.643068313598633,-17.76123046875,-83.251953125,81.573486328125
16.1899999,-1.0319008827209473,-7.060500621795654,8.085219383239746,-25.3448486328125,-87.127685546875,66.7724609375
16.2099999,-1.3742717504501343,-8.47547435760498,7.936778545379639,-27.5726318359375,-95.611572265625,31.2042236328125
16.2299999,-1.6711528301239014,-9.921571731567383,8.015787124633789,-12.420654296875,-99.8382568359375,-16.693115234375
16.249999900000002,-1.8531121015548706,-11.135432243347168,7.927201747894287,-8.026123046875,-90.2099609375,-48.9349365234375
16.269999900000002,-1.8555063009262085,-11.954249382019043,7.682993412017822,-18.035888671875,-64.8345947265625,-69.6258544921875
16.2899999,-1.6639702320098877,-12.169727325439453,7.15387487411499,-26.214599609375,-49.591064453125,-104.2022705078125
16.3099999,-1.335964560508728,-11.798625946044922,6.507440090179443,-20.99609375,-43.7164306640625,-145.0347900390625
16.3299999,-0.9265560507774353,-10.781089782714844,5.504269599914551,-18.7225341796875,-33.9508056640625,-166.07666015625
16.3499999,-0.42377370595932007,-9.090784072875977,4.446032524108887,-15.0909423828125,5.828857421875,-171.539306640625
16.3699999,0.10773907601833344,-7.204153060913086,3.423708438873291,-24.017333984375,54.8553466796875,-166.44287109375
16.3899999,0.8643068075180054,-4.742913722991943,3.0813376903533936,-37.628173828125,84.991455078125,-177.642822265625
16.4099999,1.6974890232086182,-2.3127987384796143,3.2417490482330322,-39.093017578125,89.7369384765625,-155.0445556640625
16.429999900000002,2.4468741416931152,-0.1604115068912506,3.5266590118408203,-19.378662109375,84.1827392578125,-93.20068359375
16.4499999,2.9712042808532715,1.5490485429763794,3.864241600036621,12.0391845703125,128.8604736328125,-73.8525390625
16.4699999,3.287238836288452,2.7557260990142822,4.474762916564941,21.087646484375,185.24169921875,-69.000244140625
16.4899999,3.466804027557373,3.507505416870117,5.588066577911377,-6.2103271484375,178.40576171875,-20.3857421875
16.5099999,3.4404678344726562,3.8738183975219727,6.904877662658691,-23.9105224609375,133.3770751953125,56.2591552734375
16.5299999,3.3638534545898438,3.3949780464172363,9.08838939666748,10.0555419921875,136.29150390625,99.2889404296875
16.5499999,3.181894063949585,2.497152328491211,11.073183059692383,33.233642578125,120.8648681640625,75.68359375
16.5699999,2.8586769104003906,1.280897855758667,13.206416130065918,-10.55908203125,49.8199462890625,75.9124755859375
16.589999900000002,2.5115175247192383,-0.2992752194404602,15.320496559143066,-22.64404296875,13.24462890625,139.007568359375
16.609999900000002,2.1164743900299072,-1.2737152576446533,16.668432235717773,2.9296875,-32.4859619140625,127.6397705078125
16.6299999,1.5634137392044067,-2.382230758666992,16.974889755249023,18.2037353515625,-71.4111328125,96.3592529296875
16.6499999,1.0127472877502441,-3.2561142444610596,16.33563804626465,11.2457275390625,-90.8660888671875,101.98974609375
16.6699999,0.5219359993934631,-3.6966474056243896,14.784195899963379,-15.625,-112.9302978515625,115.17333984375
16.6899999,0.0694318488240242,-4.235342979431152,12.593501091003418,-36.6973876953125,-115.966796875,128.204345703125
16.7099999,-0.23942017555236816,-4.666299343109131,10.462661743164062,-26.3214111328125,-80.078125,105.6060791015625
16.7299999,-0.5003881454467773,-5.336675643920898,8.525752067565918,-26.0162353515625,-61.5234375,81.573486328125
16.749999900000002,-0.6607996821403503,-6.1530985832214355,7.371747016906738,-32.1197509765625,-68.05419921875,86.5478515625
16.769999900000002,-0.7541735172271729,-7.156269073486328,7.022193431854248,-19.989013671875,-72.93701171875,73.6083984375
16.7899999,-0.8523358106613159,-8.365341186523438,7.371747016906738,-19.5770263671875,-73.5321044921875,34.9273681640625
16.8099999,-1.0678139925003052,-11.08754825592041,8.597578048706055,-38.1622314453125,-81.4361572265625,-38.5589599609375
16.8299999,-1.0797849893569946,-11.93748950958252,8.925583839416504,-11.9476318359375,-86.181640625,-82.2906494140625
16.8499999,-0.9983820915222168,-12.205639839172363,8.698134422302246,-3.0364990234375,-86.151123046875,-122.1771240234375
16.8699999,-0.768538773059845,-11.801020622253418,8.054094314575195,-21.17919921875,-69.2291259765625,-149.7802734375
16.8899999,-0.45250412821769714,-10.630255699157715,6.892906665802002,-54.3365478515625,-43.27392578125,-163.9404296875
16.9099999,0.05027823522686958,-8.556877136230469,5.43723201751709,-59.3719482421875,-17.303466796875,-171.0052490234375
16.929999900000002,0.7158663272857666,-6.076483726501465,4.261679172515869,-27.40478515625,24.078369140625,-151.611328125
16.9499999,1.4508862495422363,-3.550601005554199,3.1483752727508545,-10.345458984375,36.4227294921875,-122.00927734375
16.9699999,2.1595699787139893,-1.45806884765625,2.4612393379211426,-0.2899169921875,47.5311279296875,-110.0006103515625
16.9899999,2.6886885166168213,-0.22266076505184174,2.011129379272461,8.209228515625,84.197998046875,-99.7772216796875
17.0099999,3.0166940689086914,0.4357447028160095,1.8507179021835327,1.1138916015625,131.8359375,-83.587646484375
17.0299999,3.2585084438323975,0.9983820915222168,2.473210334777832,-11.688232421875,169.677734375,-60.0738525390625
17.0499999,3.3255462646484375,1.1803414821624756,3.359065055847168,-27.5726318359375,168.2281494140625,-9.9945068359375
17.0699999,3.3686418533325195,1.170764684677124,5.276820659637451,-5.5694580078125,182.6934814453125,11.5203857421875
17.089999900000002,3.31118106842041,0.8690952062606812,7.237671852111816,19.4854736328125,166.046142578125,0.5950927734375
17.109999900000002,3.268085241317749,0.8236053586006165,9.224859237670898,14.434814453125,124.6185302734375,1.800537109375
17.1299999,3.2393548488616943,0.8212111592292786,11.382035255432129,1.5716552734375,105.499267578125,63.812255859375
17.1499999,3.1890766620635986,0.9768342971801758,13.022063255310059,-2.3651123046875,66.8792724609375,111.8011474609375
17.1699999,3.090914487838745,1.2282254695892334,14.719552040100098,28.5186767578125,35.1715087890625,96.405029296875
17.1899999,2.7509377002716064,0.7852981686592102,15.98129653930664,29.60205078125,-0.518798828125,107.696533203125
17.2099999,2.248155355453491,0.2346317619085312,16.871938705444336,0.4119873046875,-34.2254638671875,134.3231201171875
17.2299999,1.5203180313110352,-0.6631938815116882,16.915035247802734,-24.2919921875,-66.3604736328125,148.37646484375
17.249999900000002,0.7086837291717529,-1.6400281190872192,16.09861183166504,-23.712158203125,-84.1827392578125,141.7388916015625
17.269999900000002,0.002394201699644327,-2.4588451385498047,14.731523513793945,-17.303466796875,-84.7930908203125,134.735107421875
17.2899999,-0.6488286852836609,-3.3734302520751953,12.825738906860352,-16.8609619140625,-103.6376953125,149.6734619140625
17.3099999,-1.0797849893569946,-4.46518611907959,11.382035255432129,-17.9595947265625,-110.2294921875,152.557373046875
17.3299999,-1.4293384552001953,-5.92325496673584,10.213664054870605,-38.1011962890625,-110.595703125,115.447998046875
17.3499999,-1.7094600200653076,-7.577648162841797,9.3828763961792,-61.46240234375,-126.8463134765625,74.493408203125
17.3699999,-1.9081788063049316,-9.129091262817383,8.741230010986328,-56.1676025390625,-127.288818359375,53.558349609375
17.3899999,-2.0398597717285156,-10.558429718017578,8.212111473083496,-30.2734375,-114.471435546875,31.4788818359375
17.409999900000003,-2.0470423698425293,-11.523292541503906,7.68538761138916,-6.2713623046875,-108.70361328125,-27.2674560546875
17.429999900000002,-1.9177556037902832,-12.251130104064941,7.275979042053223,-22.03369140625,-107.8033447265625,-76.6143798828125
17.4499999,-1.678335428237915,-12.789825439453125,6.703764915466309,-63.568115234375,-93.8262939453125,-94.17724609375
17.4699999,-1.3694833517074585,-12.787431716918945,6.042964935302734,-51.300048828125,-72.7081298828125,-141.2811279296875
17.4899999,-0.9289502501487732,-11.803414344787598,5.039794445037842,22.5677490234375,-63.5833740234375,-212.3565673828125
17.5099999,-0.38307225704193115,-10.014945983886719,3.869029998779297,36.9873046875,-46.0205078125,-208.0230712890625
17.5299999,0.26815059781074524,-7.647080421447754,2.5929205417633057,-8.30078125,-4.974365234375,-144.989013671875
17.5499999,0.9768342971801758,-5.035006046295166,1.4891934394836426,-37.872314453125,48.675537109375,-128.0670166015625
17.5699999,1.4700398445129395,-3.1866824626922607,0.4596867263317108,-27.1759033203125,79.833984375,-137.4969482421875
17.589999900000002,1.9273324012756348,-1.3431471586227417,0.181959331035614,-4.45556640625,119.842529296875,-147.2930908203125
17.609999900000002,2.1499931812286377,-0.15562310814857483,0.3687070608139038,2.960205078125,153.289794921875,-104.1412353515625
17.6299999,2.1308395862579346,1.0797849893569946,0.6871358752250671,9.9945068359375,166.4581298828125,-56.5338134765625
17.6499999,1.9512743949890137,2.0207061767578125,1.7597382068634033,27.099609375,240.8447265625,-56.4727783203125
17.6699999,1.7334020137786865,2.6360161304473877,3.667917013168335,-3.143310546875,296.2188720703125,-30.7769775390625
17.6899999,1.6974890232086182,3.2130186557769775,6.835445880889893,-33.8287353515625,266.0064697265625,8.85009765625
17.7099999,1.9081788063049316,3.2992098331451416,10.656591415405273,-0.9613037109375,157.7606201171875,53.8330078125
17.7299999,2.432508945465088,3.5170822143554688,14.963760375976562,53.64990234375,99.761962890625,49.9725341796875
17.749999900000002,2.832340717315674,3.3207578659057617,18.365921020507812,31.585693359375,66.58935546875,68.90869140625
17.769999900000002,2.978386878967285,2.985569477081299,20.556615829467773,-24.5513916015625,7.3699951171875,114.80712890625
17.7899999,2.80361008644104,2.6384103298187256,21.543025970458984,-33.416748046875,-34.9273681640625,130.92041015625
17.8099999,2.2816741466522217,2.1523873805999756,20.97081184387207,-21.1334228515625,-76.568603515625,128.35693359375
17.8299999,1.50355863571167,1.5131354331970215,19.127277374267578,-14.2974853515625,-105.621337890625,142.1966552734375
17.8499999,0.6320692300796509,0.7350199222564697,16.35479164123535,-20.843505859375,-122.4517822265625,163.02490234375
17.8699999,-0.2082955539226532,-0.3519476354122162,13.39316463470459,-32.40966796875,-114.2730712890625,167.7093505859375
17.8899999,-0.9792284965515137,-1.6974890232086182,10.843339920043945,-50.8575439453125,-105.926513671875,156.6162109375
17.909999900000003,-1.699883222579956,-3.751713991165161,9.0859956741333,-59.0667724609375,-117.67578125,150.4058837890625
17.929999900000002,-2.2864625453948975,-5.781997203826904,8.157045364379883,-43.5028076171875,-134.21630859375,119.0032958984375
17.9499999,-2.7748796939849854,-8.121131896972656,7.800309181213379,-29.9530029296875,-132.9345703125,85.205078125
17.9699999,-3.1268274784088135,-10.409989356994629,7.649474620819092,-34.8968505859375,-115.05126953125,51.1627197265625
17.9899999,-3.251325845718384,-12.318167686462402,7.393294811248779,-51.9866943359375,-102.5543212890625,-2.5177001953125
18.0099999,-3.1244332790374756,-13.7666597366333,7.060500621795654,-49.896240234375,-88.2720947265625,-50.4302978515625
18.0299999,-2.736572504043579,-14.437036514282227,6.660669326782227,-37.17041015625,-75.86669921875,-92.041015625
18.0499999,-2.2194249629974365,-14.326903343200684,6.01423454284668,-44.036865234375,-71.7315673828125,-130.767822265625
18.0699999,-1.6328455209732056,-13.536816596984863,5.185841083526611,-56.82373046875,-52.8411865234375,-163.9556884765625
18.089999900000002,-1.0558429956436157,-12.00452709197998,4.335899353027344,-62.744140625,-8.5601806640625,-194.51904296875
18.109999900000002,-0.4644751250743866,-9.86889934539795,3.4548330307006836,-55.4656982421875,21.026611328125,-204.4830322265625
18.1299999,0.24420857429504395,-7.1251444816589355,3.00711727142334,-31.1126708984375,42.1295166015625,-196.1517333984375
18.1499999,0.9481038451194763,-4.414907932281494,2.6815059185028076,-12.603759765625,48.248291015625,-166.107177734375
18.1699999,1.5825673341751099,-1.9129672050476074,2.4205379486083984,1.556396484375,69.3511962890625,-147.125244140625
18.1899999,2.0805611610412598,0.2082955539226532,2.1475989818573,4.913330078125,115.8447265625,-134.8876953125
18.2099999,2.3726539611816406,1.7310078144073486,2.032677173614502,-0.946044921875,169.525146484375,-91.1865234375
18.2299999,2.5306711196899414,2.9257144927978516,2.2864625453948975,0.7781982421875,189.0716552734375,-46.5545654296875
18.249999900000002,2.5713725090026855,3.5218706130981445,3.1316158771514893,22.27783203125,202.4383544921875,-20.172119140625
18.269999900000002,2.6599581241607666,3.689464807510376,4.963180065155029,38.1011962890625,208.831787109375,-8.48388671875
18.2899999,2.9257144927978516,3.8498764038085938,7.781155586242676,34.149169921875,194.27490234375,5.950927734375
18.3099999,3.2824504375457764,3.7684733867645264,11.02051067352295,2.25830078125,126.0986328125,51.1016845703125
18.3299999,4.067748546600342,4.010287761688232,18.27733612060547,29.2510986328125,20.355224609375,89.53857421875
18.3499999,3.955221176147461,3.6343982219696045,20.55182647705078,32.470703125,-38.5894775390625,115.8905029296875
18.3699999,3.3446998596191406,2.9233202934265137,20.918140411376953,20.9197998046875,-73.0438232421875,133.5601806640625
18.3899999,2.3774423599243164,1.8938134908676147,19.481618881225586,-4.21142578125,-92.5140380859375,140.1824951171875
18.409999900000003,1.2952631711959839,0.7445967197418213,16.912641525268555,-8.9569091796875,-82.305908203125,144.683837890625
18.429999900000002,0.31364041566848755,-0.3495534360408783,13.663708686828613,-5.3863525390625,-88.592529296875,154.9072265625
18.4499999,-0.363918662071228,-1.2210428714752197,10.788272857666016,12.420654296875,-93.536376953125,158.87451171875
18.4699999,-0.8619126081466675,-2.3942017555236816,8.38688850402832,12.7716064453125,-86.639404296875,166.07666015625
18.4899999,-1.139639973640442,-3.6176388263702393,6.931213855743408,-5.7220458984375,-67.0928955078125,153.5491943359375
18.5099999,-1.3096283674240112,-5.34625244140625,6.36378812789917,-16.9830322265625,-52.9327392578125,132.4920654296875
18.5299999,-1.357512354850769,-7.103596210479736,6.7492547035217285,-20.7061767578125,-61.5997314453125,104.400634765625
18.5499999,-1.3551181554794312,-8.892065048217773,7.5848307609558105,-20.32470703125,-81.0394287109375,71.0601806640625
18.5699999,-1.216254472732544,-10.182539939880371,8.671798706054688,-2.7008056640625,-81.939697265625,27.1148681640625
18.589999900000002,-1.0031704902648926,-11.077971458435059,9.586383819580078,5.67626953125,-73.455810546875,-6.805419921875
18.609999900000002,-0.6105214357376099,-11.154585838317871,10.266336441040039,14.1448974609375,-90.6219482421875,-39.947509765625
18.6299999,-0.10773907601833344,-10.848128318786621,10.599130630493164,30.9295654296875,-121.6278076171875,-64.0869140625
18.6499999,0.40222588181495667,-10.108319282531738,10.51054573059082,34.515380859375,-135.986328125,-92.010498046875
18.6699999,0.9002198576927185,-8.966285705566406,9.744400978088379,39.48974609375,-135.894775390625,-126.2969970703125
18.6899999,1.3862427473068237,-7.826645374298096,8.9064302444458,49.7894287109375,-113.861083984375,-135.0250244140625
18.7099999,1.7932571172714233,-6.789956092834473,7.759607791900635,14.373779296875,-109.161376953125,-132.080078125
18.7299999,2.161964178085327,-5.87776517868042,6.8043212890625,-27.587890625,-101.898193359375,-156.5399169921875
18.749999900000002,2.382230758666992,-4.982333660125732,5.51624059677124,-45.10498046875,-75.2105712890625,-177.91748046875
18.769999900000002,2.5091233253479004,-3.8762125968933105,4.127603530883789,-49.5452880859375,-21.3470458984375,-161.651611328125
18.7899999,2.5115175247192383,-3.141192674636841,2.8443117141723633,-54.901123046875,41.534423828125,-114.68505859375
18.8099999,2.4588451385498047,-2.513911724090576,1.9369091987609863,-77.6214599609375,72.0062255859375,-129.3792724609375
18.8299999,2.3989901542663574,-2.1978771686553955,1.8124107122421265,-89.7369384765625,106.14013671875,-167.3431396484375
18.8499999,2.451662540435791,-1.3718775510787964,2.3511061668395996,-84.014892578125,139.6942138671875,-157.3028564453125
18.8699999,2.5306711196899414,-0.20350714027881622,3.0885202884674072,-65.399169921875,156.829833984375,-90.240478515625
18.8899999,2.669534921646118,1.5203180313110352,4.000710964202881,-45.196533203125,178.2073974609375,-46.7681884765625
18.909999900000003,2.6623523235321045,2.7748796939849854,4.924872875213623,-34.7900390625,213.9434814453125,-32.1197509765625
18.929999900000002,2.674323320388794,4.010287761688232,6.18182897567749,-41.8701171875,238.8458251953125,-15.8538818359375
18.9499999,2.8850131034851074,4.747702121734619,8.913613319396973,-38.2843017578125,248.8861083984375,36.4227294921875
18.9699999,3.2632968425750732,5.48272180557251,11.796232223510742,-36.2396240234375,129.730224609375,74.188232421875
18.9899999,3.864241600036621,6.133944988250732,15.346833229064941,4.21142578125,54.6722412109375,71.0296630859375
19.0099999,4.240131378173828,6.387730121612549,17.827226638793945,23.8494873046875,26.9927978515625,95.0164794921875
19.0299999,4.156333923339844,6.265625953674316,18.725051879882812,21.30126953125,-15.533447265625,140.7470703125
19.0499999,3.5649664402008057,5.585672378540039,18.04988670349121,28.1829833984375,-46.44775390625,160.2630615234375
19.0699999,2.5450363159179688,4.144362926483154,16.237476348876953,37.8875732421875,-47.6531982421875,160.33935546875
19.089999900000002,1.3479355573654175,2.0614075660705566,13.687650680541992,29.1900634765625,-43.8079833984375,158.7982177734375
19.109999900000002,0.28969839215278625,-0.22744916379451752,11.408370971679688,4.1046142578125,-29.876708984375,154.083251953125
19.1299999,-0.4405331015586853,-2.4420857429504395,9.761159896850586,-10.986328125,-29.296875,146.148681640625
19.1499999,-0.8164227604866028,-4.220977783203125,9.117119789123535,-5.4168701171875,-38.1622314453125,128.9520263671875
19.1699999,-0.9720458984375,-5.944802761077881,9.284713745117188,0.457763671875,-54.50439453125,120.7427978515625
19.1899999,-0.933738648891449,-7.273584842681885,10.06043529510498,0.3662109375,-66.40625,88.0126953125
19.2099999,-0.8619126081466675,-8.42040729522705,10.769119262695312,-30.21240234375,-80.6121826171875,54.473876953125
19.2299999,-0.5171475410461426,-8.681375503540039,11.63342571258545,-50.567626953125,-79.254150390625,30.7769775390625
19.249999900000002,-0.07900865375995636,-8.674192428588867,12.042834281921387,-43.7469482421875,-95.1995849609375,33.7371826171875
19.269999900000002,0.4644751250743866,-8.355764389038086,12.229581832885742,-12.7105712890625,-130.9967041015625,9.735107421875
19.2899999,0.8762778043746948,-8.195352554321289,11.87763500213623,6.9732666015625,-148.4832763671875,-45.1202392578125
19.3099999,1.0127472877502441,-8.468291282653809,10.78587818145752,-38.726806640625,-141.9525146484375,-75.3326416015625
19.3299999,0.9265560507774353,-8.820239067077637,9.097966194152832,-79.833984375,-108.6578369140625,-94.268798828125
19.3499999,0.6799532771110535,-8.944737434387207,6.988674640655518,-71.5179443359375,-79.010009765625,-130.3253173828125
19.3699999,0.45250412821769714,-8.702922821044922,4.697423934936523,-46.8292236328125,-57.952880859375,-165.95458984375
19.3899999,0.42856210470199585,-7.85537576675415,2.9927520751953125,-37.017822265625,-8.1939697265625,-177.703857421875
19.409999900000003,0.6392518281936646,-6.610390663146973,1.9129672050476074,-69.64111328125,40.008544921875,-163.14697265625
19.429999900000002,1.0606313943862915,-5.169081687927246,1.6376339197158813,-104.3853759765625,69.366455078125,-147.705078125
19.4499999,1.5969325304031372,-3.754108190536499,2.188300371170044,-90.8203125,89.9658203125,-154.510498046875
19.4699999,2.054224967956543,-2.3511061668395996,2.765302896499634,-46.051025390625,95.6573486328125,-159.0728759765625
19.4899999,2.406172752380371,-1.0055646896362305,3.550601005554199,1.5411376953125,119.2474365234375,-140.869140625
19.5099999,2.5474305152893066,0.2944868206977844,4.01268196105957,20.263671875,145.660400390625,-113.58642578125
19.5299999,2.5258827209472656,1.5155296325683594,4.5825018882751465,15.6097412109375,170.806884765625,-95.367431640625
19.5499999,2.3750481605529785,2.760514497756958,5.351040840148926,12.7105712890625,197.1435546875,-81.48193359375
19.5699999,2.3080103397369385,4.046200752258301,6.840234279632568,15.3961181640625,207.855224609375,-47.2869873046875
19.589999900000002,2.516305923461914,5.4659624099731445,9.50737476348877,45.257568359375,192.4591064453125,-8.7432861328125
19.609999900000002,2.8850131034851074,7.194576263427734,12.11705493927002,55.4046630859375,95.4437255859375,9.6282958984375
19.6299999,3.359065055847168,8.652645111083984,14.994885444641113,68.695068359375,55.511474609375,53.375244140625
19.6499999,3.5697548389434814,9.792284965515137,16.847997665405273,100.76904296875,38.8336181640625,106.5826416015625
19.6699999,3.3231520652770996,10.26394271850586,17.30289649963379,88.9892578125,-7.965087890625,145.904541015625
19.6899999,2.6408045291900635,9.421183586120605,16.979679107666016,53.5888671875,-17.8985595703125,183.7005615234375
19.7099999,1.625662922859192,7.603984832763672,15.593435287475586,29.60205078125,-26.6876220703125,196.807861328125
19.7299999,0.545877993106842,5.056553840637207,13.862427711486816,12.054443359375,-25.177001953125,189.117431640625
19.749999900000002,-0.42377370595932007,2.205059766769409,12.198457717895508,34.48486328125,-23.1475830078125,183.9599609375
19.769999900000002,-1.139639973640442,-0.6703764796257019,10.910377502441406,47.42431640625,-28.25927734375,176.3916015625
19.7899999,-1.5610195398330688,-3.35667085647583,10.017339706420898,7.9193115234375,-29.1290283203125,153.472900390625
19.8099999,-1.7094600200653076,-5.722142219543457,9.418789863586426,-22.9034423828125,-19.317626953125,119.293212890625
19.8299999,-1.558625340461731,-7.407660007476807,8.834604263305664,-21.9268798828125,-12.054443359375,88.7298583984375
19.8499999,-1.194706678390503,-8.322244644165039,8.38688850402832,9.1552734375,-7.537841796875,65.032958984375
19.8699999,-0.31364041566848755,-8.769960403442383,7.872135162353516,11.2152099609375,7.080078125,10.1165771484375
19.8899999,-0.035913024097681046,-8.846575736999512,7.807491779327393,-12.5885009765625,18.646240234375,-22.8729248046875
19.909999900000003,0.10534487664699554,-8.722076416015625,8.015787124633789,-14.2974853515625,26.2908935546875,-56.7779541015625
19.929999900000002,0.090979665517807,-8.482656478881836,8.413225173950195,5.4168701171875,27.34375,-81.6802978515625
19.9499999,-0.021547814831137657,-8.157045364379883,9.097966194152832,8.941650390625,22.247314453125,-104.278564453125
19.9699999,-0.2298433631658554,-7.95832633972168,10.165780067443848,-18.7225341796875,19.012451171875,-133.819580078125
19.9899999,-0.5650315880775452,-7.587224960327148,10.831368446350098,-56.21337890625,-0.274658203125,-175.8270263671875
20.0099999,-0.7422025203704834,-6.543353080749512,11.453861236572266,-59.5245361328125,8.0718994140625,-208.404541015625
20.0299999,-0.7709329724311829,-4.99669885635376,11.654973983764648,-53.7567138671875,24.078369140625,-183.2275390625
20.0499999,-0.6009446382522583,-3.112462282180786,11.583148002624512,-53.497314453125,5.2947998046875,-159.0728759765625
20.0699999,-0.16519992053508759,-1.2665326595306396,11.882423400878906,-44.219970703125,-12.5274658203125,-173.370361328125
20.089999900000002,0.2849099934101105,0.35434186458587646,12.217611312866211,-54.13818359375,-31.280517578125,-183.5479736328125
20.109999900000002,0.7637503147125244,1.987187385559082,12.58152961730957,-94.818115234375,-51.5289306640625,-151.123046875
20.1299999,1.290474772453308,3.7660791873931885,13.283031463623047,-125.885009765625,-39.947509765625,-95.062255859375
20.1499999,1.9632453918457031,5.767632007598877,14.051569938659668,-123.6724853515625,-75.164794921875,-61.58447265625
20.1699999,2.626439332962036,7.515398979187012,14.791378021240234,-87.6312255859375,-139.0228271484375,-28.289794921875
20.1899999,3.294421434402466,8.822632789611816,15.026009559631348,-59.234619140625,-183.7158203125,31.494140625
