# Time (seconds),Accel_X,Accel_Y,Accel_Z,Gyro_X,Gyro_Y,Gyro_Z
0.0099999,3.31118106842041,-0.8906430602073669,9.131484985351562,0.9918212890625,7.4462890625,-3.021240234375
0.029999900000000003,3.332728862762451,-1.0414776802062988,9.102754592895508,0.4425048828125,7.4005126953125,-10.8184814453125
0.0499999,3.359065055847168,-1.161187767982483,9.081207275390625,0.579833984375,8.6517333984375,-13.97705078125
0.0699999,3.375824451446533,-1.3287819623947144,9.042900085449219,1.312255859375,10.3759765625,-13.12255859375
0.08999990000000001,3.375824451446533,-1.4915876388549805,9.071630477905273,-1.9378662109375,15.106201171875,-24.59716796875
0.10999990000000001,3.354276657104492,-1.723825216293335,9.121908187866211,-9.4451904296875,12.939453125,-44.4183349609375
0.1299999,3.2800562381744385,-1.7334020137786865,9.196128845214844,-13.0767822265625,5.706787109375,-58.1207275390625
0.14999990000000002,3.1220390796661377,-1.3192051649093628,9.229647636413574,-9.5367431640625,7.50732421875,-57.1441650390625
0.1699999,2.8131868839263916,-0.2106897532939911,9.32302188873291,-9.82666015625,19.6533203125,-37.994384765625
0.1899999,2.3271639347076416,1.8986018896102905,9.59596061706543,-5.9051513671875,27.130126953125,-2.7313232421875
0.20999990000000002,1.723825216293335,4.285621166229248,10.139444351196289,7.1868896484375,8.11767578125,75.836181640625
0.2299999,1.1755530834197998,6.102819919586182,10.888829231262207,5.462646484375,-13.458251953125,166.717529296875
0.2499999,0.8307880163192749,7.42681360244751,11.494562149047852,-13.8702392578125,-35.888671875,177.978515625
0.2699999,0.6871358752250671,7.007828235626221,11.348516464233398,-19.53125,-47.882080078125,212.890625
0.28999990000000003,0.706289529800415,5.329493045806885,10.560823440551758,12.0391845703125,-29.60205078125,248.8555908203125
0.3099999,1.460463047027588,-4.017470359802246,8.825027465820312,6.591796875,-3.936767578125,141.1590576171875
0.3299999,2.2002713680267334,-9.090784072875977,8.300697326660156,-39.7491455078125,-44.1436767578125,-28.0303955078125
0.34999990000000003,3.0621838569641113,-13.036428451538086,7.908048152923584,-37.322998046875,-19.134521484375,-43.8995361328125
0.3699999,3.823540210723877,-14.61420726776123,7.247248649597168,-11.7950439453125,1.52587890625,-63.96484375
0.3899999,4.2544965744018555,-14.437036514282227,6.785167694091797,2.1209716796875,18.6614990234375,-134.6282958984375
0.40999990000000003,4.280832767486572,-13.15613842010498,6.658275127410889,-3.4027099609375,21.942138671875,-197.0672607421875
0.4299999,3.890577793121338,-10.982203483581543,6.7708024978637695,-12.8326416015625,7.8887939453125,-209.930419921875
0.4499999,3.1651346683502197,-7.939172744750977,7.1251444816589355,-3.2501220703125,15.2587890625,-210.8306884765625
0.4699999,2.2625205516815186,-4.388571739196777,7.4100542068481445,2.1820068359375,26.5655517578125,-214.7216796875
0.4899999,1.335964560508728,-0.545877993106842,7.7763671875,-0.1983642578125,43.8690185546875,-188.446044921875
0.5099999,0.5339069962501526,3.265691041946411,8.362946510314941,6.28662109375,57.6019287109375,-124.1302490234375
0.5299999,-0.08858546614646912,6.665457725524902,9.129091262817383,2.86865234375,47.05810546875,-44.9676513671875
0.5499999,-0.4908113479614258,9.847352027893066,10.122684478759766,-1.068115234375,37.1551513671875,9.3536376953125
0.5699999,-0.730231523513794,11.793837547302246,11.171344757080078,7.75146484375,30.45654296875,98.6328125
0.5899998999999999,-0.871489405632019,13.046005249023438,12.011710166931152,20.172119140625,12.9241943359375,189.4683837890625
0.6099998999999999,-1.039083480834961,12.94305419921875,12.595894813537598,40.496826171875,-4.119873046875,250.274658203125
0.6299999,-1.2282254695892334,11.240777015686035,12.739546775817871,38.177490234375,-17.1966552734375,300.96435546875
0.6499999,-1.1085153818130493,6.279991149902344,12.957419395446777,22.674560546875,-18.463134765625,329.1015625
0.6699999,-0.6440402865409851,-0.20111294090747833,12.263101577758789,-18.402099609375,-67.9779052734375,227.5848388671875
0.6899999,0.35913026332855225,-6.7923502922058105,11.319786071777344,-50.29296875,-85.63232421875,38.5589599609375
0.7099999,1.680729627609253,-12.318167686462402,9.880870819091797,-15.411376953125,-29.23583984375,13.3056640625
0.7299998999999999,2.9520506858825684,-15.112200736999512,8.169015884399414,-1.2359619140625,-12.7105712890625,-6.0882568359375
0.7499998999999999,3.8115692138671875,-15.976508140563965,6.813898086547852,-18.707275390625,-11.41357421875,-91.5374755859375
0.7699999,4.146757125854492,-15.507244110107422,6.004657745361328,-26.7181396484375,0.701904296875,-183.807373046875
0.7899999,3.9384617805480957,-13.886369705200195,5.57370138168335,-20.782470703125,15.7318115234375,-218.1396484375
0.8099999,3.294421434402466,-10.934319496154785,5.501875400543213,-12.481689453125,27.435302734375,-226.3031005859375
0.8299999,2.3965959548950195,-7.005434036254883,5.875370979309082,-11.077880859375,42.266845703125,-228.1036376953125
0.8499998999999999,1.4652514457702637,-2.5977089405059814,6.6391215324401855,-12.3291015625,48.9959716796875,-210.9832763671875
0.8699998999999999,0.6344634294509888,1.721431016921997,7.778761386871338,-8.1787109375,51.1474609375,-152.801513671875
0.8899999,0.05506663769483566,5.631162166595459,9.287108421325684,-5.2490234375,53.1463623046875,-85.784912109375
0.9099999,-0.2753331959247589,8.937555313110352,10.90558910369873,-9.9334716796875,36.9720458984375,-26.2298583984375
0.9299999,-0.4405331015586853,11.60948371887207,12.301408767700195,-8.4991455078125,0.732421875,45.867919921875
0.9499999,-0.5554547905921936,13.33809757232666,13.400346755981445,9.796142578125,-20.2178955078125,151.06201171875
0.9699998999999999,-0.7757213711738586,14.178462028503418,13.493721008300781,18.49365234375,-37.1246337890625,239.7003173828125
0.9899998999999999,-1.1109095811843872,13.093889236450195,13.038822174072266,35.247802734375,-29.9835205078125,303.5125732421875
1.0099999,-1.280897855758667,9.016563415527344,12.337321281433105,46.8597412109375,-11.2762451171875,331.573486328125
1.0299999,-1.0007762908935547,2.161964178085327,11.434707641601562,5.8441162109375,-42.3126220703125,257.2479248046875
1.0499999,-0.1173158809542656,-5.011064052581787,10.211270332336426,-52.6885986328125,-82.244873046875,74.70703125
1.0699999,1.2737152576446533,-11.748347282409668,9.038111686706543,-29.8614501953125,-32.6690673828125,-0.4425048828125
1.0899999,2.7509377002716064,-15.614983558654785,7.575253963470459,9.6893310546875,5.615234375,-20.3399658203125
1.1099999,3.845088005065918,-16.94615936279297,6.45476770401001,-0.3814697265625,4.5166015625,-87.9364013671875
1.1299999,4.364629745483398,-16.429012298583984,5.954379558563232,-20.3704833984375,2.50244140625,-160.3546142578125
1.1499999,4.242525577545166,-14.628572463989258,5.765237808227539,-26.458740234375,9.8876953125,-198.1658935546875
1.1699998999999999,3.643975019454956,-11.611878395080566,5.880159378051758,-21.3775634765625,27.2674560546875,-216.0797119140625
1.1899998999999999,2.7222073078155518,-7.69735860824585,6.169857978820801,-4.6234130859375,43.5943603515625,-222.6409912109375
1.2099999,1.7525556087493896,-3.4189200401306152,6.912060260772705,-10.498046875,51.9866943359375,-206.0699462890625
1.2299999,0.8643068075180054,0.8092401623725891,7.996633529663086,-25.177001953125,50.4302978515625,-161.3922119140625
1.2499999,0.26336219906806946,4.742913722991943,9.476250648498535,-26.092529296875,43.7774658203125,-110.6719970703125
1.2699999,-0.0694318488240242,7.924807548522949,11.003750801086426,-6.7138671875,30.4412841796875,-42.999267578125
1.2899999,-0.19153612852096558,10.60391902923584,12.282255172729492,7.14111328125,1.0833740234375,27.52685546875
1.3099999,-0.26336219906806946,12.318167686462402,13.079524040222168,5.3253173828125,-18.4783935546875,115.8905029296875
1.3299999,-0.40940847992897034,13.333309173583984,13.24711799621582,16.9830322265625,-24.0020751953125,195.2972412109375
1.3499999,-0.6991068720817566,12.806585311889648,12.957419395446777,41.9464111328125,-26.2908935546875,265.6097412109375
1.3699999,-0.9481038451194763,10.144232749938965,12.51449203491211,56.5338134765625,-29.78515625,309.5703125
1.3899999,-0.8954314589500427,5.319916248321533,11.848904609680176,27.6947021484375,-52.8411865234375,275.1312255859375
1.4099999,-0.33758243918418884,-1.05105459690094,10.867281913757324,-22.8424072265625,-71.7620849609375,184.63134765625
1.4299998999999999,0.751779317855835,-7.627926826477051,9.603142738342285,-33.416748046875,-47.607421875,93.536376953125
1.4499999,2.121262788772583,-12.892776489257812,8.085219383239746,-8.6669921875,-11.810302734375,15.960693359375
1.4699999,3.3518824577331543,-16.117765426635742,6.742072105407715,-0.30517578125,3.0517578125,-55.17578125
1.4899999,4.132391929626465,-17.17839813232422,5.932831764221191,-11.6729736328125,8.85009765625,-119.0338134765625
1.5099999,4.314351558685303,-16.33563804626465,5.4659624099731445,-23.5137939453125,9.124755859375,-171.5545654296875
1.5299999,3.9384617805480957,-14.25268268585205,5.386953830718994,-24.932861328125,25.7415771484375,-196.71630859375
1.5499999,3.1651346683502197,-10.90558910369873,5.5545477867126465,-10.7421875,51.1932373046875,-229.034423828125
1.5699999,2.207453966140747,-6.936002254486084,6.110002517700195,-8.3160400390625,63.4765625,-235.382080078125
1.5899999,1.2497732639312744,-2.652775526046753,7.151480674743652,-22.2625732421875,64.056396484375,-201.385498046875
1.6099999,0.47165772318840027,1.7334020137786865,8.698134422302246,-25.87890625,60.3179931640625,-155.3955078125
1.6299999,-0.05027823522686958,5.5976433753967285,10.486603736877441,-22.4761962890625,44.8150634765625,-96.37451171875
1.6499999,-0.3208230137825012,8.887276649475098,12.167332649230957,-9.2010498046875,16.41845703125,-32.2723388671875
1.6699999,-0.4381389021873474,11.671732902526855,13.453019142150879,4.547119140625,-7.6751708984375,37.506103515625
1.6899998999999999,-0.5386953949928284,13.39555835723877,14.149731636047363,15.07568359375,-28.38134765625,140.8538818359375
1.7099999,-0.730231523513794,14.195221900939941,13.910311698913574,27.8778076171875,-47.088623046875,225.9063720703125
1.7299999,-1.072602391242981,13.314155578613281,12.887988090515137,41.8853759765625,-47.8515625,280.6854248046875
1.7499999,-1.3503297567367554,9.99100399017334,11.683704376220703,52.91748046875,-16.17431640625,316.4215087890625
1.7699999,-1.1635819673538208,3.533841609954834,10.536881446838379,25.6500244140625,-15.4266357421875,300.1708984375
1.7899999,-0.40701428055763245,-3.9025487899780273,9.251194953918457,-25.7568359375,-64.5751953125,134.6282958984375
1.8099999,0.9576807022094727,-11.094730377197266,8.398859977722168,-27.9693603515625,-39.5355224609375,-19.866943359375
1.8299999,3.7205893993377686,-17.60935401916504,6.739677906036377,-4.425048828125,6.866455078125,-71.685791015625
1.8499999,4.3406877517700195,-17.01559066772461,6.5912370681762695,-23.193359375,-2.227783203125,-131.195068359375
1.8699999,4.299986362457275,-15.014039039611816,6.670246124267578,-33.172607421875,-4.0283203125,-185.791015625
1.8899999,3.756502389907837,-11.990161895751953,6.768408298492432,-21.942138671875,10.8642578125,-210.205078125
1.9099999,2.9089550971984863,-8.396465301513672,6.8593878746032715,-3.60107421875,37.6434326171875,-209.7625732421875
1.9299998999999999,1.9632453918457031,-4.393360137939453,7.079654216766357,-4.5166015625,50.384521484375,-209.8846435546875
1.9499999,1.0821791887283325,-0.5003881454467773,7.623138427734375,-23.8800048828125,49.224853515625,-192.8558349609375
1.9699999,0.3878606855869293,3.2369606494903564,8.559270858764648,-29.23583984375,49.74365234375,-145.660400390625
1.9899999,-0.06464344263076782,6.584054470062256,9.739612579345703,-18.4173583984375,44.769287109375,-79.8492431640625
2.0099999,-0.3064578175544739,9.528923034667969,11.001357078552246,6.927490234375,28.778076171875,-12.7410888671875
2.0299999,-0.40701428055763245,11.920730590820312,12.227188110351562,14.7705078125,10.5743408203125,56.94580078125
2.0499999,-0.5099649429321289,13.278243064880371,13.141773223876953,13.85498046875,-18.3563232421875,153.6102294921875
2.0699999,-0.6775590777397156,13.606247901916504,13.479355812072754,22.8424072265625,-41.3970947265625,226.531982421875
2.0899999,-0.9624691009521484,12.327744483947754,13.132196426391602,41.5802001953125,-46.8292236328125,277.3284912109375
2.1099999,-1.2641384601593018,9.342175483703613,12.236764907836914,53.314208984375,-37.872314453125,305.084228515625
2.1299999,-1.1037269830703735,3.3494882583618164,11.4849853515625,25.4058837890625,-29.632568359375,313.90380859375
2.1499999,-0.45489832758903503,-3.9480385780334473,10.366893768310547,-35.186767578125,-72.662353515625,201.568603515625
2.1699999,0.8355764150619507,-10.714052200317383,9.220070838928223,-50.8880615234375,-86.395263671875,-10.4217529296875
2.1899999,2.387019157409668,-16.03875732421875,7.99184513092041,-6.7138671875,-16.1895751953125,-41.44287109375
2.2099999,3.7277719974517822,-17.724275588989258,6.787561893463135,0.457763671875,11.6424560546875,-53.6956787109375
2.2299999,4.508281707763672,-17.056293487548828,6.167463779449463,-15.56396484375,-2.349853515625,-107.513427734375
2.2499999,4.656722068786621,-14.894329071044922,6.04775333404541,-24.4903564453125,-14.9383544921875,-159.149169921875
2.2699999,4.23773717880249,-11.985373497009277,6.071695327758789,-22.979736328125,-1.5106201171875,-185.72998046875
2.2899999,3.421314239501953,-8.4108304977417,5.925649166107178,-18.646240234375,30.2276611328125,-199.3865966796875
2.3099999,2.4420857429504395,-4.448426723480225,5.872976779937744,-8.0718994140625,67.474365234375,-196.502685546875
2.3299999,1.4891934394836426,-0.5027823448181152,6.275202751159668,-2.0751953125,91.8426513671875,-165.5731201171875
2.3499999,0.6943184733390808,3.40216064453125,7.273584842681885,-3.3721923828125,88.3026123046875,-119.5068359375
2.3699999,0.15322890877723694,7.038952827453613,8.959102630615234,-10.009765625,78.826904296875,-64.6209716796875
2.3899999,-0.14365209639072418,10.11550235748291,10.994174003601074,2.960205078125,53.6346435546875,14.434814453125
2.4099999,-0.272938996553421,12.397176742553711,13.30218505859375,4.39453125,18.3563232421875,103.363037109375
2.4299999,-0.3423708379268646,13.318943977355957,14.506467819213867,-7.8125,-54.840087890625,179.2449951171875
2.4499999,-0.38546648621559143,12.473791122436523,14.985308647155762,14.251708984375,-67.56591796875,225.89111328125
2.4699999,-0.2537853717803955,9.033323287963867,14.283807754516602,40.5426025390625,-37.506103515625,248.016357421875
2.4899999,0.2346317619085312,3.2297780513763428,12.935872077941895,16.0980224609375,-52.0172119140625,210.235595703125
2.5099999,1.1228805780410767,-3.095702886581421,11.195286750793457,-21.1029052734375,-93.9178466796875,79.5745849609375
2.5299999,2.3487119674682617,-9.033323287963867,9.454702377319336,-29.052734375,-81.024169921875,-0.3509521484375
2.5499999,3.581725835800171,-13.153743743896484,7.642292022705078,-21.2554931640625,-37.750244140625,-10.4217529296875
2.5699999,4.462791919708252,-14.985308647155762,6.098031520843506,-24.7802734375,-16.4642333984375,-71.624755859375
2.5899999,4.850652694702148,-14.97573184967041,5.142745018005371,-28.2745361328125,-10.833740234375,-150.1617431640625
2.6099999,4.707000732421875,-13.455413818359375,4.757278919219971,-30.3192138671875,0.701904296875,-179.3212890625
2.6299999,4.1180267333984375,-10.532093048095703,4.685452938079834,-29.5867919921875,17.791748046875,-175.1708984375
2.6499999,3.2393548488616943,-6.7277069091796875,4.800374507904053,-29.693603515625,47.119140625,-172.6837158203125
2.6699999,2.2409727573394775,-2.7485435009002686,5.243301868438721,-35.675048828125,88.2110595703125,-161.3616943359375
2.6899999,1.3048399686813354,1.0654197931289673,6.354211330413818,-44.7998046875,117.8436279296875,-126.6937255859375
2.7099999,0.5889736413955688,4.67827033996582,8.300697326660156,-52.8411865234375,109.7412109375,-74.981689453125
2.7299999,0.16519992053508759,7.812280178070068,10.78348445892334,-23.834228515625,59.4635009765625,-3.5552978515625
2.7499999,-0.011971008032560349,10.357316970825195,13.201627731323242,-5.8135986328125,6.65283203125,72.479248046875
2.7699999,-0.07661445438861847,11.798625946044922,14.968548774719238,-4.69970703125,-18.9361572265625,148.5443115234375
2.7899999,-0.12449848651885986,11.793837547302246,15.737088203430176,10.284423828125,-35.5377197265625,212.9364013671875
2.8099999,-0.15083470940589905,9.804255485534668,15.476119995117188,29.35791015625,-63.0035400390625,248.22998046875
2.8299999,0.0454898327589035,5.56173038482666,14.499285697937012,32.3638916015625,-74.76806640625,249.32861328125
2.8499999,0.5602431893348694,-0.07661445438861847,12.734758377075195,18.463134765625,-85.6170654296875,175.23193359375
2.8699999,1.4317326545715332,-6.009446144104004,10.424354553222656,-7.0343017578125,-82.1380615234375,77.8045654296875
2.8899999,2.52109432220459,-11.111490249633789,7.965508937835693,-28.564453125,-52.1697998046875,24.383544921875
2.9099999,3.536235809326172,-14.43464183807373,5.700594425201416,-37.41455078125,-20.4620361328125,-29.1900634765625
2.9299999,4.197035789489746,-15.993267059326172,4.046200752258301,-26.8402099609375,4.6539306640625,-102.84423828125
2.9499999,4.350264549255371,-15.70117473602295,3.1076738834381104,-15.4266357421875,25.421142578125,-175.994873046875
2.9699999,4.010287761688232,-13.88158130645752,3.0142998695373535,-10.9405517578125,52.6123046875,-204.7271728515625
2.9899999,3.28963303565979,-10.702081680297852,3.6128504276275635,-6.256103515625,73.5931396484375,-207.183837890625
3.0099999,2.3511061668395996,-6.71334171295166,4.714183330535889,-15.350341796875,74.737548828125,-205.9326171875
3.0299999,1.3694833517074585,-2.427720546722412,6.279991149902344,-33.2183837890625,86.9140625,-191.558837890625
3.0499999,0.507570743560791,1.800439715385437,8.293514251708984,-43.5333251953125,104.7821044921875,-143.2952880859375
3.0699999,-0.10773907601833344,5.638344764709473,10.685321807861328,-30.8074951171875,87.799072265625,-66.4520263671875
3.0899999,-0.42616790533065796,8.7484130859375,13.041216850280762,-11.0626220703125,22.5372314453125,7.415771484375
3.1099999,-0.49799394607543945,11.099518775939941,15.093047142028809,-9.979248046875,-22.9644775390625,66.6351318359375
3.1299999,-0.5171475410461426,12.322956085205078,16.196775436401367,-0.3814697265625,-49.9420166015625,147.552490234375
3.1499999,-0.6703764796257019,12.471396446228027,16.04115104675293,20.7977294921875,-78.9031982421875,236.8011474609375
3.1699999,-1.0103530883789062,11.113883972167969,14.79616641998291,30.4718017578125,-91.2628173828125,297.2412109375
3.1899999,-1.216254472732544,7.139509677886963,12.87362289428711,13.336181640625,-80.230712890625,337.860107421875
3.2099999,-0.9792284965515137,0.5530605912208557,10.462661743164062,-6.1187744140625,-83.06884765625,299.835205078125
3.2299999,-0.1388636976480484,-7.182605266571045,7.771578788757324,-30.8074951171875,-79.8187255859375,131.7901611328125
3.2499999,1.2258312702178955,-13.994109153747559,5.60722017288208,-11.871337890625,-11.016845703125,-42.9840087890625
3.2699999,2.652775526046753,-18.617311477661133,4.067748546600342,21.8505859375,37.109375,-73.42529296875
3.2899999,3.6846764087677,-19.658790588378906,3.490746021270752,4.302978515625,28.7017822265625,-117.1875
3.3099999,4.1395745277404785,-18.373104095458984,4.015076160430908,-9.27734375,27.496337890625,-181.7626953125
3.3299999000000002,3.950432777404785,-15.722723007202148,4.896142482757568,-19.59228515625,29.1595458984375,-207.9620361328125
3.3499999,2.2840683460235596,-7.642292022705078,6.6630635261535645,-3.326416015625,68.5272216796875,-241.1651611328125
3.3699999,1.2449848651885986,-3.064578056335449,7.608773231506348,21.209716796875,85.0372314453125,-211.73095703125
3.3899999,0.35913026332855225,1.4867992401123047,8.916007041931152,5.8135986328125,71.3958740234375,-160.980224609375
3.4099999,-0.2537853717803955,5.4875102043151855,10.450690269470215,-32.8826904296875,37.0330810546875,-94.7113037109375
3.4299999,-0.6009446382522583,8.753201484680176,11.99255657196045,-37.41455078125,9.796142578125,-34.027099609375
3.4499999,-0.727837324142456,11.5065336227417,13.194445610046387,0.6866455078125,-4.0740966796875,29.3731689453125
3.4699999,-0.8379706144332886,13.5870943069458,14.111424446105957,42.2821044921875,-15.3656005859375,129.7454833984375
3.4899999,-1.1300631761550903,14.791378021240234,14.326903343200684,38.116455078125,-53.64990234375,256.0882568359375
3.5099999,-1.6927006244659424,14.662091255187988,14.030021667480469,40.34423828125,-77.178955078125,338.07373046875
3.5299999,-2.5282769203186035,12.416330337524414,13.172897338867188,69.122314453125,-61.737060546875,384.1705322265625
3.5499999,-3.0166940689086914,6.514622688293457,12.236764907836914,64.1632080078125,-48.8128662109375,414.703369140625
3.5699999,-2.806004285812378,-2.169146776199341,10.967838287353516,-2.2430419921875,-86.8682861328125,331.3140869140625
3.5899999,-1.6352397203445435,-11.044452667236328,9.320627212524414,-52.032470703125,-116.7755126953125,66.2078857421875
3.6099999,0.21787235140800476,-19.175161361694336,7.841010570526123,-12.420654296875,-31.43310546875,-63.8275146484375
3.6299999,2.0901381969451904,-23.355438232421875,6.150704383850098,9.6435546875,-0.885009765625,-108.7799072265625
3.6499999,3.3470940589904785,-23.99947738647461,5.137956619262695,-16.0064697265625,-15.56396484375,-195.1141357421875
3.6699999,3.7277719974517822,-22.024261474609375,4.8267107009887695,-27.069091796875,-6.5460205078125,-270.01953125
3.6899999,3.2106244564056396,-18.34197998046875,4.8602294921875,-35.6597900390625,16.29638671875,-309.8602294921875
3.7099999,2.075772762298584,-13.266271591186523,5.013458251953125,-43.365478515625,36.7279052734375,-339.569091796875
3.7299999,0.7110779285430908,-7.465120792388916,5.5114521980285645,-41.6107177734375,67.2149658203125,-330.5511474609375
3.7499999,-0.5434837937355042,-1.2425906658172607,6.366182327270508,-33.1573486328125,84.5947265625,-282.989501953125
3.7699999,-1.4245500564575195,4.627991676330566,7.773972988128662,-44.6929931640625,78.1097412109375,-198.7762451171875
3.7899999,-1.8315643072128296,9.536105155944824,9.50737476348877,-64.3768310546875,56.9915771484375,-102.874755859375
3.8099999,-1.8339585065841675,12.952630996704102,11.259930610656738,-62.1337890625,33.7066650390625,-25.6805419921875
3.8299999000000002,-1.6328455209732056,15.145719528198242,12.844892501831055,-50.8270263671875,16.54052734375,38.421630859375
3.8499999,-1.4508862495422363,16.012420654296875,14.056358337402344,-34.149169921875,-8.453369140625,130.2947998046875
3.8699999,-1.4891934394836426,15.818490982055664,14.820108413696289,32.4249267578125,-46.1883544921875,248.5504150390625
3.8899999,-1.843535304069519,14.453795433044434,14.877569198608398,44.5404052734375,-75.714111328125,322.4639892578125
3.9099999,-2.4684219360351562,11.719616889953613,14.391546249389648,61.2030029296875,-73.944091796875,378.692626953125
3.9299999,-3.2130186557769775,7.589619159698486,13.30457878112793,68.8629150390625,-73.333740234375,419.2962646484375
3.9499999,-3.469198226928711,0.9050082564353943,12.121843338012695,26.1077880859375,-87.3870849609375,456.3140869140625
3.9699999,-3.0334534645080566,-7.733271598815918,10.417171478271484,-41.3818359375,-125.9918212890625,370.66650390625
3.9899999,-1.7310078144073486,-16.019603729248047,8.02536392211914,-64.75830078125,-128.4637451171875,88.6993408203125
4.0099999,0.11971008777618408,-22.6730899810791,5.731719017028809,8.48388671875,-9.4451904296875,-76.2176513671875
4.029999900000001,1.9345149993896484,-25.59162139892578,3.648763418197632,39.1082763671875,42.90771484375,-83.5418701171875
4.0499999,3.1507694721221924,-25.069686889648438,2.5905263423919678,-4.8065185546875,17.2882080078125,-148.5595703125
4.069999900000001,3.5027170181274414,-22.431276321411133,2.5689783096313477,-30.76171875,18.8140869140625,-249.755859375
4.0899999000000005,3.026270866394043,-18.45690155029297,3.066972494125366,-18.9666748046875,51.666259765625,-314.300537109375
4.1099999,1.9704279899597168,-13.496114730834961,3.7636849880218506,0.0457763671875,80.7952880859375,-317.5506591796875
4.1299999000000005,0.6105214357376099,-7.996633529663086,4.757278919219971,-6.53076171875,95.062255859375,-301.8646240234375
4.1499999,-0.7350199222564697,-2.492363929748535,6.157886981964111,-49.01123046875,101.4862060546875,-293.1365966796875
4.1699999000000005,-1.843535304069519,2.6815059185028076,7.876923561096191,-73.3489990234375,110.9161376953125,-265.045166015625
4.1899999,-2.604891538619995,7.6111674308776855,10.108319282531738,-53.22265625,121.6888427734375,-198.3795166015625
4.209999900000001,-2.9664158821105957,12.100295066833496,12.777854919433594,-51.8035888671875,86.3189697265625,-88.775634765625
4.2299999,-3.0190882682800293,15.631742477416992,15.291766166687012,-76.96533203125,-10.528564453125,40.8172607421875
4.249999900000001,-2.937685489654541,17.92299461364746,17.20473289489746,-52.9937744140625,-71.319580078125,140.3350830078125
4.2699999,-2.940079689025879,18.432958602905273,18.04509735107422,41.93115234375,-80.26123046875,242.5384521484375
4.289999900000001,-3.24414324760437,17.393875122070312,17.424999237060547,73.8372802734375,-103.515625,345.8099365234375
4.3099999,-3.998316764831543,14.36760425567627,15.954959869384766,79.5745849609375,-124.9237060546875,449.5697021484375
4.329999900000001,-4.752490520477295,8.281543731689453,14.221558570861816,73.5321044921875,-128.173828125,499.9847412109375
4.3499999,-5.0685248374938965,-1.8818424940109253,12.083536148071289,17.63916015625,-162.933349609375,499.9847412109375
4.369999900000001,-4.460397720336914,-13.292608261108398,8.822632789611816,-51.9561767578125,-216.5374755859375,263.24462890625
4.3899999,-2.7748796939849854,-23.25967025756836,5.518634796142578,-39.2913818359375,-80.3680419921875,-77.7130126953125
4.409999900000001,-0.6224924325942993,-29.690494537353516,2.451662540435791,67.0166015625,59.722900390625,-103.363037109375
4.4299999,1.2473790645599365,-30.37763023376465,0.4692635238170624,46.3714599609375,34.332275390625,-154.0374755859375
4.449999900000001,2.274491548538208,-27.57880973815918,0.5817909836769104,21.4691162109375,22.9034423828125,-261.23046875
4.4699999,2.27209734916687,-22.72097396850586,1.8411411046981812,6.6375732421875,39.703369140625,-331.54296875
4.489999900000001,1.403002142906189,-16.864757537841797,3.3470940589904785,-26.4739990234375,41.473388671875,-357.086181640625
4.5099999,0.009576806798577309,-10.498574256896973,4.819528102874756,-54.74853515625,61.2945556640625,-371.8414306640625
4.529999900000001,-1.5682021379470825,-4.089296340942383,6.162675380706787,-63.5528564453125,98.785400390625,-374.267578125
4.5499999,-2.956839084625244,2.3343467712402344,7.592013359069824,-71.4874267578125,132.4005126953125,-345.4132080078125
4.569999900000001,-3.909731388092041,8.731653213500977,9.533711433410645,-72.4639892578125,142.9443359375,-260.31494140625
4.5899999000000005,-4.302380561828613,14.647726058959961,11.939884185791016,-49.2706298828125,93.353271484375,-112.335205078125
4.609999900000001,-4.242525577545166,19.345149993896484,14.451401710510254,-38.87939453125,11.1236572265625,55.2825927734375
4.6299999000000005,-4.0078935623168945,22.380996704101562,16.40028190612793,-40.1458740234375,-58.53271484375,194.39697265625
4.6499999,-3.993528366088867,22.950817108154297,17.032350540161133,-17.2271728515625,-92.10205078125,339.630126953125
4.6699999000000005,-4.338293552398682,20.848709106445312,16.41464614868164,71.533203125,-90.2252197265625,459.8236083984375
4.6899999,-5.286397457122803,16.28775405883789,14.997279167175293,137.969970703125,-63.5223388671875,499.9847412109375
4.709999900000001,-6.129156112670898,7.841010570526123,13.685256958007812,102.4932861328125,-73.4100341796875,499.9847412109375
4.7299999,-6.335057735443115,-3.914519786834717,12.375628471374512,-1.2054443359375,-136.505126953125,499.9847412109375
4.749999900000001,-5.485116004943848,-16.09382438659668,10.062829971313477,-73.1658935546875,-198.8525390625,230.5755615234375
4.7699999,-3.4548330307006836,-26.443958282470703,7.553706169128418,-22.216796875,-69.7021484375,-90.118408203125
4.789999900000001,-1.1971008777618408,-32.905906677246094,4.69024133682251,46.051025390625,44.464111328125,-154.60205078125
4.8099999,0.44771572947502136,-33.212364196777344,2.6862943172454834,-22.5830078125,15.3961181640625,-292.1905517578125
4.829999900000001,0.9097966551780701,-29.621063232421875,2.3271639347076416,-49.163818359375,8.880615234375,-410.675048828125
4.8499999,0.2059013396501541,-22.771251678466797,2.8395233154296875,-44.9371337890625,32.3638916015625,-445.6939697265625
4.869999900000001,-1.170764684677124,-13.869610786437988,3.773261785507202,-75.62255859375,65.4144287109375,-431.1370849609375
4.8899999,-3.5482068061828613,4.010287761688232,6.7277069091796875,-115.478515625,122.55859375,-307.4798583984375
4.909999900000001,-3.8594532012939453,10.809821128845215,9.074024200439453,-83.099365234375,118.0267333984375,-219.7723388671875
4.9299999,-3.56017804145813,15.703569412231445,11.8441162109375,-59.1888427734375,72.32666015625,-106.9183349609375
4.949999900000001,-2.9233202934265137,18.978836059570312,14.607024192810059,-62.896728515625,5.06591796875,31.73828125
4.9699999,-2.3487119674682617,20.944477081298828,16.95334243774414,-39.215087890625,-49.346923828125,190.826416015625
4.989999900000001,-2.2433669567108154,20.827159881591797,17.91341781616211,41.015625,-89.6759033203125,374.3438720703125
5.0099999,-2.8347349166870117,18.904617309570312,17.537527084350586,117.5384521484375,-99.30419921875,481.2164306640625
5.029999900000001,-4.242525577545166,14.293384552001953,15.986084938049316,110.29052734375,-77.5909423828125,499.9847412109375
5.0499999,-5.705382823944092,6.464344501495361,14.358027458190918,123.22998046875,-65.3076171875,499.9847412109375
5.069999900000001,-6.670246124267578,-5.5760955810546875,12.641385078430176,76.751708984375,-119.4610595703125,499.9847412109375
5.0899999000000005,-6.507440090179443,-18.193538665771484,9.59835433959961,-59.051513671875,-231.3690185546875,294.6319580078125
5.109999900000001,-5.106832027435303,-28.222848892211914,6.670246124267578,-100.4180908203125,-61.5692138671875,-175.140380859375
5.1299999000000005,-3.071760892868042,-33.7869758605957,3.464409828186035,66.436767578125,103.8818359375,-212.5701904296875
5.1499999,-1.259350061416626,-32.451011657714844,1.1971008777618408,36.5447998046875,45.6695556640625,-233.0169677734375
5.1699999000000005,-0.2825157940387726,-27.317840576171875,1.259350061416626,-34.820556640625,30.242919921875,-341.7816162109375
5.1899999,-0.2537853717803955,-20.068199157714844,2.3726539611816406,-54.7637939453125,60.5316162109375,-418.2586669921875
5.209999900000001,-0.8643068075180054,-11.702857971191406,3.9169139862060547,-48.736572265625,78.55224609375,-414.1845703125
5.2299999,-1.5873557329177856,-2.715024709701538,5.616796970367432,-39.581298828125,97.381591796875,-343.7957763671875
5.249999900000001,-2.0039467811584473,5.774814605712891,7.383718013763428,-37.2161865234375,107.8643798828125,-228.8818359375
5.2699999,-1.9345149993896484,12.70602798461914,9.50737476348877,-38.9251708984375,116.39404296875,-96.8017578125
5.289999900000001,-1.482010841369629,17.6141414642334,11.997344970703125,-27.83203125,85.8154296875,19.134521484375
5.3099999,-0.9409212470054626,20.52549171447754,14.530409812927246,-16.7999267578125,13.3514404296875,123.809814453125
5.329999900000001,-0.6440402865409851,21.01390838623047,16.067487716674805,-24.993896484375,-64.3310546875,268.3563232421875
5.3499999,-0.7757213711738586,18.306066513061523,16.47210693359375,24.5361328125,-66.3909912109375,388.336181640625
5.369999900000001,-0.950498104095459,11.133037567138672,15.7322998046875,100.311279296875,-32.073974609375,399.8870849609375
5.3899999,-0.8307880163192749,1.3886369466781616,13.565546989440918,24.3072509765625,-79.58984375,236.724853515625
5.409999900000001,-0.12210428714752197,-7.939172744750977,11.042057991027832,-56.3812255859375,-81.6192626953125,20.20263671875
5.4299999,1.015141487121582,-14.867992401123047,7.819462776184082,-37.8570556640625,-28.4271240234375,24.8870849609375
5.449999900000001,2.1092917919158936,-17.50640296936035,4.8051629066467285,0.885009765625,36.5753173828125,47.515869140625
5.4699999,2.7222073078155518,-17.597381591796875,2.63362193107605,45.3643798828125,86.029052734375,-13.85498046875
5.489999900000001,2.8227639198303223,-16.012420654296875,1.7908629179000854,46.8597412109375,100.6011962890625,-109.8480224609375
5.5099999,2.5785553455352783,-14.008474349975586,2.497152328491211,40.4205322265625,118.2098388671875,-132.5225830078125
5.529999900000001,2.0925323963165283,-11.537657737731934,3.931279182434082,56.9915771484375,115.6158447265625,-142.669677734375
5.5499999,1.4915876388549805,-9.27034854888916,5.674258232116699,70.556640625,107.421875,-194.7021484375
5.569999900000001,0.7996633648872375,-7.173028469085693,7.668628215789795,63.3392333984375,132.38525390625,-262.664794921875
5.5899999000000005,0.1149216815829277,-5.0469770431518555,10.144232749938965,47.9736328125,136.8865966796875,-288.87939453125
5.609999900000001,-0.4668693244457245,-2.585737943649292,12.938265800476074,33.3099365234375,54.290771484375,-256.3934326171875
5.6299999000000005,-0.8212111592292786,0.2561795711517334,15.998055458068848,-7.7056884765625,-48.797607421875,-233.154296875
5.6499999,-1.1180921792984009,3.1890766620635986,18.440141677856445,-47.8973388671875,-104.0191650390625,-215.1336669921875
5.6699999000000005,-1.2545616626739502,6.138733386993408,19.227834701538086,-58.41064453125,-160.2935791015625,-163.818359375
5.6899999,-1.37906014919281,8.949525833129883,18.725051879882812,-28.5491943359375,-172.42431640625,-58.6395263671875
5.709999900000001,-1.4077905416488647,11.312602996826172,17.25261688232422,10.80322265625,-172.66845703125,57.7545166015625
5.7299999,-1.3527239561080933,12.45703125,15.286977767944336,9.765625,-207.122802734375,150.2532958984375
5.749999900000001,-1.2497732639312744,11.97100830078125,13.256694793701172,8.8043212890625,-233.6578369140625,209.1217041015625
5.7699999,-1.091755986213684,9.986215591430664,11.027692794799805,17.1051025390625,-224.151611328125,224.7772216796875
5.789999900000001,-0.8044517636299133,7.101202011108398,8.47786808013916,21.54541015625,-194.7021484375,228.6376953125
5.8099999,-0.38307225704193115,3.957615375518799,5.829881191253662,32.0281982421875,-154.4952392578125,249.1455078125
5.829999900000001,0.043095629662275314,1.2832920551300049,3.421314239501953,64.0411376953125,-106.5826416015625,260.711669921875
5.8499999,0.2346317619085312,-0.5817909836769104,1.3239935636520386,81.8023681640625,-67.1234130859375,268.9361572265625
5.869999900000001,0.15801730751991272,-2.43011474609375,-0.27054479718208313,69.76318359375,-17.27294921875,313.65966796875
5.8899999,-0.1604115068912506,-4.876988887786865,-1.723825216293335,43.1060791015625,48.9654541015625,348.0682373046875
5.909999900000001,-0.5315127968788147,-7.951143741607666,-3.1292216777801514,41.2750244140625,125.6103515625,261.4288330078125
5.9299999,-0.8523358106613159,-11.444284439086914,-3.4596214294433594,109.344482421875,278.778076171875,134.8724365234375
5.949999900000001,-1.1348515748977661,-14.221558570861816,-2.8586769104003906,177.459716796875,354.55322265625,46.783447265625
5.9699999,-1.4891934394836426,-16.007633209228516,-0.15801730751991272,200.347900390625,365.6768798828125,-15.7012939453125
5.989999900000001,-1.9033904075622559,-16.148889541625977,4.58968448638916,218.3074951171875,346.5118408203125,-129.547119140625
6.0099999,-2.389413356781006,-14.63814926147461,9.607931137084961,187.255859375,222.0611572265625,-241.302490234375
6.029999900000001,-2.851494312286377,-12.500126838684082,14.190433502197266,136.1541748046875,127.3956298828125,-252.50244140625
6.0499999,-3.318363666534424,-9.028534889221191,17.197551727294922,135.1165771484375,104.6600341796875,-279.11376953125
6.069999900000001,-3.773261785507202,-5.861005783081055,18.65083122253418,103.82080078125,62.7593994140625,-329.864501953125
6.0899999000000005,-4.230554580688477,-2.956839084625244,18.847156524658203,39.3524169921875,-34.332275390625,-345.8709716796875
6.109999900000001,-4.654327869415283,-0.3016694188117981,18.95968246459961,7.080078125,-91.5985107421875,-349.5025634765625
6.1299999000000005,-4.900930881500244,2.7126305103302,18.207904815673828,7.659912109375,-156.7535400390625,-326.6754150390625
6.149999900000001,-4.874594688415527,5.281609058380127,17.089811325073242,7.568359375,-198.3489990234375,-218.4600830078125
6.1699999000000005,-4.508281707763672,7.378929615020752,15.727511405944824,7.0037841796875,-203.9337158203125,-120.9869384765625
6.1899999,-3.7900211811065674,8.810662269592285,14.554351806640625,-4.5623779296875,-217.1783447265625,-96.25244140625
6.209999900000001,-2.913743495941162,9.440337181091309,13.73074722290039,-4.730224609375,-261.23046875,-52.093505859375
6.2299999,-2.0183119773864746,9.519346237182617,13.017274856567383,-7.904052734375,-303.8482666015625,37.8265380859375
6.249999900000001,-1.2090718746185303,9.191340446472168,12.09550666809082,-18.6614990234375,-295.562744140625,109.375
6.2699999,-0.5315127968788147,8.415618896484375,10.627861022949219,-22.705078125,-274.2919921875,131.7901611328125
6.289999900000001,0.023942016065120697,6.988674640655518,8.990227699279785,-4.1656494140625,-256.8359375,167.938232421875
6.3099999,0.49799394607543945,5.197812080383301,7.38132381439209,23.4832763671875,-247.161865234375,212.4176025390625
6.329999900000001,0.8930372595787048,3.1459810733795166,5.805939197540283,34.576416015625,-237.24365234375,227.47802734375
6.3499999,1.2449848651885986,0.9768342971801758,4.086902141571045,44.708251953125,-210.1593017578125,219.1925048828125
6.369999900000001,1.522712230682373,-0.8403648138046265,2.123656988143921,57.708740234375,-154.541015625,216.8121337890625
6.3899999,1.601720929145813,-1.9057846069335938,-0.1388636976480484,76.171875,-87.615966796875,241.668701171875
6.409999900000001,1.4437036514282227,-2.5953147411346436,-2.2673089504241943,95.6268310546875,-3.72314453125,291.19873046875
6.4299999,0.7086837291717529,-6.433219909667969,-5.152322292327881,71.3958740234375,176.2847900390625,286.62109375
6.449999900000001,0.2561795711517334,-8.992621421813965,-4.934449672698975,126.983642578125,291.259765625,151.42822265625
6.4699999,-0.3471592366695404,-10.884040832519531,-3.375824451446533,194.51904296875,382.38525390625,91.73583984375
6.489999900000001,-1.1109095811843872,-10.826580047607422,-0.7254431247711182,211.2884521484375,364.0289306640625,77.8350830078125
6.5099999,-1.7046716213226318,-10.723628997802734,4.0078935623168945,244.6136474609375,377.8076171875,72.2808837890625
6.529999900000001,-2.0661959648132324,-10.879252433776855,9.354146003723145,289.2913818359375,328.3538818359375,-31.1431884765625
6.5499999,-2.118868589401245,-11.252747535705566,13.132196426391602,244.842529296875,121.7803955078125,-230.3009033203125
6.569999900000001,-2.1140801906585693,-12.339715957641602,16.129735946655273,222.2747802734375,95.245361328125,-284.0118408203125
6.5899999000000005,-2.6168625354766846,-11.587936401367188,16.04354476928711,233.7799072265625,110.321044921875,-341.9189453125
6.609999900000001,-3.6296098232269287,-9.806650161743164,15.116989135742188,182.0831298828125,89.111328125,-412.750244140625
6.6299999000000005,-5.114014625549316,-6.799532890319824,14.228740692138672,123.3062744140625,64.8040771484375,-421.08154296875
6.649999900000001,-6.512228488922119,-2.8179752826690674,14.501679420471191,54.19921875,0.91552734375,-409.6221923828125
6.6699999000000005,-7.453149795532227,1.6903064250946045,15.559916496276855,54.840087890625,-71.197509765625,-369.415283203125
6.6899999,-7.733271598815918,5.671864032745361,16.505626678466797,85.1898193359375,-160.369873046875,-273.2391357421875
6.709999900000001,-7.354987621307373,8.700529098510742,17.50879669189453,65.85693359375,-179.6722412109375,-189.8345947265625
6.7299999,-6.62236213684082,10.398017883300781,17.683574676513672,15.5181884765625,-225.40283203125,-142.822265625
6.749999900000001,-5.7556610107421875,10.843339920043945,17.264589309692383,-42.7398681640625,-304.8248291015625,-93.7957763671875
6.7699999,-4.891354084014893,10.76193618774414,16.270994186401367,-61.7523193359375,-328.67431640625,-41.93115234375
6.789999900000001,-4.07014274597168,10.359710693359375,14.518439292907715,-44.7540283203125,-308.9447021484375,15.6402587890625
6.8099999,-3.2585084438323975,9.797073364257812,12.38759994506836,-25.0396728515625,-289.36767578125,74.6917724609375
6.829999900000001,-2.4444799423217773,9.105149269104004,10.342951774597168,-17.76123046875,-285.6597900390625,119.7509765625
6.8499999,-1.6639702320098877,8.283937454223633,8.769960403442383,-6.072998046875,-288.5589599609375,165.496826171875
6.869999900000001,-1.0462661981582642,7.319074630737305,7.536946773529053,30.09033203125,-285.430908203125,215.6982421875
6.8899999,-0.5889736413955688,5.983109951019287,6.222530364990234,59.9212646484375,-278.594970703125,263.092041015625
6.909999900000001,-0.26575639843940735,4.1611223220825195,4.630385875701904,71.47216796875,-243.988037109375,284.4085693359375
6.9299999,0.021547814831137657,1.922544002532959,2.5546131134033203,77.1484375,-191.0247802734375,277.2216796875
6.949999900000001,0.31364041566848755,-0.3232172429561615,0.2801215946674347,84.6710205078125,-118.377685546875,271.697998046875
6.9699999,0.5339069962501526,-1.9273324012756348,-2.0446481704711914,94.4671630859375,-48.4771728515625,278.13720703125
6.989999900000001,0.5722141861915588,-3.181894063949585,-3.7828385829925537,95.9014892578125,39.9627685546875,315.5670166015625
7.0099999,0.31364041566848755,-4.067748546600342,-4.908113479614258,95.001220703125,132.7056884765625,334.5184326171875
7.029999900000001,-0.11252748221158981,-5.461174011230469,-4.711789131164551,103.6529541015625,220.1080322265625,321.1669921875
7.0499999,-0.6105214357376099,-7.603984832763672,-3.804386615753174,114.8529052734375,275.482177734375,280.8380126953125
7.069999900000001,-1.2018892765045166,-10.319009780883789,-2.1356279850006104,138.885498046875,323.1658935546875,195.465087890625
7.0899999000000005,-1.7070658206939697,-12.437877655029297,0.6823474764823914,195.9075927734375,416.9921875,66.1163330078125
7.109999900000001,-1.9297266006469727,-14.077905654907227,5.513846397399902,224.1363525390625,443.42041015625,-7.0953369140625
7.1299999000000005,-1.8986018896102905,-14.621389389038086,10.441113471984863,204.04052734375,237.9913330078125,-70.098876953125
7.149999900000001,-1.6974890232086182,-14.259865760803223,14.757859230041504,214.3096923828125,50.6134033203125,-180.999755859375
7.1699999000000005,-1.6041151285171509,-13.28063678741455,16.859968185424805,255.157470703125,97.0306396484375,-277.77099609375
7.1899999,-2.1475989818573,-11.60708999633789,15.91425895690918,226.4556884765625,109.9395751953125,-325.5462646484375
7.209999900000001,-3.162740468978882,-8.769960403442383,14.300566673278809,190.521240234375,94.4671630859375,-374.93896484375
7.2299999,-4.441244125366211,-5.2672438621521,12.892776489257812,122.7569580078125,54.74853515625,-381.103515625
7.249999900000001,-5.480327606201172,-1.5179238319396973,13.093889236450195,37.4908447265625,17.88330078125,-356.0638427734375
7.2699999,-6.069301128387451,2.185906171798706,14.578293800354004,10.2386474609375,-29.47998046875,-336.3494873046875
7.289999900000001,-6.143521785736084,5.307945251464844,16.393098831176758,36.9415283203125,-152.77099609375,-293.5333251953125
7.3099999,-5.765237808227539,7.644686222076416,18.389863967895508,23.9410400390625,-235.4736328125,-211.9598388671875
7.329999900000001,-5.161899089813232,9.641449928283691,19.44570541381836,-15.869140625,-283.2794189453125,-143.463134765625
7.3499999,-4.424484729766846,10.752359390258789,18.904617309570312,-44.586181640625,-352.4322509765625,-62.652587890625
7.369999900000001,-3.5649664402008057,10.943896293640137,17.085023880004883,-44.036865234375,-368.743896484375,25.45166015625
7.3899999,-2.626439332962036,10.20887565612793,14.319720268249512,-14.3585205078125,-315.460205078125,65.9637451171875
7.409999900000001,-1.625662922859192,8.777143478393555,11.341333389282227,2.86865234375,-284.2864990234375,91.033935546875
7.4299999,-0.6871358752250671,6.995857238769531,8.882488250732422,2.532958984375,-296.2646484375,139.95361328125
7.449999900000001,0.09816227108240128,5.367800235748291,7.15387487411499,-7.3699951171875,-311.3861083984375,185.089111328125
7.4699999,0.6488286852836609,3.8307228088378906,5.679046630859375,-2.13623046875,-297.821044921875,211.2274169921875
7.489999900000001,1.0534487962722778,2.252943754196167,4.065354347229004,22.5830078125,-256.16455078125,226.37939453125
7.5099999,1.4197616577148438,0.6560112833976746,2.274491548538208,47.6531982421875,-195.98388671875,232.635498046875
7.529999900000001,1.7621324062347412,-0.7422025203704834,0.4381389021873474,61.4776611328125,-140.9912109375,233.70361328125
7.5499999,1.9847931861877441,-1.6376339197158813,-1.3886369466781616,69.8394775390625,-97.930908203125,242.0196533203125
7.569999900000001,1.8938134908676147,-2.0877439975738525,-2.9735984802246094,82.94677734375,-29.754638671875,278.0609130859375
7.5899999000000005,1.4437036514282227,-2.387019157409668,-4.220977783203125,99.79248046875,63.41552734375,319.5037841796875
7.609999900000001,0.6871358752250671,-3.337517261505127,-5.003881454467773,111.1297607421875,154.0069580078125,343.8262939453125
7.6299999000000005,-0.3878606855869293,-4.975151062011719,-5.497087001800537,124.5269775390625,227.9510498046875,309.722900390625
7.649999900000001,-1.599326729774475,-7.079654216766357,-4.865017890930176,184.6771240234375,353.02734375,240.570068359375
7.6699999000000005,-2.849100112915039,-10.194510459899902,-2.9688100814819336,249.267578125,462.2802734375,201.7822265625
7.6899999,-3.799597978591919,-13.148955345153809,0.7948749661445618,290.4510498046875,452.545166015625,72.93701171875
7.709999900000001,-4.299986362457275,-15.581464767456055,7.1490864753723145,302.91748046875,401.7181396484375,-128.448486328125
7.7299999,-4.299986362457275,-16.922218322753906,13.046005249023438,242.523193359375,176.7120361328125,-256.53076171875
7.749999900000001,-4.134786128997803,-16.04115104675293,17.839197158813477,218.5211181640625,40.5426025390625,-308.65478515625
7.7699999,-4.048594951629639,-13.493721008300781,19.68273162841797,222.5799560546875,57.952880859375,-345.76416015625
7.789999900000001,-4.369418144226074,-10.189722061157227,19.01474952697754,150.4669189453125,56.121826171875,-370.849609375
7.8099999,-4.9152960777282715,-6.349422931671143,17.159242630004883,37.65869140625,19.3023681640625,-421.5240478515625
7.829999900000001,-5.446808815002441,-2.6431987285614014,16.304513931274414,-29.510498046875,3.662109375,-416.68701171875
7.8499999,-5.791574001312256,1.1803414821624756,16.249446868896484,19.378662109375,-67.474365234375,-356.658935546875
7.869999900000001,-5.726930618286133,4.766855716705322,16.570270538330078,26.2451171875,-200.653076171875,-282.8521728515625
7.8899999,-5.2265424728393555,7.637503623962402,16.977283477783203,-12.115478515625,-231.3385009765625,-209.197998046875
7.909999900000001,-4.393360137939453,9.952696800231934,17.01319694519043,-37.7960205078125,-221.5728759765625,-154.0985107421875
7.9299999,-3.471592426300049,11.379640579223633,16.450559616088867,-41.44287109375,-286.2091064453125,-72.540283203125
7.949999900000001,-2.542642116546631,11.769895553588867,15.361198425292969,-48.1109619140625,-373.2147216796875,38.055419921875
7.9699999,-1.0606313943862915,9.734824180603027,11.688492774963379,11.90185546875,-307.7545166015625,140.899658203125
7.989999900000001,-0.5051765441894531,7.376535415649414,8.992621421813965,35.0341796875,-323.7152099609375,182.861328125
8.0099999,-0.011971008032560349,4.707000732421875,6.289567947387695,27.4200439453125,-309.0972900390625,212.9364013671875
8.0299999,0.4381389021873474,2.0925323963165283,3.7181951999664307,32.71484375,-242.950439453125,228.546142578125
8.049999900000001,0.8619126081466675,-0.2561795711517334,1.3263877630233765,56.7779541015625,-192.3980712890625,243.71337890625
8.069999900000001,1.256955862045288,-2.0685901641845703,-0.5985504388809204,76.4007568359375,-158.4014892578125,250.518798828125
8.0899999,1.4197616577148438,-2.9879636764526367,-2.188300371170044,82.977294921875,-106.8267822265625,252.838134765625
8.1099999,1.1420341730117798,-3.098097085952759,-3.821146011352539,91.12548828125,-40.6494140625,286.92626953125
8.129999900000001,0.4381389021873474,-3.0789434909820557,-4.685452938079834,107.23876953125,86.9293212890625,358.3984375
8.149999900000001,-0.5219359993934631,-3.6535518169403076,-4.766855716705322,86.0137939453125,170.440673828125,396.728515625
8.1699999,-1.5634137392044067,-5.367800235748291,-4.3622355461120605,58.9141845703125,170.1507568359375,364.410400390625
8.1899999,-2.585737943649292,-8.635885238647461,-3.399766445159912,124.6795654296875,254.0435791015625,301.1474609375
8.2099999,-3.4979286193847656,-12.624625205993652,-1.8746598958969116,258.392333984375,404.632568359375,191.8182373046875
8.229999900000001,-4.20421838760376,-16.40985870361328,1.292868971824646,281.9976806640625,486.480712890625,36.163330078125
8.2499999,-4.616020679473877,-18.986019134521484,6.174646377563477,210.0982666015625,358.978271484375,-108.4442138671875
8.2699999,-4.6950297355651855,-19.716251373291016,11.599906921386719,115.447998046875,162.811279296875,-211.9140625
8.2899999,-4.527435302734375,-18.102558135986328,16.28536033630371,133.0413818359375,99.8077392578125,-290.252685546875
8.309999900000001,-4.323928356170654,-15.028404235839844,18.155231475830078,152.34375,69.488525390625,-336.5631103515625
8.3299999,-4.304774761199951,-11.21444034576416,17.808073043823242,143.5699462890625,36.92626953125,-350.03662109375
8.3499999,-4.345476150512695,-6.933608055114746,16.04115104675293,97.442626953125,25.4364013671875,-380.9356689453125
8.3699999,-4.244919776916504,-3.557783842086792,14.808137893676758,29.9072265625,27.1148681640625,-349.6246337890625
8.389999900000001,-4.048594951629639,-0.6488286852836609,14.516044616699219,26.2603759765625,-23.345947265625,-323.272705078125
8.4099999,-3.5913026332855225,1.9081788063049316,15.093047142028809,14.495849609375,-145.9808349609375,-346.099853515625
8.4299999,-2.8850131034851074,4.199429988861084,16.45534896850586,-40.2679443359375,-196.624755859375,-306.33544921875
8.4499999,-2.094926595687866,6.696582317352295,17.415422439575195,-46.4324951171875,-218.2464599609375,-196.2738037109375
8.469999900000001,-1.259350061416626,8.734047889709473,17.197551727294922,-34.6527099609375,-297.1343994140625,-61.3861083984375
8.4899999,-0.3926490843296051,9.500192642211914,16.060304641723633,-36.1480712890625,-326.4617919921875,35.64453125
8.5099999,0.3471592366695404,8.87051773071289,13.934253692626953,-15.106201171875,-294.189453125,62.103271484375
8.5299999,0.9409212470054626,7.129932880401611,11.12106704711914,12.908935546875,-292.1600341796875,88.5009765625
8.549999900000001,1.314416766166687,4.95120906829834,8.31985092163086,24.3377685546875,-301.7120361328125,143.585205078125
8.569999900000001,1.4628572463989258,2.8874073028564453,5.612008571624756,24.7802734375,-293.8995361328125,193.0999755859375
8.5899999,1.4460978507995605,0.8307880163192749,3.050212860107422,38.055419921875,-254.45556640625,221.1761474609375
8.6099999,1.3431471586227417,-1.0869675874710083,0.7086837291717529,66.5130615234375,-196.4111328125,225.6622314453125
8.629999900000001,1.213860273361206,-2.7222073078155518,-1.316810965538025,85.052490234375,-144.6533203125,229.4921875
8.649999900000001,0.9816226959228516,-3.663128614425659,-3.2369606494903564,91.12548828125,-101.2725830078125,249.1607666015625
8.6699999,0.6129156351089478,-4.3406877517700195,-4.874594688415527,86.4410400390625,-15.5792236328125,299.3621826171875
8.6899999,0.043095629662275314,-5.128379821777344,-6.064512729644775,77.1026611328125,110.748291015625,341.30859375
8.709999900000001,-0.7661445140838623,-6.081272125244141,-6.909666061401367,76.47705078125,191.71142578125,317.3980712890625
8.729999900000001,-1.800439715385437,-7.489062786102295,-6.478709697723389,125.732421875,295.6390380859375,286.1328125
8.7499999,-3.0765492916107178,-10.04846477508545,-5.070919036865234,205.0323486328125,393.768310546875,281.402587890625
8.7699999,-4.458003520965576,-12.593501091003418,-2.27209734916687,245.635986328125,448.4710693359375,166.1376953125
8.7899999,-5.408501625061035,-14.302961349487305,2.6024973392486572,216.4764404296875,474.3804931640625,-31.7535400390625
8.809999900000001,-5.801150798797607,-16.4625301361084,7.934384346008301,96.0845947265625,330.1544189453125,-58.6700439453125
8.8299999,-5.66228723526001,-16.838420867919922,13.589488983154297,100.40283203125,175.5828857421875,-145.4620361328125
8.8499999,-5.260061264038086,-15.964536666870117,17.408241271972656,206.72607421875,93.2769775390625,-336.5020751953125
8.8699999,-4.912901878356934,-14.61420726776123,18.681955337524414,175.8270263671875,25.238037109375,-352.4322509765625
8.889999900000001,-4.819528102874756,-12.088324546813965,18.519149780273438,121.551513671875,46.3104248046875,-316.070556640625
8.9099999,-4.726154327392578,-8.767566680908203,17.034744262695312,60.2264404296875,10.101318359375,-359.222412109375
8.9299999,-4.479551315307617,-5.729324817657471,16.225505828857422,25.787353515625,-27.28271484375,-375.3509521484375
8.9499999,-4.07014274597168,-2.583343744277954,15.921441078186035,39.3524169921875,-74.5849609375,-338.104248046875
8.969999900000001,-3.40216064453125,0.7374141216278076,16.352397918701172,24.688720703125,-146.4385986328125,-291.07666015625
8.9899999,-2.609679937362671,3.8570590019226074,16.99883270263672,-6.04248046875,-216.5069580078125,-202.5909423828125
9.0099999,-1.7621324062347412,6.287173748016357,16.83123779296875,-51.300048828125,-298.492431640625,-90.911865234375
9.0299999,-0.8786720037460327,7.5632829666137695,15.600618362426758,-70.220947265625,-320.5108642578125,-12.725830078125
9.049999900000001,-0.033518824726343155,7.50582218170166,13.28063678741455,-33.0657958984375,-285.9039306640625,26.0467529296875
9.069999900000001,0.7637503147125244,6.2201361656188965,10.529699325561523,11.749267578125,-266.204833984375,68.4967041015625
9.0899999,1.381454348564148,4.206612586975098,7.850587368011475,14.495849609375,-279.8614501953125,118.621826171875
9.1099999,1.7860745191574097,2.056619167327881,5.57370138168335,-10.772705078125,-283.355712890625,140.5487060546875
9.129999900000001,1.9800047874450684,-0.002394201699644327,3.641580820083618,-5.1422119140625,-253.47900390625,156.0821533203125
9.149999900000001,1.9608511924743652,-1.5466543436050415,2.0254945755004883,10.9100341796875,-222.259521484375,177.06298828125
9.1699999,1.7884687185287476,-2.5713725090026855,0.49559974670410156,19.6075439453125,-216.278076171875,209.6405029296875
9.1899999,1.3718775510787964,-3.0526070594787598,-1.1492167711257935,34.8663330078125,-185.302734375,243.682861328125
9.209999900000001,0.6655880808830261,-3.184288263320923,-3.3231520652770996,50.84228515625,-103.5308837890625,278.900146484375
9.229999900000001,-0.31603461503982544,-3.5194764137268066,-5.2672438621521,99.18212890625,40.1153564453125,335.052490234375
9.2499999,-1.3958195447921753,-4.201824188232422,-6.325480937957764,146.5911865234375,162.3077392578125,366.5924072265625
9.2699999,-2.473210334777832,-6.0621185302734375,-6.124367713928223,155.364990234375,197.81494140625,364.410400390625
9.2899999,-3.4596214294433594,-9.107542991638184,-5.0254292488098145,179.2144775390625,233.428955078125,316.6351318359375
9.309999900000001,-4.2951979637146,-12.722787857055664,-2.832340717315674,250.213623046875,360.90087890625,178.3905029296875
9.3299999,-4.778826713562012,-15.830461502075195,0.3663128614425659,252.4261474609375,443.145751953125,28.1524658203125
9.3499999,-4.955997467041016,-18.52393913269043,4.742913722991943,144.0887451171875,371.7193603515625,-32.9742431640625
9.3699999,-4.790797710418701,-19.56781005859375,10.019734382629395,85.9375,225.09765625,-149.139404296875
9.389999900000001,-4.448426723480225,-18.693927764892578,14.556746482849121,103.363037109375,119.3695068359375,-316.1468505859375
9.4099999,-4.079719543457031,-16.567874908447266,16.903064727783203,103.94287109375,37.8875732421875,-334.3505859375
9.4299999,-3.8498764038085938,-13.606247901916504,17.17839813232422,106.2774658203125,27.34375,-288.6505126953125
9.4499999,-3.7828385829925537,-10.11789608001709,15.567099571228027,66.680908203125,19.5770263671875,-351.8829345703125
9.469999900000001,-3.6343982219696045,-7.280767440795898,13.833697319030762,-12.3443603515625,15.625,-413.360595703125
9.4899999,-2.849100112915039,-1.723825216293335,13.079524040222168,55.877685546875,-62.5,-309.5855712890625
9.5099999,-1.900996208190918,0.9289502501487732,14.267047882080078,44.6624755859375,-143.98193359375,-229.1412353515625
9.5299999,-0.8164227604866028,2.96162748336792,15.27979564666748,42.327880859375,-214.7369384765625,-148.1781005859375
9.549999900000001,0.2944868206977844,4.158728122711182,15.433024406433105,7.354736328125,-272.4609375,-102.05078125
9.569999900000001,1.2545616626739502,4.335899353027344,14.353239059448242,-10.31494140625,-286.07177734375,-51.116943359375
9.5899999,2.054224967956543,3.7684733867645264,12.351686477661133,6.16455078125,-269.500732421875,1.434326171875
9.6099999,2.6886885166168213,2.5785553455352783,9.923966407775879,37.445068359375,-258.392333984375,40.2679443359375
9.629999900000001,3.141192674636841,1.2258312702178955,7.60637903213501,42.724609375,-266.17431640625,59.539794921875
9.649999900000001,3.423708438873291,0.016759412363171577,5.793968200683594,45.3338623046875,-262.9852294921875,79.04052734375
9.6699999,3.4356794357299805,-0.9457096457481384,4.225766181945801,51.57470703125,-258.514404296875,128.6163330078125
9.6899999,3.2585084438323975,-1.4676456451416016,2.8107926845550537,39.3829345703125,-250.30517578125,169.189453125
9.709999900000001,2.8874073028564453,-1.946485996246338,1.41257905960083,48.7823486328125,-214.17236328125,198.455810546875
9.729999900000001,2.38462495803833,-2.3726539611816406,-0.11013327538967133,75.439453125,-171.4324951171875,218.3990478515625
9.7499999,1.7477672100067139,-2.8610711097717285,-1.7118542194366455,96.0235595703125,-121.9329833984375,242.156982421875
9.7699999,1.0295066833496094,-3.2776620388031006,-3.5697548389434814,94.8638916015625,-66.925048828125,272.0184326171875
9.7899999,0.2992752194404602,-4.266467571258545,-4.69024133682251,98.7091064453125,43.243408203125,325.2105712890625
9.809999900000001,-0.4429273009300232,-5.341464042663574,-5.537788391113281,102.386474609375,110.6719970703125,329.1473388671875
9.8299999,-1.0079588890075684,-7.158663272857666,-4.776432514190674,128.753662109375,168.9910888671875,299.2095947265625
9.8499999,-1.482010841369629,-9.466673851013184,-3.2968156337738037,139.3585205078125,212.8753662109375,280.70068359375
9.8699999,-1.8698714971542358,-11.839327812194824,-0.9959878921508789,167.3583984375,242.8741455078125,224.0753173828125
9.889999900000001,-2.2888567447662354,-13.637372970581055,1.4245500564575195,221.86279296875,301.4373779296875,129.3487548828125
9.9099999,-2.7102363109588623,-15.30373764038086,3.7421371936798096,249.481201171875,320.7550048828125,79.7271728515625
9.9299999,-3.1052796840667725,-16.429012298583984,5.990292549133301,239.898681640625,336.7919921875,9.552001953125
9.9499999,-3.469198226928711,-17.391481399536133,8.65743350982666,210.9527587890625,327.69775390625,-132.110595703125
9.969999900000001,-3.732560396194458,-17.310077667236328,11.171344757080078,134.2010498046875,215.4693603515625,-289.5050048828125
9.9899999,-3.952826976776123,-16.3883113861084,13.781024932861328,76.171875,105.316162109375,-342.59033203125
10.0099999,-4.242525577545166,-13.929465293884277,15.629348754882812,101.1199951171875,44.891357421875,-354.5379638671875
10.0299999,-4.5154643058776855,-10.596736907958984,16.306907653808594,111.1297607421875,-16.571044921875,-400.1617431640625
10.049999900000001,-4.5825018882751465,-7.206547260284424,16.263813018798828,63.3697509765625,-39.520263671875,-410.736083984375
10.069999900000001,-4.352658748626709,-3.9815573692321777,16.203956604003906,30.670166015625,-47.0733642578125,-384.429931640625
10.0899999,-3.6942532062530518,-0.9552865028381348,16.302120208740234,11.7340087890625,-130.1727294921875,-353.1494140625
10.1099999,-2.75812029838562,1.7190368175506592,16.53435707092285,-29.5867919921875,-233.4747314453125,-305.0537109375
10.129999900000001,-1.6304513216018677,3.9671921730041504,16.203956604003906,-43.39599609375,-279.632568359375,-216.0491943359375
10.149999900000001,-0.545877993106842,5.7125654220581055,15.10262393951416,-10.5743408203125,-277.069091796875,-121.124267578125
10.1699999,0.43095630407333374,6.497863292694092,13.113042831420898,24.1851806640625,-293.5791015625,-37.4755859375
10.1899999,1.3024457693099976,6.098031520843506,10.63743782043457,27.6947021484375,-322.967529296875,32.5469970703125
10.209999900000001,1.9752163887023926,4.759673118591309,8.20492935180664,32.65380859375,-295.7611083984375,69.732666015625
10.229999900000001,2.449268341064453,2.7988216876983643,5.494692802429199,51.8341064453125,-274.2462158203125,99.395751953125
10.2499999,2.7676970958709717,0.8140285611152649,3.047818660736084,63.262939453125,-246.0479736328125,133.36181640625
10.2699999,2.8658595085144043,-0.8068459630012512,0.9457096457481384,71.6552734375,-200.469970703125,164.8712158203125
10.2899999,2.760514497756958,-1.9273324012756348,-0.828393816947937,64.0716552734375,-171.905517578125,201.507568359375
10.309999900000001,2.4468741416931152,-2.717418909072876,-2.1284453868865967,62.042236328125,-128.2501220703125,243.34716796875
10.3299999,1.8579005002975464,-3.201047658920288,-3.397372245788574,66.314697265625,-79.2999267578125,272.247314453125
10.3499999,1.2282254695892334,-4.0078935623168945,-4.307168960571289,67.413330078125,-11.90185546875,303.2073974609375
10.3699999,0.5674257874488831,-5.5976433753967285,-4.752490520477295,57.55615234375,67.352294921875,336.9140625
10.389999900000001,0.11013327538967133,-7.94635534286499,-5.0469770431518555,73.2879638671875,86.5478515625,288.4979248046875
10.4099999,-0.004788403399288654,-11.274295806884766,-4.28322696685791,119.2474365234375,167.0989990234375,203.9642333984375
10.4299999,0.08140286058187485,-15.00925064086914,-3.7493197917938232,145.7061767578125,216.583251953125,104.5074462890625
10.4499999,0.1364694982767105,-18.567033767700195,-2.3511061668395996,176.8951416015625,281.67724609375,-23.345947265625
10.469999900000001,-0.15083470940589905,-20.17354393005371,-0.5219359993934631,218.7347412109375,340.51513671875,-201.4007568359375
10.4899999,-0.7134721279144287,-19.529502868652344,2.056619167327881,240.936279296875,324.0814208984375,-306.060791015625
10.5099999,-1.3838485479354858,-16.59660530090332,5.523423194885254,227.1728515625,292.96875,-299.2401123046875
10.5299999,-1.946485996246338,-12.588712692260742,8.767566680908203,176.239013671875,213.9129638671875,-306.5032958984375
10.549999900000001,-2.360682964324951,-8.456320762634277,11.154585838317871,106.3079833984375,145.5535888671875,-370.941162109375
10.569999900000001,-2.5330653190612793,-4.422090530395508,12.797008514404297,68.1915283203125,164.4744873046875,-409.4390869140625
10.5899999,-2.432508945465088,-0.06703764945268631,14.314931869506836,37.567138671875,179.13818359375,-338.5772705078125
10.6099999,-1.9488801956176758,4.55616569519043,15.526397705078125,23.681640625,55.1910400390625,-192.5048828125
10.629999900000001,-1.072602391242981,8.142680168151855,16.393098831176758,39.61181640625,-66.10107421875,-60.516357421875
10.649999900000001,-0.13168109953403473,10.1753568649292,16.158466339111328,74.8443603515625,-45.7611083984375,-9.552001953125
10.6699999,0.5578489899635315,9.876082420349121,13.836091995239258,94.42138671875,-21.820068359375,28.1982421875
10.6899999,0.7948749661445618,8.17380428314209,10.113107681274414,108.2000732421875,23.6358642578125,63.0950927734375
10.709999900000001,0.7398083209991455,5.743690013885498,6.512228488922119,119.354248046875,119.9188232421875,73.1964111328125
10.729999900000001,0.5889736413955688,2.7293899059295654,4.479551315307617,145.2178955078125,202.33154296875,86.2579345703125
10.7499999,0.5027823448181152,0.304063618183136,4.175487995147705,154.60205078125,168.4112548828125,46.142578125
10.7699999,0.6416460275650024,-1.6831238269805908,6.63433313369751,138.0462646484375,141.7236328125,25.5584716796875
10.7899999,0.8595184087753296,-2.4229321479797363,10.737994194030762,108.642578125,118.1640625,28.86962890625
10.809999900000001,1.0438719987869263,-2.52109432220459,15.95017147064209,65.2923583984375,33.477783203125,42.66357421875
10.8299999,1.0749965906143188,-1.8100165128707886,21.775264739990234,45.4864501953125,-76.4007568359375,33.69140625
10.8499999,0.7038952708244324,-0.730231523513794,26.73126220703125,5.035400390625,-234.19189453125,15.07568359375
10.8699999,-0.1149216815829277,0.35913026332855225,29.027301788330078,-57.9681396484375,-391.5252685546875,44.097900390625
10.889999900000001,-1.2449848651885986,1.1013327836990356,27.875690460205078,-114.3951416015625,-453.1402587890625,70.281982421875
10.9099999,-2.4133553504943848,1.4724340438842773,22.78801155090332,-143.85986328125,-454.3914794921875,43.51806640625
10.9299999,-3.2154128551483154,1.0654197931289673,15.193603515625,-144.256591796875,-400.787353515625,14.9993896484375
10.9499999,-3.490746021270752,0.6320692300796509,5.863399982452393,-131.34765625,-353.7139892578125,8.697509765625
10.969999900000001,-3.1100680828094482,0.07661445438861847,-3.1962592601776123,-125.5645751953125,-234.771728515625,21.026611328125
10.9899999,-2.3989901542663574,-0.21547815203666687,-10.560823440551758,-82.51953125,-34.97314453125,21.7132568359375
11.0099999,-1.6496049165725708,-0.011971008032560349,-16.002843856811523,-42.3736572265625,68.66455078125,-7.171630859375
11.0299999,-1.778891921043396,1.4269442558288574,-19.038692474365234,-0.732421875,326.446533203125,88.0889892578125
11.049999900000001,-3.2178070545196533,1.5418659448623657,-16.40506935119629,88.0126953125,499.9847412109375,125.1373291015625
11.069999900000001,-4.975151062011719,1.5442601442337036,-9.074024200439453,177.7191162109375,499.9847412109375,74.21875
11.0899999,-6.256049156188965,0.9864110946655273,3.1531636714935303,113.7542724609375,499.9847412109375,54.718017578125
11.1099999,-6.1267619132995605,-0.002394201699644327,15.854403495788574,-64.39208984375,169.7235107421875,116.2872314453125
11.129999900000001,-4.970362663269043,-0.49799394607543945,26.92519187927246,-93.4906005859375,14.8468017578125,90.27099609375
11.149999900000001,-2.8826189041137695,-2.3056161403656006,33.24109649658203,63.4918212890625,119.781494140625,70.7855224609375
11.1699999,-1.1444283723831177,-3.8762125968933105,34.701560974121094,99.5941162109375,48.1719970703125,25.604248046875
11.1899999,-0.15322890877723694,-5.353435039520264,33.76063919067383,-49.346923828125,-120.8953857421875,-24.7955322265625
11.209999900000001,0.12210428714752197,-5.719748020172119,31.47657012939453,-140.106201171875,-210.7391357421875,-45.9442138671875
11.229999900000001,-0.2106897532939911,-5.178658485412598,27.925968170166016,-122.9095458984375,-250.9002685546875,-44.6929931640625
11.2499999,-0.7613561153411865,-4.347870349884033,23.551761627197266,-80.1239013671875,-303.253173828125,-38.4674072265625
11.2699999,-1.3479355573654175,-3.6535518169403076,18.854337692260742,-51.94091796875,-357.0404052734375,-64.1021728515625
11.2899999,-1.8363527059555054,-3.201047658920288,13.982137680053711,-56.7779541015625,-394.378662109375,-112.4420166015625
11.309999900000001,-2.2433669567108154,-2.6240451335906982,9.062053680419922,-85.6781005859375,-388.7786865234375,-121.5057373046875
11.3299999,-2.5043349266052246,-1.3982137441635132,3.758896589279175,-121.826171875,-385.43701171875,-103.515625
11.3499999,-2.4444799423217773,0.30885201692581177,-1.8818424940109253,-147.491455078125,-340.576171875,-72.662353515625
11.3699999,-2.140416383743286,2.1092917919158936,-7.565677165985107,-120.7122802734375,-188.995361328125,-43.45703125
11.389999900000001,-1.8171991109848022,3.9001545906066895,-13.397953033447266,-74.5849609375,-30.914306640625,-24.5361328125
11.4099999,-1.86508309841156,5.310339450836182,-18.069040298461914,-57.0220947265625,156.402587890625,30.70068359375
11.4299999,-2.7748796939849854,5.916072368621826,-20.36029052734375,-8.758544921875,386.65771484375,128.662109375
11.4499999,-4.867412090301514,5.992686748504639,-19.704280853271484,97.8240966796875,499.9847412109375,162.53662109375
11.469999900000001,-7.608773231506348,5.34625244140625,-13.55118179321289,182.18994140625,499.9847412109375,175.1708984375
11.4899999,-10.074800491333008,3.579331636428833,-1.3072341680526733,267.7001953125,499.9847412109375,232.2540283203125
11.5099999,-11.307814598083496,0.9097966551780701,14.132972717285156,284.4390869140625,463.592529296875,210.8154296875
11.5299999,-10.773907661437988,-2.87064790725708,29.5947265625,152.34375,61.737060546875,113.128662109375
11.549999900000001,-8.743624687194824,-6.2632317543029785,41.21857833862305,-22.0947265625,-32.1197509765625,-7.3699951171875
11.569999900000001,-6.1530985832214355,-8.631096839904785,45.58799362182617,-39.97802734375,-118.438720703125,-50.689697265625
11.5899999,-3.885789394378662,-8.583212852478027,44.026973724365234,-13.5650634765625,-223.8922119140625,-46.478271484375
11.6099999,-2.4803929328918457,-6.854599475860596,38.149208068847656,-58.0596923828125,-309.051513671875,-37.53662109375
11.629999900000001,-1.9800047874450684,-4.347870349884033,29.927520751953125,-91.8121337890625,-353.7139892578125,-30.5328369140625
11.649999900000001,-2.1332337856292725,-2.1308395862579346,21.126436233520508,-100.311279296875,-368.2861328125,-31.402587890625
11.6699999,-2.477998733520508,-0.7589619159698486,12.88559341430664,-97.1832275390625,-370.849609375,-39.12353515625
11.6899999,-2.6647465229034424,-0.23702596127986908,5.750872611999512,-91.6595458984375,-350.738525390625,-63.812255859375
11.709999900000001,-2.5258827209472656,0.08379705995321274,-0.5315127968788147,-103.6224365234375,-327.08740234375,-101.74560546875
11.729999900000001,-2.0638017654418945,0.8020575642585754,-6.210559368133545,-132.2784423828125,-252.0599365234375,-104.55322265625
11.7499999,-1.4389152526855469,2.2697031497955322,-11.439496040344238,-128.0059814453125,-122.894287109375,-50.506591796875
11.7699999,-0.993593692779541,4.022258758544922,-16.031574249267578,-69.854736328125,47.79052734375,25.5126953125
11.7899999,-0.9409212470054626,5.2265424728393555,-18.667591094970703,-8.7432861328125,244.5068359375,79.65087890625
11.809999900000001,-1.5753847360610962,5.4444146156311035,-18.52393913269043,46.93603515625,404.083251953125,95.88623046875
11.8299999,-2.8443117141723633,4.532223701477051,-14.951789855957031,83.953857421875,469.7265625,107.7880859375
11.8499999,-4.182670593261719,2.612074136734009,-6.71334171295166,116.2567138671875,499.9847412109375,141.632080078125
11.8699999,-5.16429328918457,-0.22505496442317963,4.6040496826171875,124.45068359375,485.9161376953125,143.4478759765625
11.889999900000001,-5.343858242034912,-3.550601005554199,16.64688491821289,74.8291015625,227.081298828125,79.2083740234375
11.9099999,-4.680664539337158,-6.655880928039551,28.524518966674805,66.6656494140625,120.452880859375,10.467529296875
11.9299999,-3.490746021270752,-8.47786808013916,36.75099563598633,12.5579833984375,18.4173583984375,-23.13232421875
11.9499999,-2.360682964324951,-9.251194953918457,40.81874465942383,-17.0135498046875,-154.571533203125,-0.7476806640625
11.969999900000001,-1.644816517829895,-8.858546257019043,40.6655158996582,-33.203125,-261.8560791015625,-16.448974609375
11.9899999,-1.5298948287963867,-8.01339340209961,36.81563949584961,-89.9200439453125,-318.66455078125,-68.450927734375
12.0099999,-1.987187385559082,-6.878541469573975,30.413543701171875,-135.345458984375,-365.72265625,-91.5069580078125
12.0299999,-2.7557260990142822,-5.331887245178223,22.931663513183594,-125.9918212890625,-417.999267578125,-86.700439453125
12.049999900000001,-3.5913026332855225,-3.5027170181274414,14.772224426269531,-108.4136962890625,-442.2149658203125,-82.794189453125
12.069999900000001,-4.108449935913086,-1.482010841369629,5.837063789367676,-138.36669921875,-416.473388671875,-97.10693359375
12.0899999,-4.280832767486572,0.47405192255973816,-3.6080620288848877,-135.3912353515625,-280.94482421875,-100.830078125
12.1099999,-3.9600095748901367,3.0573954582214355,-12.792220115661621,-60.05859375,-84.7015380859375,-99.4720458984375
12.129999900000001,-3.339911460876465,5.817910194396973,-20.05143928527832,18.37158203125,98.663330078125,-45.196533203125
12.149999900000001,-2.80361008644104,8.465897560119629,-23.946805953979492,76.3702392578125,244.7662353515625,45.4254150390625
12.1699999,-2.6839001178741455,10.065223693847656,-23.769634246826172,83.6029052734375,338.2110595703125,112.24365234375
12.1899999,-3.423708438873291,9.691728591918945,-20.025102615356445,79.864501953125,400.32958984375,161.5142822265625
12.209999900000001,-4.795586109161377,7.196970462799072,-12.598289489746094,105.255126953125,488.0218505859375,185.150146484375
12.229999900000001,-6.323086738586426,3.3686418533325195,-1.2401964664459229,146.240234375,499.9847412109375,166.9921875
12.2499999,-7.350199222564697,-1.3718775510787964,12.097901344299316,77.6214599609375,412.3077392578125,135.3912353515625
12.2699999,-7.2783732414245605,-5.870582580566406,26.020183563232422,41.93115234375,138.9617919921875,101.37939453125
12.289999900000002,-6.076483726501465,-9.299078941345215,37.43334197998047,18.4478759765625,18.7835693359375,29.6478271484375
12.309999900000001,-4.311957359313965,-11.705251693725586,43.224918365478516,-31.4178466796875,-110.4888916015625,1.7852783203125
12.3299999,-2.5905263423919678,-12.373234748840332,43.107601165771484,-42.0074462890625,-207.45849609375,-29.3426513671875
12.3499999,-1.436521053314209,-11.84650993347168,37.924156188964844,-64.727783203125,-252.838134765625,-54.0618896484375
12.3699999,-0.9720458984375,-10.072406768798828,30.01131820678711,-58.929443359375,-239.013671875,-80.74951171875
12.389999900000001,-1.0821791887283325,-7.7763671875,21.473594665527344,-36.62109375,-252.7008056640625,-86.8988037109375
12.4099999,-1.45806884765625,-5.130774021148682,13.412318229675293,-34.1033935546875,-314.056396484375,-80.8563232421875
12.4299999,-1.625662922859192,-2.691082715988159,6.232107162475586,-73.974609375,-311.004638671875,-75.7598876953125
12.4499999,-1.5059528350830078,-0.6320692300796509,-0.1364694982767105,-82.6873779296875,-205.810546875,-69.091796875
12.469999900000001,-1.0558429956436157,1.4532804489135742,-6.435614109039307,-59.14306640625,-152.435302734375,-86.7462158203125
12.4899999,-0.35434186458587646,3.5458126068115234,-12.078747749328613,-26.4434814453125,-75.3021240234375,-68.450927734375
12.5099999,0.14604631066322327,5.310339450836182,-16.27338981628418,34.5458984375,109.0545654296875,14.6942138671875
12.5299999,0.26575639843940735,6.387730121612549,-18.53112030029297,61.2335205078125,246.002197265625,69.8699951171875
12.549999900000001,-0.3280056416988373,6.282385349273682,-18.04988670349121,37.8875732421875,300.140380859375,77.117919921875
12.569999900000001,-3.4189200401306152,2.0207061767578125,-5.0469770431518555,123.9013671875,499.9847412109375,114.4256591796875
12.5899999,-4.884171485900879,-1.6304513216018677,7.714118003845215,109.588623046875,442.657470703125,107.0404052734375
12.6099999,-5.51624059677124,-4.572925090789795,22.510284423828125,12.0697021484375,168.060302734375,23.773193359375
12.629999900000001,-4.960785865783691,-7.33583402633667,36.044708251953125,-33.7371826171875,-53.2684326171875,-1.434326171875
12.649999900000001,-3.756502389907837,-9.057265281677246,44.34300994873047,-41.961669921875,-190.185546875,14.7705078125
12.6699999,-2.6024973392486572,-9.792284965515137,45.798683166503906,-45.8984375,-285.6597900390625,-38.909912109375
12.6899999,-1.9967641830444336,-9.758766174316406,41.0246467590332,-74.951171875,-355.28564453125,-91.461181640625
12.709999900000001,-2.1523873805999756,-8.56645393371582,31.988929748535156,-90.8660888671875,-400.726318359375,-118.4234619140625
12.729999900000001,-2.738966703414917,-6.356605529785156,20.83913230895996,-91.4459228515625,-397.9339599609375,-109.710693359375
12.7499999,-3.2297780513763428,-3.9624037742614746,9.57441234588623,-79.376220703125,-338.92822265625,-83.1146240234375
12.7699999,-3.270479440689087,-2.4803929328918457,-0.3423708379268646,-50.323486328125,-239.0289306640625,-84.4573974609375
12.789999900000002,-2.8419175148010254,-1.1755530834197998,-7.836222171783447,-16.4031982421875,-156.829833984375,-159.4696044921875
12.809999900000001,-2.3080103397369385,0.4884171485900879,-13.843274116516113,-31.9061279296875,-146.8505859375,-204.8797607421875
12.8299999,-1.7477672100067139,3.162740468978882,-18.45929527282715,-126.46484375,-74.2034912109375,-111.0076904296875
12.8499999,-1.7932571172714233,6.023811340332031,-21.14798355102539,-21.8963623046875,220.9930419921875,67.7642822265625
12.8699999,-2.43011474609375,8.688557624816895,-21.909339904785156,109.8175048828125,418.212890625,100.4486083984375
12.889999900000001,-3.9815573692321777,9.59596061706543,-18.437747955322266,171.9207763671875,499.9847412109375,126.9683837890625
12.9099999,-5.892130374908447,7.620744228363037,-9.074024200439453,155.029296875,499.9847412109375,249.4354248046875
12.9299999,-7.42681360244751,3.428496837615967,5.729324817657471,112.4114990234375,499.9847412109375,271.42333984375
12.9499999,-7.876923561096191,-1.1827356815338135,21.26290512084961,-29.2510986328125,174.774169921875,57.6019287109375
12.969999900000001,-6.962338447570801,-6.327875137329102,34.78056716918945,-69.854736328125,-81.7413330078125,10.8184814453125
12.9899999,-5.0469770431518555,-9.253589630126953,42.506656646728516,8.453369140625,-47.8668212890625,45.10498046875
13.0099999,-3.002328872680664,-9.828198432922363,43.07647705078125,-34.97314453125,-145.7672119140625,-30.1666259765625
13.0299999,-1.3742717504501343,-9.232041358947754,39.51869201660156,-82.3974609375,-257.598876953125,-55.0537109375
13.049999900000001,-0.48602294921875,-7.5632829666137695,33.162086486816406,-83.038330078125,-341.7816162109375,-56.57958984375
13.069999900000001,-0.42616790533065796,-5.47075080871582,25.198972702026367,-64.300537109375,-390.3656005859375,-71.10595703125
13.0899999,-0.9385270476341248,-3.641580820083618,16.136919021606445,-71.441650390625,-404.754638671875,-80.62744140625
13.1099999,-1.5442601442337036,-2.166752576828003,7.113173484802246,-97.8546142578125,-341.8121337890625,-77.2247314453125
13.129999900000001,-1.9369091987609863,-0.8523358106613159,-1.1013327836990356,-111.3128662109375,-245.4681396484375,-75.3021240234375
13.149999900000001,-2.0207061767578125,0.5554547905921936,-8.38449478149414,-103.668212890625,-207.733154296875,-79.04052734375
13.1699999,-1.8794482946395874,2.4803929328918457,-14.803349494934082,-103.790283203125,-151.3214111328125,-65.032958984375
13.1899999,-1.8124107122421265,4.24970817565918,-19.409793853759766,-24.90234375,83.9080810546875,13.7786865234375
13.209999900000001,-1.9800047874450684,5.748478412628174,-21.86863899230957,87.9669189453125,316.4825439453125,84.320068359375
13.229999900000001,-2.5905263423919678,5.894524574279785,-21.01630210876465,122.3602294921875,410.4461669921875,113.8763427734375
13.2499999,-3.5027170181274414,4.795586109161377,-14.848838806152344,135.833740234375,499.9847412109375,144.989013671875
13.2699999,-4.412513732910156,2.693476915359497,-3.5051112174987793,118.1793212890625,499.9847412109375,157.6080322265625
13.289999900000002,-4.920084476470947,-1.1037269830703735,10.958261489868164,64.0411376953125,382.7056884765625,182.2509765625
13.309999900000001,-4.630385875701904,-5.458779811859131,25.661054611206055,90.6524658203125,103.4088134765625,121.4447021484375
13.3299999,-3.4093432426452637,-8.710105895996094,37.31842041015625,9.613037109375,-20.69091796875,-51.4678955078125
13.3499999,-1.8100165128707886,-11.013327598571777,42.135555267333984,-82.21435546875,-164.00146484375,-54.9774169921875
13.3699999,-0.24420857429504395,-10.613495826721191,40.89775466918945,-80.078125,-233.0474853515625,-23.681640625
13.389999900000001,0.8834604024887085,-8.880094528198242,34.823665618896484,-60.394287109375,-227.294921875,-31.890869140625
13.4099999,1.3096283674240112,-6.957550048828125,26.71929168701172,-47.088623046875,-207.0465087890625,-43.9300537109375
13.4299999,1.139639973640442,-5.281609058380127,18.511966705322266,-43.8995361328125,-242.3858642578125,-56.4727783203125
13.4499999,0.5937620401382446,-3.8977603912353516,11.295844078063965,-44.403076171875,-285.858154296875,-63.720703125
13.469999900000001,-0.17956513166427612,-2.5091233253479004,4.8267107009887695,-54.8248291015625,-270.7061767578125,-66.9708251953125
13.4899999,-0.8930372595787048,-1.039083480834961,-1.7860745191574097,-89.2791748046875,-247.1160888671875,-65.9332275390625
13.5099999,-1.4053963422775269,0.5889736413955688,-8.307879447937012,-84.1064453125,-134.9029541015625,-51.8951416015625
13.5299999,-1.6280571222305298,2.564189910888672,-14.176068305969238,-13.3209228515625,34.9578857421875,-35.15625
13.549999900000001,-1.680729627609253,4.146757125854492,-18.22226905822754,46.2493896484375,175.7659912109375,21.9573974609375
13.569999900000001,-1.8626888990402222,5.327098846435547,-19.433734893798828,70.556640625,280.426025390625,75.1190185546875
13.5899999,-2.3989901542663574,4.671087741851807,-16.656461715698242,104.8583984375,395.69091796875,120.2850341796875
13.6099999,-3.0550012588500977,3.0765492916107178,-8.889671325683594,138.7939453125,499.9847412109375,109.6343994140625
13.629999900000001,-3.5936968326568604,0.11252748221158981,3.5960910320281982,87.70751953125,471.6339111328125,89.7369384765625
13.649999900000001,-3.5386300086975098,-4.031835556030273,17.92778205871582,22.7203369140625,184.600830078125,114.3798828125
13.6699999,-2.612074136734009,-6.861782073974609,31.340099334716797,-7.8887939453125,-21.636962890625,9.3536376953125
13.6899999,-1.161187767982483,-9.141061782836914,38.92253875732422,-57.6171875,-144.1650390625,-42.29736328125
13.709999900000001,0.4405331015586853,-9.694122314453125,40.13639831542969,-40.6036376953125,-179.13818359375,-8.7890625
13.729999900000001,1.7262194156646729,-8.959102630615234,36.176387786865234,-34.8052978515625,-161.102294921875,-7.8277587890625
13.7499999,2.3367409706115723,-7.714118003845215,29.57796859741211,-54.87060546875,-195.098876953125,-42.1905517578125
13.7699999,2.1547815799713135,-6.624756336212158,22.464794158935547,-76.66015625,-261.0931396484375,-56.365966796875
13.789999900000002,1.4053963422775269,-5.56173038482666,15.524003982543945,-87.7685546875,-306.4422607421875,-62.3931884765625
13.809999900000001,0.3711012601852417,-4.438849925994873,9.102754592895508,-65.185546875,-253.814697265625,-77.178955078125
13.8299999,-0.608127236366272,-3.399766445159912,2.9759926795959473,-27.923583984375,-205.0018310546875,-88.4857177734375
13.8499999,-1.3718775510787964,-2.6862943172454834,-2.8586769104003906,-4.4097900390625,-200.0274658203125,-91.9647216796875
13.8699999,-1.9776105880737305,-1.3766659498214722,-8.650250434875488,-17.333984375,-137.7105712890625,-138.671875
13.889999900000001,-2.3056161403656006,0.4141969084739685,-13.697227478027344,-35.186767578125,24.4293212890625,-136.77978515625
13.9099999,-2.494758129119873,2.75812029838562,-16.962919235229492,32.71484375,217.4835205078125,-36.0260009765625
13.9299999,-2.4827871322631836,5.327098846435547,-17.764976501464844,70.037841796875,276.4434814453125,35.1409912109375
13.9499999,-2.4875755310058594,6.380547523498535,-14.899117469787598,64.056396484375,320.068359375,94.54345703125
13.969999900000001,-2.537853717803955,5.501875400543213,-8.487444877624512,46.9207763671875,405.487060546875,134.46044921875
13.9899999,-2.451662540435791,3.24414324760437,1.4700398445129395,12.115478515625,447.5250244140625,123.0621337890625
14.0099999,-2.185906171798706,-1.4437036514282227,12.945448875427246,13.85498046875,288.818359375,156.6314697265625
14.0299999,-1.3503297567367554,-6.339846134185791,24.782381057739258,85.6170654296875,113.6627197265625,112.335205078125
14.049999900000001,-0.10055647045373917,-9.737217903137207,34.232295989990234,20.8282470703125,26.18408203125,-70.25146484375
14.069999900000001,1.1779472827911377,-11.824962615966797,38.40060043334961,-63.4002685546875,-148.8189697265625,-62.43896484375
14.0899999,2.276885747909546,-11.08754825592041,37.91218566894531,-68.267822265625,-211.12060546875,-5.8441162109375
14.1099999,2.8826189041137695,-6.8162922859191895,26.029760360717773,-56.1981201171875,-189.8193359375,-47.8057861328125
14.129999900000001,2.38462495803833,-5.193023681640625,18.847156524658203,-46.8292236328125,-218.32275390625,-50.29296875
14.149999900000001,1.522712230682373,-4.02465295791626,12.598289489746094,-32.7301025390625,-247.37548828125,-57.647705078125
14.1699999,0.48602294921875,-3.2537200450897217,7.225700855255127,-25.7568359375,-248.10791015625,-72.8912353515625
14.1899999,-0.5363011956214905,-2.96162748336792,2.3965959548950195,-17.0135498046875,-213.043212890625,-78.6285400390625
14.209999900000001,-1.357512354850769,-2.58813214302063,-2.3319525718688965,-15.8843994140625,-165.8782958984375,-104.644775390625
14.229999900000001,-1.8698714971542358,-1.3335703611373901,-6.691793918609619,-7.843017578125,-72.0367431640625,-141.448974609375
14.2499999,-1.9823989868164062,0.9313444495201111,-10.623072624206543,11.3983154296875,26.9317626953125,-99.0447998046875
14.2699999,-1.7764976024627686,3.4787750244140625,-13.115436553955078,43.7164306640625,131.3629150390625,18.218994140625
14.289999900000002,-1.3311761617660522,5.525817394256592,-13.831303596496582,49.6826171875,219.4976806640625,72.998046875
14.309999900000001,-0.9433154463768005,5.791574001312256,-12.33253288269043,19.3634033203125,269.47021484375,76.4007568359375
14.3299999,-0.8236053586006165,4.19224739074707,-8.51138687133789,-1.1138916015625,326.3397216796875,96.5423583984375
14.3499999,-0.9672574996948242,1.699883222579956,-1.9177556037902832,16.41845703125,401.55029296875,118.8812255859375
14.3699999,-1.2042834758758545,-1.2617442607879639,7.474697589874268,66.2078857421875,423.4619140625,134.521484375
14.389999900000001,-1.2737152576446533,-5.0900726318359375,18.47126579284668,99.5941162109375,272.88818359375,137.20703125
14.4099999,-0.9050082564353943,-7.690176010131836,29.35770034790039,48.9044189453125,51.8951416015625,14.6484375
14.4299999,-0.21547815203666687,-9.421183586120605,36.52593994140625,-84.77783203125,-134.9639892578125,-61.0504150390625
14.4499999,0.5770025849342346,-9.502586364746094,38.920143127441406,-71.6400146484375,-196.8536376953125,-14.2059326171875
14.469999900000001,1.235408067703247,-8.034940719604492,36.22187805175781,-29.0679931640625,-200.958251953125,-3.936767578125
14.4899999,1.5107412338256836,-6.366182327270508,30.468610763549805,-35.5987548828125,-221.8170166015625,-27.191162109375
14.5099999,1.2761094570159912,-5.07570743560791,23.470359802246094,-53.0853271484375,-261.566162109375,-44.7540283203125
14.5299999,0.629675030708313,-4.369418144226074,16.429012298583984,-49.163818359375,-299.2706298828125,-54.718017578125
14.549999900000001,-0.28969839215278625,-3.912125587463379,9.593565940856934,-8.514404296875,-273.4832763671875,-76.5533447265625
14.569999900000001,-1.158793568611145,-3.0837318897247314,3.155557870864868,36.041259765625,-202.239990234375,-107.36083984375
14.5899999,-1.6065093278884888,-1.9584569931030273,-2.6168625354766846,22.3388671875,-133.5906982421875,-83.0841064453125
14.6099999,-1.5658079385757446,-0.4165911078453064,-7.378929615020752,5.126953125,-74.1119384765625,-26.85546875
14.629999900000001,-1.070208191871643,1.2066776752471924,-11.228805541992188,-3.35693359375,-35.09521484375,-23.2391357421875
14.649999900000001,-0.43335050344467163,2.557007312774658,-13.864822387695312,1.52587890625,55.5572509765625,-20.233154296875
14.6699999,0.07182604819536209,3.361459255218506,-15.073893547058105,3.143310546875,174.1943359375,17.1051025390625
14.6899999,0.14365209639072418,3.6990416049957275,-14.329297065734863,7.1258544921875,267.822265625,63.7969970703125
14.709999900000001,-0.31364041566848755,3.354276657104492,-11.018115997314453,22.7813720703125,339.9505615234375,98.0987548828125
14.729999900000001,-1.0534487962722778,2.343923568725586,-3.9695863723754883,28.656005859375,427.9022216796875,128.1890869140625
14.7499999,-1.8291701078414917,-0.4884171485900879,5.770026206970215,27.313232421875,391.9525146484375,173.0194091796875
14.7699999,-2.185906171798706,-3.993528366088867,16.867151260375977,23.3001708984375,205.56640625,121.52099609375
14.789999900000002,-1.8483237028121948,-7.216124057769775,27.609933853149414,34.3017578125,83.892822265625,-19.6685791015625
14.809999900000001,-0.9696516990661621,-9.50737476348877,34.93379592895508,-4.0283203125,-35.2783203125,-31.707763671875
14.8299999,0.11971008777618408,-9.806650161743164,37.8355712890625,-36.68212890625,-158.843994140625,4.1351318359375
14.8499999,1.0654197931289673,-8.647856712341309,36.62649917602539,-35.064697265625,-195.2056884765625,-15.411376953125
14.8699999,1.556231141090393,-7.1921820640563965,32.173282623291016,-38.4521484375,-218.902587890625,-39.2913818359375
14.889999900000001,1.4700398445129395,-5.664681434631348,26.00342559814453,-50.506591796875,-262.939453125,-51.544189453125
14.9099999,0.9265560507774353,-4.302380561828613,19.1440372467041,-70.2972412109375,-312.01171875,-50.84228515625
14.9299999,0.1628057211637497,-3.1435868740081787,12.035652160644531,-69.39697265625,-305.755615234375,-51.9561767578125
14.9499999,-0.5841852426528931,-1.9823989868164062,4.908113479614258,-53.6651611328125,-251.739501953125,-66.7572021484375
14.969999900000001,-1.0893617868423462,-0.8954314589500427,-2.252943754196167,-52.7496337890625,-209.2742919921875,-64.2852783203125
14.9899999,-1.237802267074585,0.23702596127986908,-8.5903959274292,-39.2303466796875,-108.5968017578125,-38.7115478515625
15.0099999,-1.115697979927063,1.4724340438842773,-13.376404762268066,-5.2490234375,28.656005859375,-21.6827392578125
15.0299999,-0.8307880163192749,2.3798365592956543,-16.10818862915039,6.744384765625,115.7073974609375,5.2337646484375
15.049999900000001,-0.5626373887062073,2.875436305999756,-16.172832489013672,1.2969970703125,176.177978515625,41.717529296875
15.069999900000001,-0.586579442024231,2.4133553504943848,-13.929465293884277,-2.4566650390625,235.7330322265625,79.3609619140625
15.0899999,-0.8954314589500427,0.912190854549408,-9.17697525024414,25.3143310546875,324.6612548828125,98.69384765625
15.1099999,-1.1994950771331787,-0.8762778043746948,-1.1803414821624756,67.169189453125,425.9185791015625,67.3065185546875
15.129999900000001,-1.2306196689605713,-2.8610711097717285,8.678980827331543,29.3121337890625,307.861328125,64.971923828125
15.149999900000001,-0.8236053586006165,-4.577713489532471,17.750612258911133,-56.7474365234375,39.1998291015625,82.6568603515625
15.1699999,0.08619125932455063,-5.813121795654297,24.325088500976562,-3.1890869140625,2.74658203125,60.455322265625
15.1899999,1.1827356815338135,-6.517016887664795,26.36734390258789,28.50341796875,78.6895751953125,6.3629150390625
15.209999900000001,2.231395959854126,-6.943184852600098,24.586057662963867,19.9127197265625,44.342041015625,9.2315673828125
15.229999900000001,3.0837318897247314,-6.677428722381592,21.212627410888672,10.8642578125,7.2174072265625,14.7247314453125
15.2499999,3.550601005554199,-6.327875137329102,17.401058197021484,-0.9307861328125,-4.8828125,4.119873046875
15.2699999,3.512293815612793,-5.87776517868042,13.64455509185791,-13.12255859375,-20.8282470703125,-15.9149169921875
15.289999900000002,3.0861260890960693,-5.640739440917969,10.484209060668945,-11.4898681640625,-24.0020751953125,-17.9290771484375
15.309999900000001,2.454056739807129,-5.236119270324707,8.209717750549316,7.14111328125,6.34765625,-17.181396484375
15.3299999,1.8291701078414917,-4.644751071929932,6.809109687805176,10.55908203125,13.61083984375,-23.681640625
15.3499999,1.357512354850769,-3.928884983062744,6.440402507781982,7.1563720703125,8.6669921875,-15.13671875
15.3699999,1.0438719987869263,-3.177105665206909,6.62236213684082,5.0811767578125,-1.4190673828125,-3.265380859375
15.389999900000001,0.9074024558067322,-2.63362193107605,7.0988078117370605,-1.03759765625,2.99072265625,2.0294189453125
15.4099999,0.8858546018600464,-2.319981336593628,7.558494567871094,0,21.0723876953125,-0.67138671875
15.4299999,0.9481038451194763,-2.2361843585968018,7.908048152923584,6.65283203125,28.717041015625,-0.2899169921875
15.4499999,1.0797849893569946,-2.027888774871826,8.518569946289062,9.674072265625,33.0352783203125,2.99072265625
15.469999900000001,1.2090718746185303,-1.6352397203445435,9.399636268615723,1.953125,25.0091552734375,12.4359130859375
15.4899999,1.314416766166687,-1.173158884048462,10.47702693939209,-11.1236572265625,-0.732421875,31.67724609375
15.5099999,1.4053963422775269,-0.7948749661445618,11.75792407989502,-1.434326171875,-7.110595703125,45.0439453125
15.5299999,1.5131354331970215,-0.6033388376235962,13.055582046508789,14.190673828125,-12.176513671875,49.2401123046875
15.549999900000001,1.6352397203445435,-0.6248866319656372,14.319720268249512,3.8299560546875,-40.863037109375,59.2041015625
15.569999900000001,1.745373010635376,-0.9409212470054626,15.251065254211426,-9.368896484375,-87.8753662109375,79.254150390625
15.5899999,1.8602946996688843,-1.778891921043396,15.725116729736328,5.035400390625,-114.1815185546875,98.14453125
15.6099999,1.9105730056762695,-3.0526070594787598,15.73469352722168,10.0555419921875,-123.748779296875,89.84375
15.629999900000001,1.8100165128707886,-7.682993412017822,15.265430450439453,-54.901123046875,-215.972900390625,52.7191162109375
15.649999900000001,1.534683346748352,-10.11550235748291,14.554351806640625,-103.0120849609375,-271.5301513671875,1.5869140625
15.6699999,1.0965443849563599,-12.351686477661133,12.914323806762695,-126.495361328125,-288.2843017578125,-43.5943603515625
15.6899999,0.5291185975074768,-13.390769958496094,10.031704902648926,-125.4730224609375,-278.9306640625,-125.1678466796875
15.709999900000001,-0.004788403399288654,-13.069947242736816,6.507440090179443,-114.2730712890625,-239.1357421875,-196.990966796875
15.729999900000001,-0.395043283700943,-11.389217376708984,2.5713725090026855,-99.609375,-207.2296142578125,-196.83837890625
15.7499999,-0.5674257874488831,-8.640673637390137,-1.455674648284912,-93.902587890625,-171.8597412109375,-178.03955078125
15.7699999,-0.5219359993934631,-5.384559631347656,-5.2911858558654785,-113.6627197265625,-73.2879638671875,-171.38671875
15.789999900000002,-0.4405331015586853,-2.5737667083740234,-8.631096839904785,-116.943359375,67.047119140625,-146.17919921875
15.809999900000001,-0.6248866319656372,-0.5003881454467773,-11.329362869262695,-93.8568115234375,187.07275390625,-114.4561767578125
15.8299999,-1.3120225667953491,1.113303780555725,-12.100295066833496,-60.2264404296875,329.742431640625,-113.006591796875
15.8499999,-2.315192937850952,2.43011474609375,-10.012551307678223,-24.0936279296875,465.88134765625,-98.4649658203125
15.869999900000002,-3.222595453262329,3.9624037742614746,-4.900930881500244,24.84130859375,475.0518798828125,-39.48974609375
15.889999900000001,-3.7421371936798096,5.34625244140625,1.9369091987609863,54.50439453125,357.940673828125,40.6036376953125
15.9099999,-3.670311212539673,5.892130374908447,9.30386734008789,45.074462890625,288.482666015625,104.339599609375
15.9299999,-3.1890766620635986,5.963956356048584,16.069881439208984,54.38232421875,321.5789794921875,90.27099609375
15.9499999,-2.5929205417633057,5.578489780426025,21.03545570373535,52.30712890625,247.5128173828125,101.715087890625
15.969999900000001,-2.006340980529785,4.414907932281494,24.35621452331543,26.153564453125,107.9254150390625,208.8775634765625
15.9899999,-1.41257905960083,3.0526070594787598,25.783157348632812,54.168701171875,54.840087890625,231.14013671875
16.0099999,-0.8667010068893433,1.6855180263519287,25.234886169433594,31.280517578125,41.0003662109375,146.4996337890625
16.0299999,-0.4405331015586853,0.1628057211637497,23.245304107666016,-7.7972412109375,-21.1639404296875,148.01025390625
16.0499999,-0.1412578970193863,-0.5817909836769104,20.982784271240234,2.5634765625,-71.2738037109375,206.3751220703125
16.0699999,-0.07661445438861847,-1.0989385843276978,19.07699966430664,19.6075439453125,-103.1646728515625,230.072021484375
16.089999900000002,-0.23942017555236816,-2.7222073078155518,17.73145866394043,23.62060546875,-151.5960693359375,232.7117919921875
16.109999900000002,-0.47644615173339844,-5.559336185455322,16.76659393310547,6.378173828125,-210.2203369140625,187.68310546875
16.1299999,-0.6943184733390808,-8.635885238647461,16.084247589111328,-38.39111328125,-237.6251220703125,76.6143798828125
16.1499999,-0.8236053586006165,-11.429919242858887,15.081076622009277,-65.61279296875,-261.993408203125,21.42333984375
16.1699999,-0.8331822156906128,-12.806585311889648,13.584700584411621,-91.644287109375,-288.970947265625,2.38037109375
16.1899999,-0.7661445140838623,-13.046005249023438,11.530475616455078,-111.4044189453125,-291.107177734375,-28.564453125
16.2099999,-0.6009446382522583,-12.689269065856934,8.868123054504395,-128.1890869140625,-269.34814453125,-70.25146484375
16.2299999,-0.304063618183136,-11.87763500213623,5.839457988739014,-144.1802978515625,-229.7821044921875,-121.4447021484375
16.249999900000002,0.09816227108240128,-10.876858711242676,2.7485435009002686,-147.125244140625,-179.046630859375,-148.6663818359375
16.269999900000002,0.5291185975074768,-9.600749015808105,-0.19632454216480255,-129.6844482421875,-134.063720703125,-152.64892578125
16.2899999,0.8810662031173706,-7.82185697555542,-2.585737943649292,-97.6715087890625,-62.3626708984375,-164.337158203125
16.3099999,1.094150185585022,-5.75326681137085,-4.680664539337158,-78.2623291015625,6.134033203125,-159.0576171875
16.3299999,1.161187767982483,-3.861847400665283,-6.09324312210083,-82.8399658203125,78.3843994140625,-122.3907470703125
16.3499999,1.0606313943862915,-1.8698714971542358,-6.466738700866699,-58.7310791015625,169.647216796875,-119.720458984375
16.3699999,0.8307880163192749,0.040701430290937424,-5.880159378051758,-32.257080078125,205.7342529296875,-136.2762451171875
16.3899999,0.5003881454467773,1.9560627937316895,-4.108449935913086,-40.0390625,218.109130859375,-96.49658203125
16.4099999,0.06703764945268631,3.93367338180542,-1.6112977266311646,-48.9959716796875,240.3106689453125,-29.23583984375
16.429999900000002,-0.4357447028160095,5.750872611999512,1.213860273361206,-31.3262939453125,266.143798828125,9.8419189453125
16.4499999,-0.8810662031173706,6.868964672088623,4.697423934936523,0.579833984375,297.05810546875,48.27880859375
16.4699999,-1.1324573755264282,7.249642848968506,8.832210540771484,10.8642578125,285.4461669921875,88.0889892578125
16.4899999,-1.1324573755264282,7.007828235626221,12.94305419921875,-12.969970703125,197.113037109375,119.1253662109375
16.5099999,-0.8331822156906128,5.832275390625,16.6420955657959,-13.4429931640625,143.4173583984375,157.9132080078125
16.5299999,-0.304063618183136,3.9169139862060547,19.151220321655273,-2.0599365234375,141.9525146484375,169.0673828125
16.5499999,0.33997663855552673,1.8914192914962769,20.496761322021484,64.27001953125,119.293212890625,135.711669921875
16.5699999,0.9361328482627869,-0.06224924325942993,20.743364334106445,44.708251953125,53.192138671875,120.3765869140625
16.589999900000002,1.4413094520568848,-2.300827741622925,20.800825119018555,50.7965087890625,17.3187255859375,166.2445068359375
16.609999900000002,1.867477297782898,-4.039018154144287,20.865467071533203,68.3746337890625,-0.274658203125,125.5340576171875
16.6299999,2.1164743900299072,-5.834669589996338,20.88701629638672,20.3399658203125,-78.2623291015625,62.7288818359375
16.6499999,2.212242364883423,-7.307103633880615,20.8894100189209,5.126953125,-158.0047607421875,68.8629150390625
16.6699999,2.0829553604125977,-7.955932140350342,20.195091247558594,6.7291259765625,-200.2410888671875,74.2340087890625
16.6899999,1.7549498081207275,-8.607154846191406,18.602947235107422,-7.904052734375,-214.0655517578125,75.8209228515625
16.7099999,1.3000515699386597,-9.428366661071777,16.014814376831055,-25.7568359375,-220.703125,51.1322021484375
16.7299999,0.8954314589500427,-10.438719749450684,12.959814071655273,-29.449462890625,-218.414306640625,-2.8076171875
16.749999900000002,0.6009446382522583,-11.441889762878418,9.768342971801758,-30.2581787109375,-205.5816650390625,-43.51806640625
16.769999900000002,0.4213795065879822,-11.841721534729004,6.801927089691162,-39.4287109375,-191.375732421875,-80.3375244140625
16.7899999,0.304063618183136,-11.69806957244873,4.2951979637146,-45.0286865234375,-171.9512939453125,-113.58642578125
16.8099999,0.22744916379451752,-10.896012306213379,2.1811177730560303,-52.7496337890625,-149.8260498046875,-145.355224609375
16.8299999,0.17717093229293823,-9.727641105651855,0.28969839215278625,-58.135986328125,-113.0523681640625,-161.1175537109375
16.8499999,0.15322890877723694,-8.221688270568848,-1.4245500564575195,-65.8416748046875,-49.713134765625,-167.2515869140625
16.8699999,0.15322890877723694,-6.607996463775635,-2.894589900970459,-67.5506591796875,19.1650390625,-171.3409423828125
16.8899999,0.06703764945268631,-4.812345504760742,-4.132391929626465,-74.066162109375,69.2901611328125,-185.2569580078125
16.9099999,-0.22026655077934265,-2.8347349166870117,-4.888959884643555,-105.6671142578125,125.5340576171875,-189.727783203125
16.929999900000002,-0.6943184733390808,-0.6177040338516235,-4.503493309020996,-117.2027587890625,217.7276611328125,-162.0330810546875
16.9499999,-1.3646949529647827,2.032677173614502,-2.9520506858825684,-78.3843994140625,275.543212890625,-128.1585693359375
16.9699999,-2.0422539710998535,4.927267074584961,0.1843535304069519,-64.6209716796875,277.3284912109375,-83.8623046875
16.9899999,-2.5522189140319824,7.7763671875,4.747702121734619,-51.544189453125,280.0140380859375,-8.758544921875
17.0099999,-2.8107926845550537,10.400412559509277,9.732429504394531,-21.91162109375,253.509521484375,59.0667724609375
17.0299999,-2.8371291160583496,11.829751014709473,14.43464183807373,-12.9547119140625,198.73046875,149.7344970703125
17.0499999,-2.583343744277954,11.475408554077148,18.420988082885742,-20.3094482421875,160.0189208984375,231.62841796875
17.0699999,-2.049436569213867,8.83699893951416,21.198261260986328,6.988525390625,120.1934814453125,250.6256103515625
17.089999900000002,-1.2617442607879639,4.843470096588135,22.91250991821289,68.4051513671875,51.69677734375,191.650390625
17.109999900000002,-0.272938996553421,0.5434837937355042,23.13756561279297,-6.7901611328125,-29.6783447265625,149.078369140625
17.1299999,0.7038952708244324,-2.5689783096313477,22.261287689208984,-26.5045166015625,-57.830810546875,159.97314453125
17.1499999,1.4652514457702637,-4.503493309020996,20.499155044555664,22.552490234375,-57.9986572265625,184.661865234375
17.1699999,1.8818424940109253,-6.6391215324401855,17.73863983154297,49.8504638671875,-122.3907470703125,153.38134765625
17.1899999,1.580173134803772,-7.73087739944458,17.336414337158203,2.197265625,-186.6455078125,121.39892578125
17.2099999,1.0319008827209473,-8.633491516113281,16.859968185424805,-48.3551025390625,-242.7520751953125,98.785400390625
17.2299999,0.37828385829925537,-9.569623947143555,15.729905128479004,-83.6029052734375,-277.6947021484375,85.6475830078125
17.249999900000002,-0.22266076505184174,-10.472238540649414,13.472172737121582,-81.0699462890625,-282.28759765625,45.7305908203125
17.269999900000002,-0.6129156351089478,-11.238382339477539,10.366893768310547,-66.802978515625,-256.1492919921875,-30.303955078125
17.2899999,-0.7015010714530945,-11.875240325927734,6.833051681518555,-56.549072265625,-221.649169921875,-75.8056640625
17.3099999,-0.5506663918495178,-11.796232223510742,3.428496837615967,-58.3343505859375,-190.6585693359375,-106.689453125
17.3299999,-0.26575639843940735,-11.034875869750977,0.3734954595565796,-71.2127685546875,-153.6102294921875,-136.688232421875
17.3499999,0.004788403399288654,-9.737217903137207,-2.300827741622925,-76.0040283203125,-93.4600830078125,-147.735595703125
17.3699999,0.23702596127986908,-8.161833763122559,-4.378994941711426,-73.3795166015625,-5.0506591796875,-150.1617431640625
17.3899999,0.3687070608139038,-6.596025466918945,-5.74129581451416,-61.920166015625,70.73974609375,-153.961181640625
17.409999900000003,0.3998316824436188,-4.831499099731445,-6.14831018447876,-65.3228759765625,116.63818359375,-175.933837890625
17.429999900000002,0.2825157940387726,-2.937685489654541,-5.518634796142578,-77.8045654296875,158.660888671875,-174.5452880859375
17.4499999,-0.0454898327589035,-0.7398083209991455,-4.189853191375732,-95.21484375,195.068359375,-143.585205078125
17.4699999,-0.6177040338516235,1.3862427473068237,-2.0614075660705566,-99.5025634765625,249.45068359375,-103.57666015625
17.4899999,-1.292868971824646,3.711012601852417,1.1348515748977661,-60.455322265625,312.68310546875,-89.3402099609375
17.5099999,-1.867477297782898,5.954379558563232,5.5760955810546875,-21.2249755859375,312.9119873046875,-57.55615234375
17.5299999,-2.1356279850006104,8.288725852966309,10.893617630004883,-43.701171875,230.5145263671875,19.1802978515625
17.5499999,-1.9919757843017578,10.292673110961914,16.34042739868164,-86.2884521484375,138.336181640625,110.198974609375
17.5699999,-1.599326729774475,11.611878395080566,20.30282974243164,-88.653564453125,70.556640625,183.563232421875
17.589999900000002,-1.0845733880996704,11.051634788513184,22.498313903808594,-7.7972412109375,51.4678955078125,252.44140625
17.609999900000002,-0.586579442024231,9.184157371520996,22.926876068115234,82.000732421875,49.13330078125,268.37158203125
17.6299999,-0.0454898327589035,4.757278919219971,22.29241180419922,106.3232421875,17.3492431640625,283.02001953125
17.6499999,0.7086837291717529,-0.9720458984375,21.75132179260254,106.658935546875,-9.6588134765625,245.54443359375
17.6699999,1.5897499322891235,-6.62236213684082,21.38740348815918,19.6075439453125,-73.66943359375,119.9951171875
17.6899999,2.4133553504943848,-11.314997673034668,21.02109146118164,-30.5023193359375,-158.9813232421875,74.76806640625
17.7099999,2.8993782997131348,-13.503297805786133,20.247764587402344,-23.7884521484375,-206.1920166015625,76.5533447265625
17.7299999,2.87064790725708,-13.654131889343262,18.53351593017578,-15.3045654296875,-228.45458984375,65.00244140625
17.749999900000002,2.3989901542663574,-13.098677635192871,15.998055458068848,-21.881103515625,-228.0426025390625,56.09130859375
17.769999900000002,1.7357962131500244,-12.291831970214844,12.887988090515137,-48.2635498046875,-230.3924560546875,12.2528076171875
17.7899999,1.1180921792984009,-12.018892288208008,9.787496566772461,-62.8509521484375,-225.0213623046875,-36.7279052734375
17.8099999,0.6416460275650024,-11.90157699584961,6.828263282775879,-74.737548828125,-221.49658203125,-78.9031982421875
17.8299999,0.31124621629714966,-11.42752456665039,4.091690540313721,-83.892822265625,-207.3822021484375,-130.43212890625
17.8499999,0.08619125932455063,-10.685321807861328,1.4293384552001953,-87.34130859375,-172.088623046875,-147.1099853515625
17.8699999,-0.07182604819536209,-9.375694274902344,-1.2090718746185303,-85.418701171875,-110.015869140625,-149.139404296875
17.8899999,-0.1604115068912506,-7.864952564239502,-3.4117374420166016,-69.244384765625,-20.0958251953125,-153.80859375
17.909999900000003,-0.21308395266532898,-6.1985883712768555,-5.097255229949951,-58.3953857421875,43.670654296875,-159.11865234375
17.929999900000002,-0.3064578175544739,-4.565742492675781,-5.937620162963867,-64.3310546875,87.8143310546875,-158.6456298828125
17.9499999,-0.5578489899635315,-2.832340717315674,-6.150704383850098,-74.6307373046875,140.960693359375,-153.86962890625
17.9699999,-1.1013327836990356,-1.0893617868423462,-5.75326681137085,-73.8677978515625,212.9974365234375,-145.9808349609375
17.9899999,-1.9752163887023926,0.9720458984375,-4.639962673187256,-57.0068359375,292.2210693359375,-135.955810546875
18.0099999,-2.940079689025879,3.2369606494903564,-1.7932571172714233,-43.27392578125,367.156982421875,-105.0567626953125
18.0299999,-3.691859006881714,6.200982570648193,2.801215887069702,-32.4859619140625,360.443115234375,-60.211181640625
18.0499999,-3.950432777404785,9.2033109664917,8.908824920654297,-46.0968017578125,272.8729248046875,24.4293212890625
18.0699999,-3.6391866207122803,11.295844078063965,15.172056198120117,-61.6607666015625,175.4608154296875,139.70947265625
18.089999900000002,-2.9328970909118652,12.107478141784668,20.314802169799805,-54.7943115234375,122.5433349609375,193.2373046875
18.109999900000002,-1.968033790588379,10.656591415405273,23.27164077758789,-31.67724609375,89.6759033203125,223.114013671875
18.1299999,-0.9409212470054626,8.010998725891113,24.60281753540039,67.779541015625,64.300537109375,224.7161865234375
18.1499999,-0.002394201699644327,4.568136692047119,24.270023345947266,55.6640625,7.7056884765625,232.84912109375
18.1699999,0.7972691655158997,0.7733271718025208,23.305158615112305,21.392822265625,-40.3900146484375,260.9100341796875
18.1899999,1.3934253454208374,-3.4739866256713867,22.05059814453125,33.111572265625,-68.389892578125,243.377685546875
18.2099999,1.7932571172714233,-7.711723804473877,20.803218841552734,26.2908935546875,-109.0545654296875,168.4112548828125
18.2299999,2.0661959648132324,-11.219228744506836,19.63484764099121,-22.7508544921875,-169.4488525390625,80.38330078125
18.249999900000002,2.140416383743286,-13.599065780639648,18.34197998046875,-36.6973876953125,-213.2110595703125,70.770263671875
18.269999900000002,1.944091796875,-14.33169174194336,16.546327590942383,-37.2161865234375,-236.99951171875,60.4400634765625
18.2899999,1.525106430053711,-14.247894287109375,14.092270851135254,-50.323486328125,-244.2474365234375,23.0712890625
18.3099999,0.9864110946655273,-13.716381072998047,11.17852783203125,-60.8673095703125,-233.7799072265625,-28.4881591796875
18.3299999,0.4884171485900879,-12.921506881713867,8.058882713317871,-68.66455078125,-219.1925048828125,-78.704833984375
18.3499999,0.14365209639072418,-12.014103889465332,4.9583916664123535,-79.1778564453125,-204.5440673828125,-102.9052734375
18.3699999,-0.05506663769483566,-10.836156845092773,1.987187385559082,-87.1124267578125,-172.7752685546875,-128.11279296875
18.3899999,-0.12449848651885986,-9.459490776062012,-0.6799532771110535,-87.2344970703125,-109.2071533203125,-156.707763671875
18.409999900000003,-0.14365209639072418,-7.7763671875,-2.9089550971984863,-70.526123046875,-36.1785888671875,-159.60693359375
18.429999900000002,-0.12210428714752197,-5.868188381195068,-4.508281707763672,-58.4716796875,19.8516845703125,-138.031005859375
18.4499999,-0.11252748221158981,-3.8810009956359863,-5.30076265335083,-57.8155517578125,69.4580078125,-118.2861328125
18.4699999,-0.1604115068912506,-1.9800047874450684,-5.4013190269470215,-66.58935546875,114.2578125,-118.6065673828125
18.4899999,-0.35913026332855225,-0.4812345504760742,-4.90571928024292,-80.3070068359375,157.135009765625,-108.978271484375
18.5099999,-0.7469909191131592,0.9792284965515137,-3.5458126068115234,-79.681396484375,210.1593017578125,-95.8404541015625
18.5299999,-1.2090718746185303,2.5689783096313477,-0.9648633003234863,-71.1669921875,254.21142578125,-77.484130859375
18.5499999,-1.6687586307525635,4.355052947998047,2.8203697204589844,-65.4296875,244.354248046875,-29.9835205078125
18.5699999,-1.9345149993896484,6.256049156188965,7.407660007476807,-71.014404296875,208.709716796875,28.01513671875
18.589999900000002,-1.9105730056762695,8.097189903259277,12.473791122436523,-26.6265869140625,216.1865234375,79.6051025390625
18.609999900000002,-1.5729905366897583,9.543288230895996,17.161638259887695,-0.6866455078125,198.54736328125,136.749267578125
18.6299999,-0.8906430602073669,9.275136947631836,20.83913230895996,-11.53564453125,115.53955078125,234.771728515625
18.6499999,0.11971008777618408,7.503427982330322,23.45359992980957,66.7877197265625,44.921875,257.4310302734375
18.6699999,1.357512354850769,3.6990416049957275,24.071304321289062,51.5289306640625,-9.033203125,213.165283203125
18.6899999,2.7102363109588623,-1.4628572463989258,23.57570457458496,51.3763427734375,-18.8751220703125,185.455322265625
18.7099999,4.649539470672607,-10.000580787658691,20.575769424438477,12.3748779296875,-104.00390625,78.704833984375
18.7299999,4.764461517333984,-11.93748950958252,18.983625411987305,-17.02880859375,-158.1268310546875,69.854736328125
18.749999900000002,4.2760443687438965,-12.425907135009766,16.903064727783203,-42.96875,-191.9403076171875,76.0650634765625
18.769999900000002,3.399766445159912,-12.51449203491211,14.36521053314209,-58.135986328125,-183.746337890625,71.0601806640625
18.7899999,2.4660277366638184,-12.485761642456055,11.463438034057617,-59.3414306640625,-158.6761474609375,9.2315673828125
18.8099999,1.6831238269805908,-12.753912925720215,8.7268648147583,-46.2646484375,-149.200439453125,-41.19873046875
18.8299999,1.0606313943862915,-12.6150484085083,6.315904140472412,-45.2423095703125,-155.242919921875,-71.4111328125
18.8499999,0.5937620401382446,-11.923124313354492,4.106055736541748,-62.5,-156.7840576171875,-92.2393798828125
18.8699999,0.2513911724090576,-11.044452667236328,1.9752163887023926,-65.8416748046875,-122.406005859375,-96.282958984375
18.8899999,0.0071826050989329815,-10.074800491333008,-0.035913024097681046,-49.774169921875,-59.08203125,-119.5526123046875
18.909999900000003,-0.1149216815829277,-8.9064302444458,-1.6089035272598267,-38.5589599609375,-7.9498291015625,-157.135009765625
18.929999900000002,-0.1388636976480484,-7.582436561584473,-2.494758129119873,-44.00634765625,19.04296875,-156.3568115234375
18.9499999,-0.10295066982507706,-5.827486991882324,-2.786850690841675,-57.9833984375,43.1671142578125,-131.988525390625
18.9699999,-0.040701430290937424,-3.8283286094665527,-2.674323320388794,-53.5888671875,86.5325927734375,-125.3814697265625
18.9899999,-0.002394201699644327,-1.9273324012756348,-2.434903144836426,-32.501220703125,135.6201171875,-124.9847412109375
19.0099999,-0.07422025501728058,-0.16759411990642548,-1.7884687185287476,-23.1475830078125,186.9659423828125,-117.12646484375
19.0299999,-0.2513911724090576,1.5514427423477173,-0.2753331959247589,-18.2952880859375,233.3526611328125,-99.18212890625
19.0499999,-0.47165772318840027,3.423708438873291,2.4612393379211426,-11.138916015625,247.4517822265625,-71.044921875
19.0699999,-0.6033388376235962,5.367800235748291,6.354211330413818,-12.481689453125,218.3685302734375,-26.153564453125
19.089999900000002,-0.5722141861915588,7.280767440795898,10.769119262695312,-19.195556640625,170.257568359375,32.1197509765625
19.109999900000002,-0.3423708379268646,8.647856712341309,14.92066478729248,-23.5443115234375,128.0517578125,96.49658203125
19.1299999,-0.07422025501728058,9.23682975769043,17.91581153869629,-31.6162109375,91.766357421875,157.9742431640625
19.1499999,0.31842881441116333,8.070854187011719,19.74498176574707,18.8751220703125,67.718505859375,207.5653076171875
19.1699999,0.7805097699165344,5.7125654220581055,20.436904907226562,83.984375,48.4161376953125,194.2138671875
19.1899999,1.3718775510787964,1.9991583824157715,20.269311904907227,48.8128662109375,3.3721923828125,170.623779296875
19.2099999,2.0614075660705566,-1.7932571172714233,19.74498176574707,9.552001953125,-27.34375,144.95849609375
19.2299999,2.655169725418091,-4.807557106018066,19.045873641967773,0.457763671875,-59.9517822265625,116.1651611328125
19.249999900000002,3.0310592651367188,-7.072471618652344,18.35873794555664,20.4010009765625,-97.015380859375,126.5106201171875
19.269999900000002,3.1004912853240967,-8.695740699768066,17.56625747680664,26.947021484375,-131.89697265625,127.6702880859375
19.2899999,2.940079689025879,-10.350133895874023,16.395492553710938,-2.9449462890625,-158.0352783203125,93.017578125
19.3099999,2.6575639247894287,-11.896788597106934,14.97812557220459,-26.824951171875,-157.7301025390625,35.064697265625
19.3299999,2.3247697353363037,-13.026851654052734,13.28063678741455,-36.6668701171875,-167.388916015625,-11.04736328125
19.3499999,1.9177556037902832,-13.30218505859375,11.317391395568848,-38.4063720703125,-194.8089599609375,-32.0281982421875
19.3699999,1.4844050407409668,-12.828132629394531,8.89445972442627,-42.9840087890625,-199.127197265625,-49.5758056640625
19.3899999,1.072602391242981,-12.047622680664062,6.275202751159668,-47.8057861328125,-148.8189697265625,-71.807861328125
19.409999900000003,0.7469909191131592,-10.8720703125,3.620033025741577,-40.252685546875,-96.160888671875,-113.8153076171875
19.429999900000002,0.5410895943641663,-9.519346237182617,1.381454348564148,-39.85595703125,-82.275390625,-126.434326171875
19.4499999,0.43335050344467163,-7.814674377441406,-0.3998316824436188,-47.0123291015625,-72.5555419921875,-109.2376708984375
19.4699999,0.3687070608139038,-6.2632317543029785,-1.7525556087493896,-49.652099609375,-19.8822021484375,-90.3167724609375
19.4899999,0.31124621629714966,-4.920084476470947,-2.8802247047424316,-46.0968017578125,42.4041748046875,-102.4322509765625
19.5099999,0.26096799969673157,-3.9408559799194336,-3.579331636428833,-43.27392578125,83.7249755859375,-122.3602294921875
19.5299999,0.17717093229293823,-2.96162748336792,-3.5194764137268066,-43.121337890625,121.3226318359375,-121.9482421875
19.5499999,-0.047884032130241394,-1.7118542194366455,-2.6815059185028076,-42.694091796875,156.5093994140625,-109.6038818359375
19.5699999,-0.4165911078453064,-0.021547814831137657,-1.0965443849563599,-36.07177734375,189.6514892578125,-97.900390625
19.589999900000002,-0.8259995579719543,1.9560627937316895,1.8052281141281128,-23.5443115234375,233.70361328125,-73.272705078125
19.609999900000002,-1.0773907899856567,4.37420654296875,5.822698593139648,-30.6243896484375,227.4932861328125,-39.5355224609375
19.6299999,-1.0773907899856567,6.912060260772705,10.357316970825195,-60.6689453125,150.5584716796875,19.3023681640625
19.6499999,-0.8188169598579407,9.114726066589355,14.724340438842773,-70.4345703125,92.742919921875,98.4039306640625
19.6699999,-0.42616790533065796,10.359710693359375,18.013973236083984,-56.4727783203125,83.343505859375,170.1507568359375
19.6899999,0.043095629662275314,9.730035781860352,19.99397850036621,-3.692626953125,67.87109375,226.806640625
19.7099999,0.6009446382522583,7.548917770385742,20.96123504638672,50.506591796875,22.8271484375,224.578857421875
19.7299999,1.3527239561080933,3.2848446369171143,20.884620666503906,26.6571044921875,-39.1082763671875,237.152099609375
19.749999900000002,2.27209734916687,-2.0614075660705566,20.314802169799805,37.2772216796875,-47.6837158203125,217.437744140625
19.769999900000002,3.1675288677215576,-7.12035608291626,19.02672004699707,12.1307373046875,-74.6307373046875,124.114990234375
19.7899999,3.883395195007324,-11.4849853515625,17.492036819458008,-22.4761962890625,-113.4033203125,76.080322265625
19.8099999,4.225766181945801,-14.334085464477539,15.658079147338867,-17.6239013671875,-136.3983154296875,70.159912109375
19.8299999,4.168305397033691,-15.500061988830566,13.438653945922852,-28.7322998046875,-142.730712890625,23.101806640625
19.8499999,3.797203779220581,-15.603012084960938,11.073183059692383,-47.760009765625,-122.3907470703125,-27.2979736328125
