# Time (seconds),Accel_X,Accel_Y,Accel_Z,Gyro_X,Gyro_Y,Gyro_Z
0.0099999,1.0989385843276978,9.133879661560059,2.4181437492370605,-72.540283203125,-17.608642578125,-41.6412353515625
0.029999900000000003,0.8427590131759644,9.41400146484375,2.185906171798706,-79.58984375,-6.5155029296875,-24.7955322265625
0.0499999,0.586579442024231,9.701305389404297,1.8339585065841675,-35.70556640625,30.4107666015625,-4.2572021484375
0.0699999,0.31603461503982544,9.950302124023438,1.580173134803772,4.4403076171875,45.806884765625,-13.885498046875
0.08999990000000001,0.181959331035614,10.165780067443848,1.2976573705673218,30.8837890625,24.3682861328125,-35.94970703125
0.10999990000000001,0.08858546614646912,10.515334129333496,0.9457096457481384,37.17041015625,10.406494140625,-44.2352294921875
0.1299999,0.05506663769483566,11.463438034057617,0.8164227604866028,11.077880859375,57.0068359375,-35.46142578125
0.14999990000000002,0.040701430290937424,12.612654685974121,0.7972691655158997,-36.1480712890625,73.455810546875,-0.9918212890625
0.1699999,0.026336219161748886,13.725957870483398,1.192312479019165,-35.9344482421875,47.91259765625,23.8800048828125
0.1899999,0.06703764945268631,14.592658996582031,1.9919757843017578,0.823974609375,44.1436767578125,19.5465087890625
0.20999990000000002,0.10534487664699554,14.90869426727295,2.853888511657715,9.1094970703125,52.5054931640625,27.587890625
0.2299999,0.14604631066322327,14.877569198608398,3.6798880100250244,-6.7291259765625,50.1556396484375,56.3812255859375
0.2499999,0.17238251864910126,14.482525825500488,4.513070106506348,-4.5318603515625,42.510986328125,78.4912109375
0.2699999,0.1604115068912506,13.735535621643066,5.22175407409668,31.3262939453125,29.0679931640625,89.263916015625
0.28999990000000003,0.12928688526153564,12.854469299316406,5.801150798797607,41.290283203125,18.9208984375,83.9080810546875
0.3099999,0.0933738648891449,11.836933135986328,6.160281181335449,36.0260009765625,15.350341796875,88.775634765625
0.3299999,0.07422025501728058,10.891223907470703,6.294356346130371,17.9290771484375,5.767822265625,101.13525390625
0.34999990000000003,0.1149216815829277,9.967061996459961,6.3063273429870605,10.31494140625,-6.134033203125,101.593017578125
0.3699999,0.24899697303771973,9.045293807983398,6.2847795486450195,33.14208984375,-14.556884765625,92.559814453125
0.3899999,0.44771572947502136,8.159439086914062,6.287173748016357,51.6357421875,-24.0478515625,86.883544921875
0.40999990000000003,0.706289529800415,7.441178798675537,6.217741966247559,40.6951904296875,-40.6494140625,85.3118896484375
0.4299999,0.9433154463768005,6.871358871459961,6.112396717071533,25.054931640625,-49.6673583984375,84.075927734375
0.4499999,1.3000515699386597,6.088454723358154,5.386953830718994,41.3818359375,-61.3555908203125,67.56591796875
0.4699999,1.4437036514282227,5.770026206970215,4.881777286529541,37.3382568359375,-65.399169921875,62.4237060546875
0.4899999,1.6304513216018677,5.631162166595459,4.390965938568115,19.9737548828125,-71.624755859375,60.7147216796875
0.5099999,1.8124107122421265,5.420472621917725,3.8786067962646484,3.72314453125,-81.6497802734375,57.647705078125
0.5299999,2.027888774871826,5.145139217376709,3.423708438873291,-2.9754638671875,-85.9832763671875,51.3763427734375
0.5499999,2.2457611560821533,4.675876140594482,2.911349296569824,3.2958984375,-84.3048095703125,36.7584228515625
0.5699999,2.4875755310058594,4.127603530883789,2.492363929748535,0.54931640625,-83.6944580078125,21.759033203125
0.5899998999999999,2.7126305103302,3.507505416870117,2.121262788772583,-11.23046875,-84.930419921875,10.31494140625
0.6099998999999999,2.892195701599121,3.0142998695373535,1.7908629179000854,-29.5257568359375,-95.1690673828125,-5.67626953125
0.6299999,2.96162748336792,2.652775526046753,1.4652514457702637,-15.6707763671875,-98.0987548828125,-27.496337890625
0.6499999,2.9041666984558105,2.4636335372924805,0.9217676520347595,-3.173828125,-101.7608642578125,-46.32568359375
0.6699999,2.717418909072876,2.564189910888672,0.19632454216480255,-14.9993896484375,-99.5330810546875,-64.02587890625
0.6899999,2.408566951751709,2.889801502227783,-0.6488286852836609,-35.8123779296875,-88.4552001953125,-75.2716064453125
0.7099999,2.013523578643799,3.4380736351013184,-1.4700398445129395,-39.2913818359375,-79.6051025390625,-83.6334228515625
0.7299998999999999,1.5538369417190552,4.065354347229004,-2.1954829692840576,-21.8963623046875,-74.2645263671875,-96.099853515625
0.7499998999999999,1.0749965906143188,4.774038314819336,-2.892195701599121,-24.444580078125,-71.929931640625,-111.8621826171875
0.7699999,0.6272808313369751,5.499481201171875,-3.5242648124694824,-37.78076171875,-56.9000244140625,-123.046875
0.7899999,0.2298433631658554,6.217741966247559,-4.197035789489746,-51.513671875,-39.73388671875,-124.7711181640625
0.8099999,-0.12449848651885986,7.137115478515625,-5.006275653839111,-65.093994140625,-33.87451171875,-136.5509033203125
0.8299999,-0.4884171485900879,8.111555099487305,-5.592854976654053,-47.0123291015625,-2.9754638671875,-142.3187255859375
0.8499998999999999,-0.8954314589500427,9.5624418258667,-5.896918773651123,-17.0745849609375,32.9742431640625,-151.1077880859375
0.8699998999999999,-1.2641384601593018,11.470620155334473,-5.758055210113525,-6.6375732421875,43.1060791015625,-149.0478515625
0.8899999,-1.501164436340332,13.402741432189941,-4.845864295959473,-23.86474609375,58.0902099609375,-109.0240478515625
0.9099999,-1.534683346748352,15.105018615722656,-3.6511576175689697,-41.93115234375,55.4351806640625,-79.0252685546875
0.9299999,-1.3838485479354858,16.012420654296875,-2.3127987384796143,-41.4276123046875,50.84228515625,-70.9075927734375
0.9499999,-1.161187767982483,16.081851959228516,-1.0845733880996704,-24.7802734375,63.4002685546875,-59.75341796875
0.9699998999999999,-0.993593692779541,15.593435287475586,-0.2537853717803955,-14.1143798828125,63.7054443359375,-52.3223876953125
0.9899998999999999,-0.9289502501487732,14.896722793579102,0.31124621629714966,-26.3519287109375,61.0198974609375,-38.8336181640625
1.0099999,-0.9409212470054626,14.36521053314209,0.7637503147125244,-32.684326171875,68.6187744140625,-30.303955078125
1.0299999,-1.0031704902648926,13.955801963806152,1.1300631761550903,-19.561767578125,69.061279296875,-14.7705078125
1.0499999,-1.0558429956436157,13.687650680541992,1.3335703611373901,-18.280029296875,57.037353515625,-0.885009765625
1.0699999,-1.1061211824417114,13.314155578613281,1.3192051649093628,-36.1175537109375,56.304931640625,10.284423828125
1.0899999,-1.1755530834197998,12.744335174560547,0.8379706144332886,-62.0269775390625,64.1937255859375,18.2952880859375
1.1099999,-1.2186486721038818,11.860875129699707,0.40701428055763245,-59.417724609375,85.5865478515625,24.0478515625
1.1299999,-1.2042834758758545,10.754754066467285,0.45250412821769714,-0.8087158203125,106.048583984375,18.4478759765625
1.1499999,-1.1252747774124146,9.821015357971191,1.0342950820922852,13.092041015625,84.6710205078125,-2.0599365234375
1.1699998999999999,-0.9983820915222168,9.23682975769043,1.8626888990402222,-35.5072021484375,51.605224609375,-3.265380859375
1.1899998999999999,-0.9768342971801758,9.167398452758789,2.473210334777832,-62.8204345703125,53.924560546875,12.2222900390625
1.2099999,-1.1300631761550903,9.5624418258667,2.5785553455352783,-28.9306640625,71.35009765625,17.88330078125
1.2299999,-1.4628572463989258,10.491392135620117,2.535459518432617,15.6707763671875,85.0067138671875,2.62451171875
1.2499999,-1.8842366933822632,11.84650993347168,2.6862943172454834,12.5885009765625,81.4361572265625,6.317138671875
1.2699999,-2.31758713722229,13.402741432189941,3.2106244564056396,-36.6668701171875,70.770263671875,46.32568359375
1.2899999,-2.674323320388794,14.935029983520508,3.8139634132385254,-36.6668701171875,56.0455322265625,75.1190185546875
1.3099999,-2.9017724990844727,16.077064514160156,4.608838081359863,23.773193359375,66.6351318359375,75.1495361328125
1.3299999,-3.0190882682800293,16.58463478088379,5.202600479125977,38.1927490234375,61.981201171875,87.7532958984375
1.3499999,-3.0119056701660156,16.658855438232422,5.793968200683594,5.18798828125,46.875,109.0545654296875
1.3699999,-2.918531894683838,16.213533401489258,6.1985883712768555,-4.9591064453125,33.9813232421875,131.4849853515625
1.3899999,-2.765302896499634,15.409082412719727,6.435614109039307,29.205322265625,31.341552734375,135.833740234375
1.4099999,-2.5498247146606445,14.393940925598145,6.524199485778809,49.560546875,29.2816162109375,131.3934326171875
1.4299998999999999,-2.2912509441375732,13.177685737609863,6.596025466918945,34.2559814453125,20.0958251953125,146.4080810546875
1.4499999,-1.9800047874450684,11.978191375732422,6.763619899749756,22.3541259765625,3.8604736328125,159.8968505859375
1.4699999,-1.647210717201233,10.685321807861328,6.861782073974609,26.5960693359375,-18.9056396484375,159.2559814453125
1.4899999,-1.2880805730819702,9.20091724395752,6.845022678375244,32.440185546875,-34.1796875,157.6385498046875
1.5099999,-0.8978256583213806,7.587224960327148,6.607996463775635,34.11865234375,-38.116455078125,149.8870849609375
1.5299999,-0.4572925269603729,6.00226354598999,6.141127586364746,20.263671875,-49.163818359375,138.1072998046875
1.5499999,0.035913024097681046,4.469974517822266,5.604825973510742,2.8839111328125,-60.0433349609375,126.007080078125
1.5699999,0.5650315880775452,3.0597896575927734,5.135562419891357,-3.9520263671875,-70.556640625,113.189697265625
1.5899999,1.1061211824417114,1.8986018896102905,4.6255974769592285,-2.8839111328125,-87.310791015625,90.4693603515625
1.6099999,1.6041151285171509,0.9313444495201111,4.127603530883789,-11.810302734375,-99.761962890625,70.12939453125
1.6299999,1.9967641830444336,0.16759411990642548,3.4979286193847656,-29.4036865234375,-106.14013671875,54.7027587890625
1.6499999,2.293645143508911,-0.2537853717803955,2.7317841053009033,-35.552978515625,-110.9161376953125,28.13720703125
1.6699999,2.535459518432617,-0.5051765441894531,1.9488801956176758,-19.6685791015625,-105.9417724609375,2.2125244140625
1.6899998999999999,2.7533318996429443,-0.37828385829925537,1.314416766166687,-2.6092529296875,-103.82080078125,-21.97265625
1.7099999,2.9328970909118652,-0.035913024097681046,0.7733271718025208,-13.6566162109375,-116.943359375,-37.109375
1.7299999,2.999934673309326,0.5602431893348694,0.2801215946674347,-39.1845703125,-128.9215087890625,-52.001953125
1.7499999,2.9065608978271484,1.3335703611373901,-0.21787235140800476,-46.44775390625,-119.781494140625,-71.136474609375
1.7699999,2.5929205417633057,2.123656988143921,-0.8571242094039917,-39.0472412109375,-108.2763671875,-85.7086181640625
1.7899999,2.2170307636260986,3.07415509223938,-1.5705963373184204,-26.580810546875,-103.9581298828125,-105.4534912109375
1.8099999,1.845929503440857,4.094084739685059,-2.2457611560821533,-45.10498046875,-92.8955078125,-113.677978515625
1.8299999,1.5298948287963867,5.020640850067139,-2.7006595134735107,-98.236083984375,-79.8187255859375,-106.6131591796875
1.8499999,1.158793568611145,5.882553577423096,-3.3518824577331543,-117.4163818359375,-86.4105224609375,-117.4468994140625
1.8699999,0.7326257228851318,6.888118267059326,-4.395754337310791,-30.5023193359375,-81.451416015625,-157.71484375
1.8899999,0.23942017555236816,8.145073890686035,-5.60722017288208,26.7486572265625,-24.6124267578125,-169.921875
1.9099999,-0.1867477297782898,9.457097053527832,-6.6391215324401855,-31.5093994140625,27.4810791015625,-131.9580078125
1.9299998999999999,-0.5315127968788147,10.769119262695312,-7.196970462799072,-98.5107421875,17.669677734375,-116.668701171875
1.9499999,-0.8379706144332886,11.693281173706055,-7.091625213623047,-57.6934814453125,12.3138427734375,-131.77490234375
1.9699999,-1.6496049165725708,13.747506141662598,-5.339069843292236,4.5928955078125,82.1075439453125,-127.0294189453125
1.9899999,-2.008735179901123,14.872780799865723,-4.062960147857666,-68.7255859375,69.64111328125,-75.3326416015625
2.0099999,-2.2002713680267334,15.784972190856934,-2.829946517944336,-89.630126953125,51.2847900390625,-49.713134765625
2.0299999,-2.2218191623687744,16.117765426635742,-1.702277421951294,-26.0467529296875,71.2890625,-54.779052734375
2.0499999,-2.1811177730560303,15.98129653930664,-1.1779472827911377,-4.3487548828125,80.6732177734375,-51.513671875
2.0699999,-2.145204782485962,15.686809539794922,-1.0055646896362305,-56.4727783203125,74.8443603515625,-23.6053466796875
2.0899999,-2.118868589401245,15.148114204406738,-1.170764684677124,-68.9239501953125,80.4595947265625,1.7547607421875
2.1099999,-2.073378562927246,14.324508666992188,-1.292868971824646,-40.557861328125,105.3314208984375,5.5999755859375
2.1299999,-2.006340980529785,13.21359920501709,-1.4077905416488647,-47.2259521484375,108.0322265625,-3.3111572265625
2.1499999,-1.8770540952682495,11.860875129699707,-0.7469909191131592,-37.628173828125,114.9749755859375,2.3193359375
2.1699999,-1.7166426181793213,10.848128318786621,0.3758896589279175,-5.9051513671875,113.28125,-3.4637451171875
2.1899999,-1.6112977266311646,10.24239444732666,1.3934253454208374,-13.4735107421875,75.74462890625,-7.476806640625
2.2099999,-1.6328455209732056,10.247182846069336,2.1787235736846924,-36.6668701171875,83.740234375,2.25830078125
2.2299999,-1.8483237028121948,10.788272857666016,2.408566951751709,-40.435791015625,111.9384765625,15.9149169921875
2.2499999,-2.2194249629974365,11.729193687438965,2.734178304672241,7.6751708984375,132.4615478515625,22.5982666015625
2.2699999,-2.6384103298187256,13.129801750183105,3.359065055847168,32.318115234375,115.6768798828125,22.8424072265625
2.2899999,-2.999934673309326,14.535198211669922,4.355052947998047,-2.3345947265625,87.7227783203125,53.4515380859375
2.3099999,-3.2369606494903564,15.76581859588623,5.336675643920898,-42.1600341796875,77.8656005859375,93.1396484375
2.3299999,-3.3063924312591553,16.474502563476562,6.076483726501465,-11.138916015625,79.89501953125,107.84912109375
2.3499999,-3.203441858291626,16.546327590942383,6.655880928039551,38.87939453125,74.798583984375,109.039306640625
2.3699999,-2.980781078338623,16.057910919189453,7.094019412994385,31.1126708984375,53.77197265625,122.955322265625
2.3899999,-2.6671407222747803,15.306131362915039,7.309497833251953,-2.0751953125,32.3638916015625,141.357421875
2.4099999,-2.367865562438965,14.403517723083496,7.115567684173584,-15.9149169921875,21.8963623046875,151.2451171875
2.4299999,-2.078166961669922,13.309367179870605,6.730101108551025,6.34765625,24.5819091796875,156.524658203125
2.4499999,-1.7573440074920654,12.210428237915039,6.361393928527832,30.8990478515625,23.13232421875,151.1383056640625
2.4699999,-1.3982137441635132,11.152191162109375,6.270414352416992,17.913818359375,1.4801025390625,151.611328125
2.4899999,-0.9600749015808105,10.213664054870605,6.540958881378174,5.035400390625,-20.69091796875,160.491943359375
2.5099999,-0.5315127968788147,9.387664794921875,6.888118267059326,-18.0206298828125,-44.49462890625,169.2657470703125
2.5299999,-0.12449848651885986,8.379706382751465,6.981492042541504,-41.717529296875,-67.0013427734375,170.22705078125
2.5499999,0.27054479718208313,7.266402244567871,6.89530086517334,-43.731689453125,-74.371337890625,153.411865234375
2.5699999,0.646434485912323,5.841852188110352,6.457161903381348,-28.3203125,-81.11572265625,139.46533203125
2.5899999,1.0462661981582642,4.369418144226074,5.765237808227539,-38.330078125,-103.21044921875,125.9613037109375
2.6099999,1.4652514457702637,2.8634653091430664,4.941632270812988,-37.6739501953125,-109.832763671875,106.2469482421875
2.6299999,1.8770540952682495,1.4939818382263184,3.955221176147461,-24.7955322265625,-107.97119140625,80.74951171875
2.6499999,2.2457611560821533,0.4405331015586853,2.889801502227783,-17.1356201171875,-109.9700927734375,50.5523681640625
2.6699999,2.542642116546631,-0.2825157940387726,1.9057846069335938,-21.4996337890625,-108.3831787109375,31.1737060546875
2.6899999,2.7557260990142822,-0.5841852426528931,1.0773907899856567,-32.7301025390625,-103.1036376953125,14.2669677734375
2.7099999,2.8993782997131348,-0.5626373887062073,0.4381389021873474,-37.1856689453125,-101.6082763671875,-8.8653564453125
2.7299999,3.0190882682800293,-0.40940847992897034,0.06464344263076782,-29.8919677734375,-97.4884033203125,-29.3731689453125
2.7499999,3.134010076522827,-0.05985504388809204,-0.17477671802043915,-22.1710205078125,-97.0916748046875,-53.03955078125
2.7699999,3.2178070545196533,0.3495534360408783,-0.31603461503982544,-34.8358154296875,-99.3194580078125,-70.3582763671875
2.7899999,3.1866824626922607,0.912190854549408,-0.5985504388809204,-56.5185546875,-102.203369140625,-86.4410400390625
2.8099999,2.9975404739379883,1.6376339197158813,-1.0749965906143188,-60.2264404296875,-98.1292724609375,-103.9886474609375
2.8299999,2.691082715988159,2.360682964324951,-1.699883222579956,-31.2042236328125,-82.427978515625,-116.7449951171875
2.8499999,2.298433542251587,3.1699230670928955,-2.387019157409668,-15.2740478515625,-71.4874267578125,-131.6680908203125
2.8699999,1.824381709098816,4.015076160430908,-3.0334534645080566,-41.0308837890625,-72.6776123046875,-141.876220703125
2.8899999,1.2761094570159912,4.924872875213623,-3.600879430770874,-60.943603515625,-64.7430419921875,-148.0865478515625
2.9099999,0.6536170840263367,6.0621185302734375,-4.290409564971924,-33.7677001953125,-48.919677734375,-160.21728515625
2.9299999,0.0454898327589035,7.371747016906738,-4.910507678985596,3.9825439453125,-21.514892578125,-168.1976318359375
2.9499999,-0.42616790533065796,8.851364135742188,-5.351040840148926,-13.9923095703125,0.91552734375,-158.9508056640625
2.9699999,-0.7206547260284424,10.38844108581543,-5.305551052093506,-60.3485107421875,8.7738037109375,-142.425537109375
2.9899999,-0.8379706144332886,11.743558883666992,-4.929661273956299,-63.5223388671875,6.744384765625,-127.7313232421875
3.0099999,-0.8810662031173706,12.892776489257812,-4.094084739685059,-35.8123779296875,23.25439453125,-125.79345703125
3.0299999,-0.9050082564353943,13.843274116516113,-3.3877954483032227,-22.796630859375,32.9742431640625,-123.3673095703125
3.0499999,-0.9097966551780701,14.70518684387207,-2.7293899059295654,-51.666259765625,39.7186279296875,-109.375
3.0699999,-0.9097966551780701,15.255853652954102,-2.2385785579681396,-71.6400146484375,51.544189453125,-78.30810546875
3.0899999,-0.8978256583213806,15.579070091247559,-1.6424223184585571,-50.3997802734375,68.511962890625,-64.117431640625
3.1099999,-0.8978256583213806,15.614983558654785,-1.01753568649292,-22.15576171875,71.8231201171875,-66.71142578125
3.1299999,-0.9792284965515137,15.22472858428955,-0.3064578175544739,-43.3502197265625,64.1632080078125,-48.553466796875
3.1499999,-1.1252747774124146,14.980520248413086,0.15083470940589905,-69.7174072265625,61.370849609375,-34.8052978515625
3.1699999,-1.3072341680526733,14.269442558288574,0.6129156351089478,-59.112548828125,78.094482421875,-14.70947265625
3.1899999,-1.4269442558288574,13.524845123291016,1.0199298858642578,-35.308837890625,91.033935546875,-15.0604248046875
3.2099999,-1.479616641998291,12.452242851257324,1.235408067703247,-41.0919189453125,60.1959228515625,-23.8189697265625
3.2299999,-1.4939818382263184,11.446678161621094,1.5131354331970215,-43.060302734375,61.9354248046875,-19.04296875
3.2499999,-1.5179238319396973,10.769119262695312,1.721431016921997,-4.7454833984375,81.7413330078125,-25.2227783203125
3.2699999,-1.580173134803772,10.611102104187012,1.9991583824157715,38.8946533203125,80.4290771484375,-28.4881591796875
3.2899999,-1.678335428237915,11.109095573425293,2.1978771686553955,14.6026611328125,49.1180419921875,-20.93505859375
3.3099999,-1.8052281141281128,11.942277908325195,2.094926595687866,-29.815673828125,35.46142578125,7.50732421875
3.3299999000000002,-2.006340980529785,12.887988090515137,1.8938134908676147,-17.0745849609375,77.6824951171875,29.4036865234375
3.3499999,-2.276885747909546,13.601459503173828,1.7597382068634033,20.599365234375,109.3292236328125,35.675048828125
3.3699999,-2.5546131134033203,14.255077362060547,1.9776105880737305,-8.5906982421875,88.5467529296875,31.73828125
3.3899999,-2.8203697204589844,14.67166805267334,2.5785553455352783,-50.4913330078125,67.32177734375,57.6019287109375
3.4099999,-2.96162748336792,14.954183578491211,3.5745432376861572,-8.36181640625,94.1314697265625,86.5936279296875
3.4299999,-3.002328872680664,15.116989135742188,4.467580318450928,29.84619140625,92.1478271484375,86.24267578125
3.4499999,-3.0095114707946777,15.028404235839844,5.22175407409668,18.5546875,59.2041015625,90.02685546875
3.4699999,-2.9975404739379883,14.968548774719238,5.901707172393799,7.4005126953125,54.7943115234375,107.2998046875
3.4899999,-2.9664158821105957,14.441824913024902,6.196194171905518,8.4991455078125,44.2352294921875,149.749755859375
3.5099999,-2.8419175148010254,13.55357551574707,6.189011573791504,8.4075927734375,34.24072265625,148.8037109375
3.5299999,-2.559401512145996,12.368446350097656,6.167463779449463,9.124755859375,31.158447265625,136.932373046875
3.5499999,-2.1739351749420166,10.934319496154785,6.033388137817383,3.631591796875,12.8936767578125,135.19287109375
3.5699999,-1.702277421951294,9.787496566772461,6.007051944732666,3.1585693359375,5.1422119140625,134.002685546875
3.5899999,-1.2186486721038818,8.877699851989746,6.007051944732666,9.5977783203125,-1.2664794921875,132.0953369140625
3.6099999,-0.7469909191131592,8.094796180725098,6.042964935302734,18.73779296875,-17.6849365234375,138.671875
3.6299999,-0.24899697303771973,7.436390399932861,6.114790916442871,9.552001953125,-34.4696044921875,133.3770751953125
3.6499999,0.24420857429504395,6.600813865661621,6.026205539703369,-6.6680908203125,-51.239013671875,130.9967041015625
3.6699999,0.7398083209991455,5.7772088050842285,5.748478412628174,-10.3912353515625,-64.788818359375,122.7569580078125
3.6899999,1.2234370708465576,4.944026470184326,5.257667064666748,3.997802734375,-69.03076171875,109.9853515625
3.7099999,1.6759412288665771,4.094084739685059,4.666299343109131,4.425048828125,-74.920654296875,103.0731201171875
3.7299999,2.140416383743286,3.2848446369171143,3.995922565460205,-12.7105712890625,-84.7625732421875,91.217041015625
3.7499999,2.609679937362671,2.477998733520508,3.4548330307006836,-35.4766845703125,-89.8895263671875,71.441650390625
3.7699999,3.043030261993408,1.6855180263519287,2.9161376953125,-49.6368408203125,-99.1973876953125,54.87060546875
3.7899999,3.426102638244629,1.0773907899856567,2.3798365592956543,-41.0919189453125,-109.6343994140625,30.120849609375
3.8099999,3.7181951999664307,0.6057330369949341,1.8339585065841675,-4.4097900390625,-103.5308837890625,5.279541015625
3.8299999000000002,3.9025487899780273,0.3902548849582672,1.338358759880066,5.126953125,-96.1761474609375,-18.707275390625
3.8499999,3.9432501792907715,0.5602431893348694,0.8786720037460327,-25.4058837890625,-105.8502197265625,-42.755126953125
3.8699999,3.823540210723877,0.9600749015808105,0.45010992884635925,-51.0406494140625,-121.2005615234375,-52.2308349609375
3.8899999,3.5410242080688477,1.6519991159439087,-0.07661445438861847,-50.567626953125,-119.415283203125,-65.3076171875
3.9099999,3.134010076522827,2.343923568725586,-0.7829039692878723,-44.9981689453125,-106.2469482421875,-80.6732177734375
3.9299999,2.693476915359497,2.9927520751953125,-1.6089035272598267,-36.6668701171875,-94.146728515625,-99.700927734375
3.9499999,2.2649147510528564,3.3494882583618164,-2.360682964324951,-30.2734375,-85.38818359375,-108.001708984375
3.9699999,1.86508309841156,3.758896589279175,-3.0885202884674072,-39.581298828125,-85.4339599609375,-127.44140625
3.9899999,1.4676456451416016,4.0964789390563965,-3.687070608139038,-56.6253662109375,-75.3021240234375,-138.4124755859375
4.0099999,1.015141487121582,4.568136692047119,-4.462791919708252,-42.3431396484375,-56.7779541015625,-145.6146240234375
4.029999900000001,0.5291185975074768,5.288791656494141,-5.360617637634277,0.48828125,-30.70068359375,-160.369873046875
4.0499999,0.026336219161748886,5.947196960449219,-6.095637321472168,-25.20751953125,13.397216796875,-154.022216796875
4.069999900000001,-0.5530605912208557,6.75883150100708,-6.603208065032959,-98.57177734375,36.3311767578125,-150.0244140625
4.0899999000000005,-1.2856862545013428,7.682993412017822,-6.8378400802612305,-57.2662353515625,48.7213134765625,-172.05810546875
4.1099999,-2.073378562927246,9.229647636413574,-6.349422931671143,59.1278076171875,87.82958984375,-202.08740234375
4.1299999000000005,-2.8419175148010254,11.113883972167969,-5.3582234382629395,22.8271484375,107.4371337890625,-176.1322021484375
4.1499999,-3.4811692237854004,13.412318229675293,-3.8953661918640137,-117.706298828125,76.4923095703125,-136.6424560546875
4.1699999000000005,-3.9432501792907715,15.670049667358398,-2.43011474609375,-98.1903076171875,50.5828857421875,-121.1395263671875
4.1899999,-4.211400985717773,17.834407806396484,-1.2976573705673218,20.1873779296875,68.817138671875,-117.2332763671875
4.209999900000001,-4.364629745483398,19.43852424621582,-0.9433154463768005,2.99072265625,84.04541015625,-69.366455078125
4.2299999,-4.268861770629883,20.35789680480957,-1.3000515699386597,-93.81103515625,73.6236572265625,-12.7105712890625
4.249999900000001,-3.8762125968933105,20.254945755004883,-1.7286136150360107,-99.42626953125,91.766357421875,9.063720703125
4.2699999,-3.2824504375457764,18.667591094970703,-1.7501614093780518,-37.78076171875,125.9765625,29.815673828125
4.289999900000001,-2.6216509342193604,16.479290008544922,-1.3838485479354858,-54.229736328125,110.8245849609375,22.8118896484375
4.3099999,-2.1356279850006104,14.362815856933594,-0.706289529800415,-96.466064453125,84.503173828125,14.6026611328125
4.329999900000001,-1.9057846069335938,12.935872077941895,0.24899697303771973,-61.2030029296875,111.0687255859375,43.4722900390625
4.3499999,-1.9177556037902832,12.416330337524414,1.2976573705673218,5.767822265625,148.162841796875,78.7353515625
4.369999900000001,-2.10210919380188,12.121843338012695,2.161964178085327,-21.240234375,112.5640869140625,102.508544921875
4.3899999,-2.3247697353363037,11.743558883666992,2.9759926795959473,-61.8438720703125,89.7216796875,92.4072265625
4.409999900000001,-2.513911724090576,11.408370971679688,3.737348794937134,-35.003662109375,122.7264404296875,54.534912109375
4.4299999,-2.674323320388794,11.288661003112793,4.431667327880859,22.4761962890625,139.984130859375,53.16162109375
4.449999900000001,-2.7892448902130127,11.654973983764648,5.30076265335083,15.7470703125,104.5684814453125,74.27978515625
4.4699999,-2.853888511657715,12.459425926208496,6.3973069190979,-41.6259765625,75.3936767578125,86.700439453125
4.489999900000001,-2.853888511657715,13.060370445251465,7.51779317855835,-34.6221923828125,76.171875,94.3145751953125
4.5099999,-2.75812029838562,13.500903129577637,8.154650688171387,16.90673828125,53.7872314453125,95.7794189453125
4.529999900000001,-2.585737943649292,13.658920288085938,8.439560890197754,42.572021484375,31.1279296875,93.2464599609375
4.5499999,-2.341529369354248,13.601459503173828,8.437167167663574,33.99658203125,33.1878662109375,106.7047119140625
4.569999900000001,-2.1092917919158936,13.407529830932617,8.034940719604492,2.4871826171875,18.5546875,118.0419921875
4.5899999000000005,-1.8818424940109253,13.041216850280762,7.620744228363037,-4.57763671875,-0.9613037109375,131.6680908203125
4.609999900000001,-1.6711528301239014,12.385205268859863,7.184999465942383,17.6239013671875,-10.1776123046875,140.0299072265625
4.6299999000000005,-1.4245500564575195,11.475408554077148,6.660669326782227,21.8505859375,-21.942138671875,140.1519775390625
4.6499999,-1.137245774269104,10.412383079528809,6.157886981964111,11.016845703125,-25.0091552734375,132.9498291015625
4.6699999000000005,-0.7757213711738586,9.208099365234375,5.770026206970215,7.5225830078125,-27.587890625,136.7340087890625
4.6899999,-0.3423708379268646,8.04930591583252,5.489904403686523,-3.570556640625,-43.853759765625,136.5966796875
4.709999900000001,0.15083470940589905,6.868964672088623,5.432443618774414,-10.009765625,-59.7686767578125,128.2501220703125
4.7299999,0.6751648783683777,5.7125654220581055,5.351040840148926,-3.143310546875,-72.6318359375,116.0888671875
4.749999900000001,1.1516109704971313,4.563348293304443,5.1116204261779785,-8.209228515625,-87.493896484375,106.6436767578125
4.7699999,1.5610195398330688,3.6559460163116455,4.747702121734619,-16.510009765625,-91.827392578125,91.064453125
4.789999900000001,1.8746598958969116,2.827552318572998,4.288015365600586,-27.801513671875,-98.7548828125,82.305908203125
4.8099999,2.1045033931732178,2.1308395862579346,3.751713991165161,-48.5687255859375,-114.532470703125,73.6083984375
4.829999900000001,2.276885747909546,1.5945383310317993,3.1914708614349365,-49.4842529296875,-123.199462890625,50.4302978515625
4.8499999,2.4157495498657227,0.950498104095459,2.5019407272338867,-23.834228515625,-120.7122802734375,31.0516357421875
4.869999900000001,2.5785553455352783,0.4884171485900879,1.8363527059555054,-9.21630859375,-112.24365234375,5.2642822265625
4.8899999,2.760514497756958,0.16519992053508759,1.2306196689605713,-15.716552734375,-112.3504638671875,-23.590087890625
4.909999900000001,2.9520506858825684,0.004788403399288654,0.6512228846549988,-36.07177734375,-127.1209716796875,-39.764404296875
4.9299999,3.066972494125366,0.15562310814857483,0.043095629662275314,-45.074462890625,-130.8441162109375,-60.882568359375
4.949999900000001,3.045424461364746,0.49799394607543945,-0.8595184087753296,-27.2979736328125,-122.2686767578125,-84.8846435546875
4.9699999,2.920926094055176,1.1492167711257935,-1.900996208190918,-5.6915283203125,-101.0284423828125,-106.475830078125
4.989999900000001,2.7126305103302,1.8794482946395874,-2.889801502227783,-10.3302001953125,-81.97021484375,-115.966796875
5.0099999,2.451662540435791,2.691082715988159,-3.5266590118408203,-43.0145263671875,-78.9642333984375,-121.429443359375
5.029999900000001,1.5849615335464478,4.446032524108887,-4.261679172515869,-14.434814453125,-84.7320556640625,-160.6597900390625
5.0499999,1.0223240852355957,5.5976433753967285,-4.707000732421875,-1.2359619140625,-57.31201171875,-164.2608642578125
5.069999900000001,0.4620809257030487,6.957550048828125,-5.166687488555908,-40.374755859375,-29.815673828125,-153.961181640625
5.0899999000000005,-0.06464344263076782,8.449137687683105,-5.339069843292236,-51.7120361328125,-19.71435546875,-151.4434814453125
5.109999900000001,-0.5219359993934631,10.036493301391602,-5.47075080871582,-9.124755859375,-26.092529296875,-157.9132080078125
5.1299999000000005,-0.8882488012313843,11.798625946044922,-5.324704647064209,-2.6092529296875,-5.8746337890625,-151.0009765625
5.1499999,-1.1204863786697388,13.287819862365723,-5.0876784324646,-53.558349609375,30.7769775390625,-110.4888916015625
5.1699999000000005,-1.1803414821624756,14.360422134399414,-4.73573112487793,-105.377197265625,33.0963134765625,-83.984375
5.1899999,-1.1300631761550903,14.755465507507324,-3.97916316986084,-56.5643310546875,43.701171875,-96.710205078125
5.209999900000001,-1.1109095811843872,14.642937660217285,-3.0190882682800293,32.53173828125,58.746337890625,-111.6790771484375
5.2299999,-1.173158884048462,14.36760425567627,-1.9177556037902832,34.5458984375,65.4449462890625,-99.700927734375
5.249999900000001,-1.3024457693099976,14.283807754516602,-0.9959878921508789,-43.0450439453125,49.4232177734375,-80.322265625
5.2699999,-1.436521053314209,14.18803882598877,-0.3064578175544739,-82.550048828125,37.4298095703125,-60.821533203125
5.289999900000001,-1.5322890281677246,14.0635404586792,0.4572925269603729,-20.965576171875,67.07763671875,-54.3212890625
5.3099999,-1.6208745241165161,13.833697319030762,0.9026140570640564,8.5296630859375,59.08203125,-51.6204833984375
5.329999900000001,-1.7405846118927002,13.448230743408203,1.2306196689605713,-22.1710205078125,37.29248046875,-38.14697265625
5.3499999,-1.9177556037902832,13.182474136352539,1.0223240852355957,-56.915283203125,33.9202880859375,-31.7535400390625
5.369999900000001,-2.121262788772583,12.911930084228516,0.304063618183136,-55.3741455078125,50.750732421875,-21.17919921875
5.3899999,-2.250549554824829,12.586318016052246,0.10773907601833344,13.763427734375,103.302001953125,-8.4075927734375
5.409999900000001,-2.276885747909546,12.315773963928223,0.31603461503982544,26.580810546875,89.29443359375,-10.3912353515625
5.4299999,-2.1954829692840576,12.121843338012695,1.2186486721038818,-31.982421875,33.2183837890625,-14.129638671875
5.449999900000001,-2.121262788772583,12.361263275146484,2.3942017555236816,-45.5474853515625,37.2467041015625,-6.103515625
5.4699999,-2.164358377456665,13.127408027648926,3.445256233215332,2.655029296875,56.8695068359375,9.9945068359375
5.489999900000001,-2.3535003662109375,14.657302856445312,4.481945514678955,48.0804443359375,56.427001953125,22.7813720703125
5.5099999,-2.7030537128448486,16.503232955932617,5.370194435119629,20.7366943359375,11.260986328125,56.182861328125
5.529999900000001,-3.141192674636841,18.35395050048828,5.889736175537109,-22.2320556640625,-17.9290771484375,103.3935546875
5.5499999,-3.646369218826294,19.768922805786133,5.614402770996094,-5.37109375,-15.106201171875,136.3067626953125
5.569999900000001,-4.216189384460449,20.556615829467773,4.596867084503174,50.140380859375,2.25830078125,160.5682373046875
5.5899999000000005,-4.821922302246094,20.736181259155273,3.24414324760437,70.1751708984375,14.739990234375,187.19482421875
5.609999900000001,-5.360617637634277,20.36029052734375,2.1332337856292725,57.9071044921875,22.4456787109375,228.9581298828125
5.6299999000000005,-5.719748020172119,19.572599411010742,1.4460978507995605,35.94970703125,16.998291015625,268.1121826171875
5.6499999,-5.813121795654297,17.7937068939209,1.0797849893569946,19.3634033203125,1.6632080078125,308.502197265625
5.6699999000000005,-5.497087001800537,15.162479400634766,0.9816226959228516,0.9002685546875,2.166748046875,320.1141357421875
5.6899999,-4.817133903503418,11.815385818481445,0.9002198576927185,10.9710693359375,14.251708984375,294.0216064453125
5.709999900000001,-3.794809579849243,8.123526573181152,0.9002198576927185,36.6058349609375,16.78466796875,287.4755859375
5.7299999,-2.6144683361053467,4.644751071929932,0.9672574996948242,30.0140380859375,6.6375732421875,286.9720458984375
5.749999900000001,-1.3886369466781616,1.0965443849563599,1.0821791887283325,-30.2734375,-6.5460205078125,286.3006591796875
5.7699999,-0.2059013396501541,-2.0614075660705566,0.9816226959228516,-97.442626953125,-14.4500732421875,223.0224609375
5.789999900000001,0.9097966551780701,-5.094861030578613,0.6416460275650024,-129.547119140625,-19.6380615234375,165.069580078125
5.8099999,1.9321208000183105,-7.716512203216553,0.1412578970193863,-93.44482421875,-9.124755859375,132.0648193359375
5.829999900000001,2.7533318996429443,-9.830592155456543,-0.5386953949928284,-67.108154296875,-10.0555419921875,83.55712890625
5.8499999,3.270479440689087,-11.889605522155762,-1.091755986213684,-89.080810546875,-1.617431640625,27.8167724609375
5.869999900000001,3.3638534545898438,-13.357251167297363,-1.6065093278884888,-100.9063720703125,16.2811279296875,-67.901611328125
5.8899999,2.956839084625244,-14.791378021240234,-1.8818424940109253,-60.36376953125,30.4718017578125,-134.5062255859375
5.909999900000001,2.0422539710998535,-15.260642051696777,-1.9560627937316895,-6.866455078125,42.7398681640625,-215.63720703125
5.9299999,0.5578489899635315,-15.22472858428955,-1.821987509727478,-9.9945068359375,46.7071533203125,-299.774169921875
5.949999900000001,-1.723825216293335,-14.90869426727295,-1.235408067703247,-48.3245849609375,64.483642578125,-364.4866943359375
5.9699999,-5.149928092956543,-12.952630996704102,-0.22026655077934265,-97.2747802734375,73.8067626953125,-493.6676025390625
5.989999900000001,-9.816226959228516,-8.762778282165527,0.038307227194309235,-1.6021728515625,44.281005859375,-500
6.0099999,-14.719552040100098,0.5626373887062073,0.667982280254364,78.8421630859375,90.8966064453125,-500
6.029999900000001,-18.088193893432617,13.443442344665527,2.719813108444214,-13.8397216796875,229.1717529296875,-500
6.0499999,-19.033903121948242,24.521413803100586,4.63517427444458,-199.3408203125,44.6624755859375,-125.2288818359375
6.069999900000001,-17.353174209594727,32.908302307128906,6.6391215324401855,-174.224853515625,-129.1961669921875,-111.02294921875
6.0899999000000005,-13.900734901428223,34.57466506958008,8.245630264282227,48.6297607421875,33.1573486328125,-205.841064453125
6.109999900000001,-10.623072624206543,30.849288940429688,7.5632829666137695,11.29150390625,-1.7242431640625,216.9189453125
6.1299999000000005,-7.967903137207031,29.422344207763672,7.091625213623047,77.7435302734375,38.1317138671875,-125.0457763671875
6.149999900000001,-6.543353080749512,27.619510650634766,6.528987884521484,53.4210205078125,15.56396484375,-128.662109375
6.1699999000000005,-6.138733386993408,27.224468231201172,6.629544734954834,68.8934326171875,-22.552490234375,268.707275390625
6.1899999,-6.689399719238281,28.275522232055664,6.730101108551025,98.3123779296875,5.523681640625,215.51513671875
6.209999900000001,-7.857769966125488,26.929981231689453,6.5696892738342285,53.253173828125,-41.7327880859375,271.2860107421875
6.2299999,-9.160215377807617,24.456769943237305,6.026205539703369,66.6046142578125,-43.0145263671875,378.173828125
6.249999900000001,-10.046070098876953,20.324378967285156,4.95120906829834,85.3424072265625,-19.8822021484375,393.035888671875
6.2699999,-10.192116737365723,15.43062973022461,3.7205893993377686,94.23828125,18.4478759765625,320.343017578125
6.289999900000001,-9.466673851013184,10.187328338623047,2.6001031398773193,66.253662109375,3.1585693359375,333.6944580078125
6.3099999,-8.267178535461426,5.803544998168945,1.9584569931030273,57.0831298828125,-8.72802734375,387.298583984375
6.329999900000001,-6.818686485290527,0.7015010714530945,1.45806884765625,9.0789794921875,-17.8680419921875,429.5806884765625
6.3499999,-5.212177276611328,-3.0310592651367188,0.8571242094039917,-7.1868896484375,-8.087158203125,252.288818359375
6.369999900000001,-3.469198226928711,-7.0988078117370605,0.08858546614646912,-9.9029541015625,-2.8839111328125,149.261474609375
6.3899999,-1.6089035272598267,-9.749189376831055,-0.4165911078453064,-0.3814697265625,14.9383544921875,205.841064453125
6.409999900000001,-0.1149216815829277,-12.868834495544434,-0.8954314589500427,-20.6298828125,-3.387451171875,217.010498046875
6.4299999,0.7924807667732239,-16.378734588623047,-0.8810662031173706,-89.630126953125,-20.538330078125,99.2889404296875
6.449999900000001,0.9840168952941895,-19.07221031188965,-0.8834604024887085,-41.961669921875,-12.786865234375,-216.156005859375
6.4699999,0.5746083855628967,-21.284452438354492,-0.9241618514060974,-0.8392333984375,-10.07080078125,-271.1639404296875
6.489999900000001,-0.38307225704193115,-20.48000144958496,-1.0869675874710083,-8.7432861328125,2.8533935546875,-298.4771728515625
6.5099999,-1.9345149993896484,-17.276559829711914,-1.2449848651885986,-49.74365234375,15.7470703125,-433.41064453125
6.529999900000001,-4.369418144226074,-12.322956085205078,-1.3215993642807007,-1.0528564453125,27.6336669921875,-500
6.5499999,-9.160215377807617,7.9415669441223145,-1.2090718746185303,-6.805419921875,67.81005859375,-500
6.569999900000001,-10.213664054870605,19.02432632446289,-0.40462008118629456,23.8037109375,105.865478515625,-265.289306640625
6.5899999000000005,-10.11550235748291,28.73999786376953,1.7764976024627686,2.2735595703125,100.03662109375,-238.2354736328125
6.609999900000001,-9.57441234588623,34.787750244140625,4.223371982574463,-43.4417724609375,-2.044677734375,-200.5615234375
6.6299999000000005,-9.129091262817383,38.56819534301758,5.904101371765137,-18.1732177734375,-93.1549072265625,-98.114013671875
6.649999900000001,-9.0859956741333,40.45961380004883,6.6630635261535645,7.38525390625,-11.0321044921875,45.95947265625
6.6699999000000005,-9.153033256530762,39.79642105102539,5.616796970367432,-30.2276611328125,17.7001953125,184.2193603515625
6.6899999,-9.126696586608887,37.06224060058594,4.218583583831787,-32.1807861328125,-8.60595703125,215.240478515625
6.709999900000001,-9.064447402954102,32.348060607910156,3.1962592601776123,70.1446533203125,16.998291015625,230.1788330078125
6.7299999,-9.023746490478516,27.686548233032227,2.6024973392486572,134.0179443359375,41.8243408203125,267.4102783203125
6.749999900000001,-9.138668060302734,22.876596450805664,2.2601263523101807,88.0126953125,23.834228515625,362.640380859375
6.7699999,-9.102754592895508,18.071434020996094,2.1523873805999756,14.1754150390625,4.9591064453125,435.394287109375
6.789999900000001,-8.78193187713623,12.825738906860352,1.8195933103561401,-19.2718505859375,-2.0599365234375,390.5792236328125
6.8099999,-7.94635534286499,6.9240312576293945,1.4700398445129395,-7.110595703125,0.91552734375,358.3984375
6.829999900000001,-6.557718276977539,0.3878606855869293,0.9169792532920837,-20.5535888671875,-8.85009765625,360.5194091796875
6.8499999,-4.639962673187256,-6.399701118469238,0.5147533416748047,-61.614990234375,-22.491455078125,318.1915283203125
6.869999900000001,-2.5234885215759277,-13.160926818847656,0.1604115068912506,-70.098876953125,-31.0211181640625,181.94580078125
6.8899999,-0.5219359993934631,-19.656396865844727,-0.45489832758903503,-98.9990234375,-57.6019287109375,65.582275390625
6.909999900000001,0.8930372595787048,-24.71773910522461,-1.455674648284912,-79.0863037109375,-59.906005859375,-45.196533203125
6.9299999,1.357512354850769,-27.10715103149414,-2.5067291259765625,-6.7901611328125,0.732421875,-199.188232421875
6.949999900000001,0.8140285611152649,-26.62112808227539,-3.138798475265503,-19.3939208984375,47.7142333984375,-300.4913330078125
6.9699999,-0.7206547260284424,-23.281217575073242,-2.985569477081299,-76.1260986328125,31.494140625,-345.76416015625
6.989999900000001,-3.3255462646484375,-17.776947021484375,-2.1475989818573,-20.721435546875,12.7105712890625,-414.61181640625
7.0099999,-6.75883150100708,-9.825803756713867,-1.400607943534851,78.0792236328125,31.890869140625,-500
7.029999900000001,-10.177751541137695,1.9919757843017578,0.19632454216480255,-13.3056640625,96.74072265625,-500
7.0499999,-13.10107135772705,14.245500564575195,2.207453966140747,-38.6962890625,90.7440185546875,-372.3602294921875
7.069999900000001,-14.714763641357422,28.167783737182617,4.010287761688232,-16.4337158203125,-58.3343505859375,-183.6090087890625
7.0899999000000005,-14.657302856445312,40.58890151977539,6.1052141189575195,27.28271484375,-32.71484375,-199.4476318359375
7.109999900000001,-13.469779014587402,47.551239013671875,6.433219909667969,-20.0042724609375,-10.7574462890625,50.8270263671875
7.1299999000000005,-11.384428977966309,50.03642272949219,5.420472621917725,-48.8433837890625,-33.7677001953125,220.855712890625
7.149999900000001,-9.148244857788086,47.551239013671875,4.1874589920043945,48.9501953125,20.233154296875,190.582275390625
7.1699999000000005,-7.343016624450684,41.18745040893555,3.095702886581421,110.2447509765625,70.404052734375,218.3380126953125
7.1899999,-6.423643112182617,33.48051834106445,2.434903144836426,44.5404052734375,29.632568359375,310.1806640625
7.209999900000001,-6.378153324127197,25.905261993408203,2.3774423599243164,7.568359375,3.96728515625,372.6806640625
7.2299999,-6.785167694091797,18.547880172729492,2.315192937850952,50.8575439453125,16.0980224609375,383.636474609375
7.249999900000001,-7.182605266571045,11.829751014709473,2.1763293743133545,67.291259765625,33.1573486328125,362.97607421875
7.2699999,-7.237671852111816,5.738901615142822,1.9512743949890137,42.6788330078125,23.6358642578125,356.658935546875
7.289999900000001,-6.739677906036377,-0.31603461503982544,1.9943699836730957,-11.5814208984375,1.312255859375,380.7830810546875
7.3099999,-5.669469833374023,-5.9519853591918945,2.5689783096313477,-24.47509765625,-14.70947265625,303.6041259765625
7.329999900000001,-4.1874589920043945,-11.911153793334961,2.8155810832977295,-34.637451171875,-87.738037109375,180.8929443359375
7.3499999,-2.4803929328918457,-17.705121994018555,2.1068975925445557,-107.696533203125,-163.1927490234375,110.321044921875
7.369999900000001,-0.9289502501487732,-22.558168411254883,0.5147533416748047,-119.7662353515625,-89.569091796875,-3.3416748046875
7.3899999,0.05985504388809204,-25.752033233642578,-1.721431016921997,-77.911376953125,6.53076171875,-148.1170654296875
7.409999900000001,0.24660277366638184,-26.767175674438477,-3.7924153804779053,-57.647705078125,8.9874267578125,-267.76123046875
7.4299999,-0.4884171485900879,-24.77519989013672,-4.58968448638916,-54.0008544921875,28.4576416015625,-365.6158447265625
7.449999900000001,-2.298433542251587,-20.156784057617188,-3.5242648124694824,-37.5213623046875,94.879150390625,-425.1861572265625
7.4699999,-5.260061264038086,-12.797008514404297,-1.6280571222305298,-37.3382568359375,73.1964111328125,-500
7.489999900000001,-8.949525833129883,-2.3702597618103027,0.6488286852836609,26.9775390625,4.5318603515625,-500
7.5099999,-12.373234748840332,10.910377502441406,2.477998733520508,109.9090576171875,25.5279541015625,-500
7.529999900000001,-14.34366226196289,25.673025131225586,3.9264907836914062,-70.37353515625,48.5687255859375,-338.2720947265625
7.5499999,-14.279019355773926,36.76057434082031,4.321534156799316,-206.0394287109375,-9.796142578125,-19.7296142578125
7.569999900000001,-12.42111873626709,44.13471603393555,4.101267337799072,-100.15869140625,-50.872802734375,-11.627197265625
7.5899999000000005,-9.852140426635742,46.05486297607422,4.01268196105957,104.217529296875,75.3936767578125,-81.207275390625
7.609999900000001,-7.682993412017822,44.127532958984375,3.799597978591919,97.0306396484375,107.11669921875,76.3397216796875
7.6299999000000005,-6.485892295837402,41.106048583984375,3.9408559799194336,-39.3524169921875,9.613037109375,216.73583984375
7.649999900000001,-6.289567947387695,36.77014923095703,4.194641590118408,-33.447265625,-42.449951171875,265.472412109375
7.6699999000000005,-6.864176273345947,31.541213989257812,4.0964789390563965,98.0682373046875,16.448974609375,286.56005859375
7.6899999,-7.876923561096191,25.95075225830078,3.624821424484253,130.096435546875,68.1304931640625,337.70751953125
7.709999900000001,-8.87291145324707,19.835960388183594,3.064578056335449,36.376953125,28.9459228515625,425.506591796875
7.7299999,-9.425971984863281,13.867216110229492,2.7676970958709717,-52.67333984375,-28.1524658203125,427.5054931640625
7.749999900000001,-9.320627212524414,7.539340972900391,2.3965959548950195,-30.0445556640625,-38.238525390625,386.2457275390625
7.7699999,-8.406042098999023,1.2042834758758545,1.6424223184585571,18.3563232421875,-19.6533203125,372.55859375
7.789999900000001,-6.789956092834473,-5.676652431488037,0.7541735172271729,-23.529052734375,-15.533447265625,375.5340576171875
7.8099999,-4.692635536193848,-12.327744483947754,-0.2082955539226532,-72.5555419921875,-30.731201171875,259.490966796875
7.829999900000001,-2.4803929328918457,-18.270153045654297,-1.2521674633026123,-78.5369873046875,-47.3785400390625,76.2481689453125
7.8499999,-0.5386953949928284,-23.13517189025879,-2.2816741466522217,-71.929931640625,-20.7061767578125,3.60107421875
7.869999900000001,0.706289529800415,-25.627534866333008,-3.2609026432037354,-66.4520263671875,13.5650634765625,-80.078125
7.8899999,1.0199298858642578,-25.713726043701172,-3.8953661918640137,4.5623779296875,37.4603271484375,-234.039306640625
7.909999900000001,0.30885201692581177,-24.143129348754883,-3.6798880100250244,35.552978515625,57.8765869140625,-327.3773193359375
7.9299999,-1.4173674583435059,-20.83673667907715,-2.7126305103302,-29.1900634765625,63.995361328125,-402.16064453125
7.949999900000001,-4.252102375030518,-16.10340118408203,-1.0749965906143188,-42.083740234375,57.2052001953125,-500
7.9699999,-8.44434928894043,-9.651026725769043,0.4884171485900879,82.8857421875,41.046142578125,-500
7.989999900000001,-13.201627731323242,1.05105459690094,1.4891934394836426,110.137939453125,29.8004150390625,-500
8.0099999,-17.118541717529297,14.72673511505127,3.0190882682800293,-48.0194091796875,71.441650390625,-500
8.0299999,-19.278112411499023,27.04011344909668,4.383783340454102,-155.059814453125,32.2265625,-138.214111328125
8.049999900000001,-18.988412857055664,37.60811996459961,5.20978307723999,-109.8175048828125,-90.4693603515625,-95.8251953125
8.069999900000001,-14.015656471252441,43.0046501159668,5.149928092956543,69.244384765625,51.544189453125,4.8370361328125
8.0899999,-11.224017143249512,41.08210754394531,3.931279182434082,-29.937744140625,6.591796875,153.7628173828125
8.1099999,-8.851364135742188,37.028724670410156,3.2106244564056396,-23.13232421875,-3.4942626953125,186.187744140625
8.129999900000001,-7.201758861541748,31.47657012939453,2.9664158821105957,28.9459228515625,19.4549560546875,195.526123046875
8.149999900000001,-6.320692539215088,25.783157348632812,2.9281086921691895,31.3720703125,11.505126953125,233.5205078125
8.1699999,-6.071695327758789,20.951658248901367,3.1004912853240967,16.4947509765625,-2.105712890625,295.318603515625
8.1899999,-5.96874475479126,16.117765426635742,3.047818660736084,13.031005859375,-10.4217529296875,379.6539306640625
8.2099999,-5.544970989227295,10.551246643066406,2.9903578758239746,-43.27392578125,-20.44677734375,426.1322021484375
8.229999900000001,-4.55616569519043,4.271255970001221,2.647987127304077,-32.073974609375,-34.8358154296875,337.2344970703125
8.2499999,-3.155557870864868,-1.702277421951294,2.0901381969451904,15.594482421875,-54.962158203125,232.72705078125
8.2699999,-1.7501614093780518,-6.507440090179443,1.2832920551300049,67.7947998046875,-45.166015625,236.175537109375
8.2899999,-0.7086837291717529,-9.579200744628906,0.12689268589019775,7.354736328125,-41.290283203125,267.15087890625
8.309999900000001,-0.16759411990642548,-11.36048698425293,-1.1109095811843872,-63.690185546875,-30.5938720703125,208.587646484375
8.3299999,-0.035913024097681046,-13.15613842010498,-2.296039342880249,-43.8232421875,-9.368896484375,113.2965087890625
8.3499999,-0.35913026332855225,-16.5247802734375,-3.2992098331451416,-69.64111328125,13.2904052734375,33.3404541015625
8.3699999,-1.4413094520568848,-19.041086196899414,-3.2632968425750732,-100.616455078125,78.887939453125,-251.2359619140625
8.389999900000001,-3.6367924213409424,-20.087352752685547,-2.161964178085327,38.360595703125,101.9287109375,-500
8.4099999,-7.405265808105469,-17.02277374267578,-0.9409212470054626,87.5701904296875,5.126953125,-500
8.4299999,-11.892000198364258,-6.174646377563477,0.8236053586006165,-25.482177734375,18.73779296875,-500
8.4499999,-15.662867546081543,10.141838073730469,2.7317841053009033,-13.702392578125,137.1002197265625,-500
8.469999900000001,-17.834407806396484,26.137500762939453,4.137180328369141,52.337646484375,69.4427490234375,-143.7225341796875
8.4899999,-17.48724937438965,40.555381774902344,5.592854976654053,-9.6588134765625,-32.867431640625,-5.9356689453125
8.5099999,-15.356410026550293,46.77791213989258,6.191405773162842,-42.8466796875,-25.4669189453125,22.9644775390625
8.5299999,-12.557587623596191,46.44511795043945,5.7987565994262695,-4.21142578125,7.5836181640625,153.7628173828125
8.549999900000001,-9.99339771270752,42.16428756713867,4.917690277099609,31.31103515625,24.383544921875,184.8602294921875
8.569999900000001,-8.259995460510254,35.501224517822266,4.072536945343018,36.3006591796875,12.176513671875,234.55810546875
8.5899999,-7.46033239364624,28.62028694152832,3.6511576175689697,19.10400390625,4.3792724609375,300.8880615234375
8.6099999,-7.398083209991455,22.464794158935547,3.397372245788574,-8.1787109375,-6.744384765625,348.20556640625
8.629999900000001,-7.692570209503174,17.056293487548828,3.0789434909820557,-27.2979736328125,-34.3017578125,392.8375244140625
8.649999900000001,-8.006210327148438,12.380416870117188,2.5953147411346436,-7.659912109375,-43.88427734375,432.647705078125
8.6699999,-8.066065788269043,6.720524311065674,1.5610195398330688,-15.716552734375,-48.9349365234375,499.9847412109375
8.6899999,-7.436390399932861,-1.072602391242981,0.4692635238170624,-165.130615234375,-49.37744140625,499.9847412109375
8.709999900000001,-6.00226354598999,-9.11233139038086,-0.5339069962501526,-106.170654296875,-25.909423828125,225.830078125
8.729999900000001,-3.8498764038085938,-16.359580993652344,-1.7381904125213623,1.15966796875,-77.0721435546875,2.5787353515625
8.7499999,-1.5131354331970215,-20.985177993774414,-2.9712042808532715,34.9578857421875,-91.6595458984375,45.7763671875
8.7699999,0.17477671802043915,-23.348255157470703,-4.41969633102417,-0.30517578125,-27.0538330078125,74.3865966796875
8.7899999,0.7158663272857666,-23.77202796936035,-5.4444146156311035,-55.4656982421875,54.1534423828125,-143.035888671875
8.809999900000001,-0.090979665517807,-23.154325485229492,-5.638344764709473,13.824462890625,89.4622802734375,-419.3267822265625
8.8299999,-2.382230758666992,-21.20305061340332,-4.534617900848389,64.88037109375,83.9996337890625,-499.3896484375
8.8499999,-6.291962146759033,-15.614983558654785,-2.9089550971984863,52.5665283203125,77.6824951171875,-500
8.8699999,-11.034875869750977,-5.324704647064209,-1.3527239561080933,-18.402099609375,95.733642578125,-500
8.889999900000001,-15.423447608947754,8.734047889709473,0.950498104095459,-26.336669921875,172.8515625,-500
8.9099999,-18.423381805419922,22.677879333496094,3.7612907886505127,126.129150390625,188.140869140625,-224.945068359375
8.9299999,-19.07939338684082,36.20751190185547,6.6391215324401855,41.4886474609375,6.3629150390625,-105.28564453125
8.9499999,-17.705121994018555,43.69178771972656,8.276755332946777,-108.7799072265625,-121.734619140625,-65.521240234375
8.969999900000001,-15.172056198120117,45.50180435180664,7.876923561096191,-55.7708740234375,-61.279296875,137.176513671875
8.9899999,-12.210428237915039,43.119571685791016,5.705382823944092,35.5072021484375,45.47119140625,196.0296630859375
9.0099999,-9.428366661071777,36.858734130859375,3.2776620388031006,39.48974609375,69.2291259765625,214.2181396484375
9.0299999,-7.3023152351379395,29.489381790161133,2.1164743900299072,-4.2877197265625,51.0711669921875,216.4459228515625
9.049999900000001,-6.0597243309021,22.388179779052734,2.1356279850006104,-13.48876953125,20.2178955078125,258.4075927734375
9.069999900000001,-5.604825973510742,17.348384857177734,2.765302896499634,2.3651123046875,-9.9029541015625,305.72509765625
9.0899999,-5.808333396911621,13.706804275512695,3.359065055847168,30.2886962890625,-23.7884521484375,375.2899169921875
9.1099999,-6.248866558074951,10.730812072753906,3.56017804145813,17.2271728515625,-40.435791015625,460.38818359375
9.129999900000001,-6.598419666290283,6.404489517211914,2.9879636764526367,-62.286376953125,-75.9429931640625,499.9847412109375
9.149999900000001,-6.347028732299805,-0.5793967843055725,1.7286136150360107,-245.941162109375,-124.9542236328125,482.757568359375
9.1699999,-5.22175407409668,-8.001421928405762,0.09576806426048279,-171.2188720703125,-92.437744140625,193.023681640625
9.1899999,-3.40216064453125,-15.579070091247559,-2.051830768585205,17.2882080078125,-77.239990234375,16.7694091796875
9.209999900000001,-1.6304513216018677,-22.337902069091797,-4.592078685760498,-80.3680419921875,-102.1728515625,63.6444091796875
9.229999900000001,-0.5985504388809204,-25.41205596923828,-6.521805286407471,-154.4647216796875,10.009765625,-176.300048828125
9.2499999,-0.9528923034667969,-26.343400955200195,-7.208941459655762,24.5361328125,157.6385498046875,-454.5440673828125
9.2699999,-3.1244332790374756,-24.097640991210938,-6.452373504638672,164.886474609375,131.103515625,-500
9.2899999,-7.079654216766357,-16.917428970336914,-4.402936935424805,130.6915283203125,56.8389892578125,-500
9.309999900000001,-11.741165161132812,-4.079719543457031,-1.5538369417190552,65.3076171875,115.753173828125,-500
9.3299999,-16.02678680419922,11.317391395568848,0.8786720037460327,68.3441162109375,124.9847412109375,-500
9.3499999,-18.674774169921875,27.181371688842773,3.134010076522827,40.2374267578125,68.6492919921875,-154.1748046875
9.3699999,-18.722658157348633,40.17230987548828,4.618414878845215,-77.117919921875,-4.8675537109375,-71.6705322265625
9.389999900000001,-16.735469818115234,45.1474609375,4.8722004890441895,-62.5152587890625,-29.9530029296875,53.619384765625
9.4099999,-13.594277381896973,44.97986602783203,4.522646903991699,60.1348876953125,51.7578125,88.7451171875
9.4299999,-10.383652687072754,40.2872314453125,3.751713991165161,88.043212890625,84.075927734375,96.6339111328125
9.4499999,-8.027758598327637,33.815704345703125,3.2561142444610596,20.2178955078125,26.5655517578125,179.13818359375
9.469999900000001,-6.892906665802002,27.696125030517578,3.026270866394043,-2.01416015625,-5.0201416015625,234.649658203125
9.4899999,-6.773196697235107,21.962011337280273,2.6216509342193604,34.2559814453125,7.781982421875,287.872314453125
9.5099999,-7.12035608291626,17.365144729614258,2.1715409755706787,61.4013671875,34.85107421875,317.68798828125
9.5299999,-7.417236804962158,13.491326332092285,1.7860745191574097,52.703857421875,20.4620361328125,363.677978515625
9.549999900000001,-7.390900611877441,9.172186851501465,1.8124107122421265,-0.701904296875,-19.2413330078125,471.893310546875
9.569999900000001,-6.763619899749756,3.162740468978882,2.1930887699127197,-71.014404296875,-33.477783203125,499.9847412109375
9.5899999,-3.339911460876465,-10.836156845092773,2.937685489654541,-92.010498046875,-120.269775390625,96.160888671875
9.6099999,-1.2449848651885986,-16.938976287841797,2.0015525817871094,-91.0186767578125,-179.534912109375,143.9971923828125
9.629999900000001,0.2322375625371933,-21.645977020263672,0.009576806798577309,-164.3218994140625,-113.037109375,198.18115234375
9.649999900000001,0.5267243981361389,-23.484724044799805,-2.38462495803833,-162.109375,11.5203857421875,-139.892578125
9.6699999,-0.2106897532939911,-23.743297576904297,-4.323928356170654,-91.4154052734375,53.6651611328125,-415.46630859375
9.6899999,-2.0470423698425293,-21.763294219970703,-5.4252610206604,-20.4620361328125,49.8504638671875,-375.18310546875
9.709999900000001,-4.987122058868408,-15.861586570739746,-5.070919036865234,58.5479736328125,123.443603515625,-479.278564453125
9.729999900000001,-8.844181060791016,-7.046135425567627,-3.584120035171509,55.48095703125,198.7152099609375,-500
9.7499999,-12.856863021850586,5.451597213745117,-0.9169792532920837,50.872802734375,176.025390625,-500
9.7699999,-16.16804313659668,19.833566665649414,2.6168625354766846,47.5921630859375,84.77783203125,-387.9241943359375
9.7899999,-17.68596839904785,34.0024528503418,5.233725070953369,-36.5142822265625,-9.063720703125,-91.7816162109375
9.809999900000001,-17.096994400024414,43.8162841796875,6.404489517211914,-68.572998046875,-28.9459228515625,6.195068359375
9.8299999,-14.963760375976562,47.05084991455078,5.815515995025635,-29.7088623046875,11.65771484375,113.9678955078125
9.8499999,-12.006921768188477,44.60158157348633,4.438849925994873,-6.4849853515625,31.982421875,176.0101318359375
9.8699999,-9.05487060546875,38.438907623291016,3.205836057662964,23.37646484375,38.4674072265625,193.817138671875
9.889999900000001,-6.856993675231934,30.854076385498047,2.5498247146606445,56.6558837890625,29.96826171875,218.048095703125
9.9099999,-5.616796970367432,24.152706146240234,2.451662540435791,78.1402587890625,29.84619140625,262.054443359375
9.9299999,-5.305551052093506,18.940528869628906,2.626439332962036,59.08203125,24.2919921875,332.550048828125
9.9499999,-5.556941986083984,14.755465507507324,2.75812029838562,4.638671875,-4.94384765625,414.947509765625
9.969999900000001,-5.91128396987915,10.606313705444336,2.719813108444214,-60.760498046875,-33.9202880859375,456.146240234375
9.9899999,-5.935225963592529,5.726930618286133,2.2912509441375732,-121.03271484375,-56.1065673828125,435.48583984375
10.0099999,-5.410895824432373,0.3663128614425659,1.702277421951294,-86.9598388671875,-48.6907958984375,367.8741455078125
10.0299999,-4.462791919708252,-6.7492547035217285,0.5123591423034668,-56.915283203125,-62.07275390625,359.19189453125
10.049999900000001,-3.265691041946411,-14.798561096191406,-0.871489405632019,-226.4556884765625,-88.80615234375,287.65869140625
10.069999900000001,-2.2194249629974365,-20.96841812133789,-2.542642116546631,-168.02978515625,-28.0303955078125,-110.6414794921875
10.0899999,-1.4293384552001953,-25.09602165222168,-4.381389141082764,-28.86962890625,11.1541748046875,-286.6668701171875
10.1099999,-1.3048399686813354,-25.64668846130371,-5.983109951019287,34.7137451171875,51.5899658203125,-242.9046630859375
10.129999900000001,-2.4133553504943848,-22.644359588623047,-6.337451934814453,40.771484375,125.3814697265625,-371.6583251953125
10.149999900000001,-5.272032260894775,-17.197551727294922,-5.633556365966797,135.5743408203125,161.31591796875,-500
10.1699999,-9.617507934570312,-8.08282470703125,-4.448426723480225,136.138916015625,101.776123046875,-500
10.1899999,-13.991714477539062,6.385335922241211,-1.821987509727478,57.5408935546875,168.914794921875,-500
10.209999900000001,-17.058687210083008,21.61964225769043,1.2258312702178955,96.6339111328125,203.9947509765625,-308.9599609375
10.229999900000001,-17.774553298950195,35.031959533691406,3.708618402481079,-26.6876220703125,-0.8087158203125,15.6097412109375
10.2499999,-16.055517196655273,43.27280044555664,5.48272180557251,-103.3935546875,-80.6884765625,-34.454345703125
10.2699999,-13.093889236450195,43.6870002746582,5.370194435119629,-25.6805419921875,8.9111328125,65.948486328125
10.2899999,-9.873687744140625,40.52665328979492,4.027047157287598,39.5050048828125,71.563720703125,131.591796875
10.309999900000001,-7.182605266571045,34.9385871887207,2.7461493015289307,60.9130859375,73.272705078125,154.0069580078125
10.3299999,-5.47075080871582,29.180530548095703,2.142810583114624,-9.2620849609375,15.4876708984375,208.160400390625
10.3499999,-4.709394931793213,24.06651496887207,2.166752576828003,-50.78125,-15.5181884765625,283.0810546875
10.3699999,-4.616020679473877,19.673154830932617,2.207453966140747,-31.9061279296875,-17.669677734375,356.75048828125
10.389999900000001,-4.819528102874756,15.088258743286133,1.946485996246338,-14.7857666015625,-22.5067138671875,402.130126953125
10.4099999,-4.821922302246094,9.667786598205566,1.5682021379470825,-53.4210205078125,-28.900146484375,393.1732177734375
10.4299999,-4.2951979637146,4.137180328369141,1.2856862545013428,-61.34033203125,-21.4385986328125,284.5458984375
10.4499999,-3.177105665206909,-0.9983820915222168,1.3623007535934448,-29.6173095703125,-32.623291015625,213.1805419921875
10.469999900000001,-1.6735470294952393,-4.98472785949707,1.5466543436050415,2.99072265625,-71.136474609375,225.4791259765625
10.4899999,-0.26815059781074524,-9.107542991638184,1.0749965906143188,-83.099365234375,-134.21630859375,257.9498291015625
10.5099999,0.8188169598579407,-12.662932395935059,0.1843535304069519,-175.689697265625,-92.6513671875,107.025146484375
10.5299999,1.434126853942871,-15.31570816040039,-1.1300631761550903,-29.8309326171875,11.23046875,-161.285400390625
10.549999900000001,1.6687586307525635,-17.0012264251709,-2.3127987384796143,19.53125,15.31982421875,-194.000244140625
10.569999900000001,1.4293384552001953,-16.555904388427734,-2.808398485183716,-30.181884765625,10.43701171875,-220.52001953125
10.5899999,0.22026655077934265,-15.016432762145996,-2.4229321479797363,-63.568115234375,60.4400634765625,-347.686767578125
10.6099999,-2.406172752380371,-11.410765647888184,-1.7118542194366455,29.5562744140625,98.052978515625,-500
10.629999900000001,-6.253654956817627,-4.036623954772949,-0.8954314589500427,195.9686279296875,85.2813720703125,-500
10.649999900000001,-10.11550235748291,8.221688270568848,0.9864110946655273,203.125,122.25341796875,-500
10.6699999,-12.768278121948242,21.85906219482422,2.604891538619995,-25.20751953125,16.4947509765625,-174.285888671875
10.6899999,-13.139378547668457,32.56593322753906,3.5865142345428467,-221.5118408203125,-149.9786376953125,95.5810546875
10.709999900000001,-11.231200218200684,36.95450210571289,3.7828385829925537,-123.260498046875,-83.526611328125,63.17138671875
10.729999900000001,-8.08043098449707,34.43341064453125,2.715024709701538,35.552978515625,20.5841064453125,-5.8135986328125
10.7499999,-4.709394931793213,28.0528621673584,1.414973258972168,51.0711669921875,39.3218994140625,9.613037109375
10.7699999,-1.9512743949890137,21.210233688354492,0.8906430602073669,-2.716064453125,23.4222412109375,33.7982177734375
10.7899999,-0.21547815203666687,15.298949241638184,1.2234370708465576,-40.8935546875,4.2877197265625,46.3104248046875
10.809999900000001,0.5267243981361389,10.994174003601074,1.86508309841156,-33.9202880859375,-9.5062255859375,36.2091064453125
10.8299999,0.5315127968788147,8.133103370666504,2.5019407272338867,2.288818359375,-0.9613037109375,25.4364013671875
10.8499999,0.11971008777618408,6.710947513580322,2.8802247047424316,18.61572265625,11.6729736328125,17.578125
10.8699999,-0.42616790533065796,6.294356346130371,2.7964274883270264,-0.6103515625,-7.4462890625,14.7705078125
10.889999900000001,-0.9528923034667969,6.586448669433594,2.4899697303771973,-2.0599365234375,-10.80322265625,13.7481689453125
10.9099999,-1.3311761617660522,7.33583402633667,1.8818424940109253,16.448974609375,3.4027099609375,6.8817138671875
10.9299999,-1.5155296325683594,8.085219383239746,1.3551181554794312,26.85546875,21.78955078125,10.2081298828125
10.9499999,-1.50355863571167,8.655038833618164,1.0462661981582642,5.9356689453125,16.876220703125,17.608642578125
10.969999900000001,-1.3527239561080933,8.942343711853027,1.072602391242981,-11.1846923828125,0.7476806640625,8.6212158203125
10.9899999,-1.115697979927063,8.944737434387207,1.3527239561080933,2.5482177734375,2.8533935546875,-0.7781982421875
11.0099999,-0.8978256583213806,8.851364135742188,1.647210717201233,21.42333984375,9.70458984375,-4.5928955078125
11.0299999,-0.7350199222564697,8.899248123168945,1.9943699836730957,21.881103515625,8.5906982421875,-5.5694580078125
11.049999900000001,-0.6344634294509888,9.093177795410156,2.1954829692840576,8.758544921875,-6.28662109375,-3.4027099609375
11.069999900000001,-0.5937620401382446,9.284713745117188,2.293645143508911,-4.69970703125,-12.9241943359375,1.983642578125
11.0899999,-0.586579442024231,9.603142738342285,2.185906171798706,-1.0223388671875,-3.6163330078125,-2.99072265625
11.1099999,-0.6751648783683777,9.895236015319824,1.5921441316604614,11.16943359375,12.6190185546875,-2.532958984375
11.129999900000001,-0.7422025203704834,10.002974510192871,1.4652514457702637,-0.06103515625,11.4288330078125,-0.9765625
11.149999900000001,-0.8044517636299133,9.976638793945312,1.5179238319396973,-14.5416259765625,-1.220703125,6.34765625
11.1699999,-0.8403648138046265,9.916783332824707,1.7525556087493896,-8.1024169921875,-0.1678466796875,2.9296875
11.1899999,-0.8595184087753296,9.725247383117676,1.8291701078414917,-2.2735595703125,-2.62451171875,-2.2735595703125
11.209999900000001,-0.8738836050033569,9.612719535827637,1.8531121015548706,-1.46484375,-0.1983642578125,-4.5166015625
11.229999900000001,-0.8882488012313843,9.533711433410645,1.8100165128707886,-0.4425048828125,5.5999755859375,-1.3275146484375
11.2499999,-0.9026140570640564,9.583989143371582,1.7118542194366455,-5.2642822265625,-0.1373291015625,0.9613037109375
11.2699999,-0.8954314589500427,9.569623947143555,1.6089035272598267,-4.9896240234375,-2.99072265625,2.0751953125
11.2899999,-0.8619126081466675,9.488221168518066,1.5418659448623657,-2.4566650390625,4.6234130859375,1.1444091796875
11.309999900000001,-0.8068459630012512,9.318233489990234,1.45806884765625,-0.732421875,7.6904296875,-3.204345703125
11.3299999,-0.7565677165985107,9.172186851501465,1.525106430053711,1.0223388671875,5.9967041015625,-7.781982421875
11.3499999,-0.7350199222564697,9.157821655273438,1.6352397203445435,1.4801025390625,0.6256103515625,-9.8419189453125
11.3699999,-0.7637503147125244,9.289502143859863,1.7741034030914307,1.77001953125,-2.9754638671875,-4.5623779296875
11.389999900000001,-0.8307880163192749,9.512163162231445,1.8195933103561401,3.1890869140625,0.518798828125,-0.1678466796875
11.4099999,-0.912190854549408,9.708487510681152,1.7932571172714233,-0.8697509765625,2.6092529296875,-0.4730224609375
11.4299999,-0.9552865028381348,9.787496566772461,1.7142484188079834,-3.3721923828125,1.312255859375,-0.885009765625
11.4499999,-0.9481038451194763,9.749189376831055,1.5945383310317993,-4.8370361328125,-3.0517578125,-1.312255859375
11.469999900000001,-0.8954314589500427,9.658209800720215,1.5418659448623657,4.9285888671875,3.8299560546875,-3.1585693359375
11.4899999,-0.8379706144332886,9.531316757202148,1.4987702369689941,8.0413818359375,7.049560546875,-4.669189453125
11.5099999,-0.811634361743927,9.488221168518066,1.5418659448623657,-0.54931640625,4.69970703125,-5.4779052734375
11.5299999,-0.8379706144332886,9.48343276977539,1.6519991159439087,-7.720947265625,2.471923828125,-4.69970703125
11.549999900000001,-0.9002198576927185,9.579200744628906,1.7884687185287476,-1.678466796875,3.41796875,-4.57763671875
11.569999900000001,-0.9648633003234863,9.684545516967773,1.9536685943603516,6.927490234375,4.7454833984375,-3.0975341796875
11.5899999,-1.0079588890075684,9.775525093078613,2.056619167327881,5.8135986328125,1.03759765625,-2.2430419921875
11.6099999,-1.0103530883789062,9.813833236694336,2.121262788772583,-0.396728515625,-2.38037109375,-2.227783203125
11.629999900000001,-0.9959878921508789,9.787496566772461,2.099714994430542,-2.6397705078125,-1.6632080078125,-0.579833984375
11.649999900000001,-0.9720458984375,9.6989107131958,2.032677173614502,-0.640869140625,-1.28173828125,-0.54931640625
11.6699999,-0.9576807022094727,9.643844604492188,1.922544002532959,1.0986328125,-1.983642578125,-2.3040771484375
11.6899999,-0.9552865028381348,9.545681953430176,1.7477672100067139,0.4730224609375,-4.4708251953125,-0.4119873046875
11.709999900000001,-0.9648633003234863,9.519346237182617,1.6089035272598267,4.3792724609375,1.6632080078125,1.03759765625
11.729999900000001,-0.993593692779541,9.437943458557129,1.434126853942871,7.5531005859375,4.669189453125,1.2359619140625
11.7499999,-1.0271124839782715,9.394847869873047,1.3623007535934448,6.195068359375,3.753662109375,-2.0904541015625
11.7699999,-1.0558429956436157,9.363722801208496,1.3694833517074585,6.40869140625,3.6468505859375,-4.2266845703125
11.7899999,-1.072602391242981,9.394847869873047,1.3982137441635132,2.0751953125,0.0152587890625,-2.532958984375
11.809999900000001,-1.070208191871643,9.497797966003418,1.479616641998291,0.6256103515625,2.288818359375,-2.166748046875
11.8299999,-1.0558429956436157,9.591172218322754,1.5490485429763794,1.6021728515625,3.23486328125,-1.1749267578125
11.8499999,-1.0414776802062988,9.667786598205566,1.6328455209732056,3.8909912109375,2.01416015625,-1.6937255859375
11.8699999,-1.036689281463623,9.703699111938477,1.7381904125213623,4.364013671875,1.4190673828125,-2.899169921875
11.889999900000001,-1.0319008827209473,9.742006301879883,1.8052281141281128,-0.885009765625,-0.7171630859375,-2.349853515625
11.9099999,-1.0342950820922852,9.730035781860352,1.8339585065841675,-3.7078857421875,-2.3040771484375,0.030517578125
11.9299999,-1.036689281463623,9.763554573059082,1.8100165128707886,-0.8392333984375,-0.244140625,-0.762939453125
11.9499999,-1.0414776802062988,9.75397777557373,1.742978811264038,1.03759765625,0.1373291015625,-0.8392333984375
11.969999900000001,-1.05105459690094,9.75397777557373,1.7142484188079834,3.5400390625,2.655029296875,0.79345703125
11.9899999,-1.0582371950149536,9.706093788146973,1.678335428237915,-1.2969970703125,-0.823974609375,2.593994140625
12.0099999,-1.0630255937576294,9.62947940826416,1.659181833267212,-4.4403076171875,-3.2958984375,1.2664794921875
12.0299999,-1.0582371950149536,9.528923034667969,1.644816517829895,-1.28173828125,-1.28173828125,-0.91552734375
12.049999900000001,-1.0534487962722778,9.44991397857666,1.5873557329177856,2.166748046875,-0.30517578125,-1.8157958984375
12.069999900000001,-1.0534487962722778,9.440337181091309,1.5179238319396973,5.035400390625,0.213623046875,-1.3427734375
12.0899999,-1.0630255937576294,9.512163162231445,1.4676456451416016,4.8065185546875,2.5634765625,-1.15966796875
12.1099999,-1.0773907899856567,9.603142738342285,1.4053963422775269,0.4730224609375,2.0599365234375,0.946044921875
12.129999900000001,-1.0821791887283325,9.68694019317627,1.4077905416488647,0.9613037109375,3.3416748046875,2.3956298828125
12.149999900000001,-1.0749965906143188,9.718064308166504,1.4508862495422363,5.5084228515625,4.4403076171875,1.89208984375
12.1699999,-1.0606313943862915,9.674968719482422,1.5155296325683594,5.2490234375,1.1444091796875,0.885009765625
12.1899999,-1.0462661981582642,9.66539192199707,1.5897499322891235,1.2969970703125,-0.518798828125,-1.4801025390625
12.209999900000001,-1.036689281463623,9.607931137084961,1.5849615335464478,-3.6163330078125,-2.1820068359375,0.732421875
12.229999900000001,-1.0319008827209473,9.62947940826416,1.5442601442337036,-1.678466796875,0.79345703125,1.2969970703125
12.2499999,-1.0295066833496094,9.612719535827637,1.4628572463989258,0.18310546875,2.8839111328125,1.2054443359375
12.2699999,-1.0247182846069336,9.586383819580078,1.4652514457702637,1.3885498046875,4.21142578125,1.0528564453125
12.289999900000002,-1.0199298858642578,9.576807022094727,1.4987702369689941,-0.0762939453125,0.6561279296875,-0.3204345703125
12.309999900000001,-1.01753568649292,9.543288230895996,1.558625340461731,-3.72314453125,-3.2501220703125,0.9613037109375
12.3299999,-1.0103530883789062,9.550470352172852,1.6304513216018677,-0.274658203125,0.9307861328125,1.2054443359375
12.3499999,-1.0031704902648926,9.545681953430176,1.6160861253738403,0.8392333984375,0.9918212890625,0.42724609375
12.3699999,-0.9959878921508789,9.555258750915527,1.5873557329177856,-0.18310546875,-0.2899169921875,0.30517578125
12.389999900000001,-0.993593692779541,9.550470352172852,1.5729905366897583,2.0599365234375,2.1514892578125,0.5340576171875
12.4099999,-0.9983820915222168,9.569623947143555,1.5753847360610962,1.9378662109375,1.312255859375,-0.1220703125
12.4299999,-1.0079588890075684,9.600749015808105,1.5705963373184204,-0.457763671875,-1.9378662109375,-0.54931640625
12.4499999,-1.0199298858642578,9.610325813293457,1.5682021379470825,-1.4190673828125,-1.9989013671875,1.190185546875
12.469999900000001,-1.0223240852355957,9.627084732055664,1.5179238319396973,-0.396728515625,0.1983642578125,0.6103515625
12.4899999,-1.01753568649292,9.607931137084961,1.4748282432556152,1.0223388671875,1.617431640625,0.5645751953125
12.5099999,-1.0103530883789062,9.557653427124023,1.460463047027588,1.983642578125,1.5106201171875,0.274658203125
12.5299999,-1.0031704902648926,9.536105155944824,1.4652514457702637,1.0528564453125,-0.6561279296875,-0.762939453125
12.549999900000001,-1.0007762908935547,9.528923034667969,1.4652514457702637,0.701904296875,-1.2054443359375,-1.1444091796875
12.569999900000001,-1.0055646896362305,9.555258750915527,1.436521053314209,0.4730224609375,0.8087158203125,0.274658203125
12.5899999,-1.015141487121582,9.588777542114258,1.414973258972168,0.91552734375,3.47900390625,0.701904296875
12.6099999,-1.01753568649292,9.619902610778809,1.436521053314209,2.4871826171875,3.6468505859375,0.0762939453125
12.629999900000001,-1.0127472877502441,9.607931137084961,1.4676456451416016,1.7242431640625,-0.335693359375,0.18310546875
12.649999900000001,-0.9959878921508789,9.586383819580078,1.4748282432556152,-0.885009765625,1.312255859375,-0.6256103515625
12.6699999,-1.0055646896362305,9.59835433959961,1.4077905416488647,-2.44140625,2.9296875,-1.0223388671875
12.6899999,-1.0247182846069336,9.651026725769043,1.4077905416488647,-1.4190673828125,5.828857421875,-0.54931640625
12.709999900000001,-1.05105459690094,9.701305389404297,1.4963760375976562,-3.90625,4.82177734375,1.983642578125
12.729999900000001,-1.0654197931289673,9.739612579345703,1.6208745241165161,-7.2021484375,-0.91552734375,3.997802734375
12.7499999,-1.0654197931289673,9.713275909423828,1.7190368175506592,-3.326416015625,-2.227783203125,3.326416015625
12.7699999,-1.0582371950149536,9.624691009521484,1.7525556087493896,1.1138916015625,1.007080078125,1.77001953125
12.789999900000002,-1.0414776802062988,9.57441234588623,1.6519991159439087,-2.0599365234375,-0.4119873046875,-1.0223388671875
12.809999900000001,-1.0295066833496094,9.493009567260742,1.5490485429763794,-3.96728515625,-0.3662109375,1.64794921875
12.8299999,-1.0103530883789062,9.497797966003418,1.4700398445129395,0.152587890625,2.9144287109375,0.762939453125
12.8499999,-0.9911994934082031,9.50737476348877,1.4293384552001953,0.6103515625,1.434326171875,-0.640869140625
12.8699999,-0.9720458984375,9.531316757202148,1.4413094520568848,-0.7171630859375,-0.42724609375,-0.79345703125
12.889999900000001,-0.9600749015808105,9.57441234588623,1.4628572463989258,-2.0904541015625,-0.6103515625,-0.3662109375
12.9099999,-0.9576807022094727,9.617507934570312,1.4844050407409668,0.1068115234375,1.3580322265625,0.335693359375
12.9299999,-0.9648633003234863,9.643844604492188,1.5203180313110352,1.89208984375,2.3651123046875,0.5035400390625
12.9499999,-0.9792284965515137,9.670180320739746,1.5490485429763794,-0.0457763671875,0.2593994140625,-0.0152587890625
12.969999900000001,-0.9911994934082031,9.658209800720215,1.5849615335464478,-2.471923828125,-1.4190673828125,1.0223388671875
12.9899999,-0.993593692779541,9.643844604492188,1.6041151285171509,-0.9765625,0.457763671875,0.823974609375
13.0099999,-0.9983820915222168,9.581595420837402,1.5945383310317993,-0.9765625,0.42724609375,1.068115234375
13.0299999,-1.0007762908935547,9.548076629638672,1.6136919260025024,1.7547607421875,1.617431640625,-1.03759765625
13.049999900000001,-1.0103530883789062,9.493009567260742,1.6112977266311646,0.518798828125,-0.8544921875,-0.2593994140625
13.069999900000001,-1.0223240852355957,9.490615844726562,1.6352397203445435,0.213623046875,-1.190185546875,-0.3204345703125
13.0899999,-1.0319008827209473,9.514557838439941,1.6208745241165161,1.52587890625,-0.7781982421875,-1.2969970703125
13.1099999,-1.0295066833496094,9.560047149658203,1.5945383310317993,1.46484375,-0.18310546875,-0.7781982421875
13.129999900000001,-1.01753568649292,9.617507934570312,1.5753847360610962,1.4495849609375,0.91552734375,0.1373291015625
13.149999900000001,-1.0031704902648926,9.684545516967773,1.558625340461731,-0.18310546875,-0.335693359375,0.48828125
13.1699999,-0.9911994934082031,9.732429504394531,1.5729905366897583,-0.5340576171875,-0.274658203125,0.5950927734375
13.1899999,-0.9911994934082031,9.77791976928711,1.5682021379470825,-1.3885498046875,-0.732421875,0.5950927734375
13.209999900000001,-0.993593692779541,9.765948295593262,1.5490485429763794,-0.0457763671875,0.3662109375,1.9073486328125
13.229999900000001,-0.9983820915222168,9.732429504394531,1.5155296325683594,-0.1678466796875,1.52587890625,1.5716552734375
13.2499999,-0.9959878921508789,9.670180320739746,1.501164436340332,-0.5035400390625,2.1514892578125,0.1068115234375
13.2699999,-0.993593692779541,9.579200744628906,1.501164436340332,-1.1138916015625,0.335693359375,0.30517578125
13.289999900000002,-0.9888052940368652,9.536105155944824,1.522712230682373,-0.8697509765625,-0.3662109375,-0.3662109375
13.309999900000001,-0.9888052940368652,9.516951560974121,1.522712230682373,0.030517578125,-0.1983642578125,-0.6256103515625
13.3299999,-0.9959878921508789,9.526528358459473,1.5275006294250488,0.7781982421875,1.0986328125,0.6866455078125
13.3499999,-1.0055646896362305,9.564835548400879,1.5131354331970215,-1.0986328125,0.579833984375,0.6256103515625
13.3699999,-1.0103530883789062,9.564835548400879,1.5442601442337036,-0.9002685546875,0.8697509765625,1.373291015625
13.389999900000001,-1.0055646896362305,9.567230224609375,1.5921441316604614,-0.457763671875,-0.030517578125,0.1373291015625
13.4099999,-0.9959878921508789,9.567230224609375,1.6160861253738403,-1.434326171875,-2.685546875,-0.6103515625
13.4299999,-0.9840168952941895,9.5624418258667,1.6280571222305298,0,-0.67138671875,1.0528564453125
13.4499999,-0.9768342971801758,9.583989143371582,1.601720929145813,0.9307861328125,1.5869140625,1.3580322265625
13.469999900000001,-0.9600749015808105,9.588777542114258,1.5825673341751099,0.946044921875,1.5106201171875,1.3275146484375
13.4899999,-0.9481038451194763,9.593565940856934,1.5945383310317993,0.6256103515625,0.42724609375,-0.1220703125
13.5099999,-0.9409212470054626,9.612719535827637,1.6112977266311646,-1.0528564453125,-1.495361328125,-0.6866455078125
13.5299999,-0.9433154463768005,9.62947940826416,1.6424223184585571,0.640869140625,-0.2593994140625,0.6561279296875
13.549999900000001,-0.9624691009521484,9.670180320739746,1.601720929145813,-0.0152587890625,-1.3427734375,0.5950927734375
13.569999900000001,-0.9816226959228516,9.684545516967773,1.5394717454910278,-1.2054443359375,-0.396728515625,1.3580322265625
13.5899999,-0.9792284965515137,9.672574996948242,1.479616641998291,-1.0223388671875,2.655029296875,1.708984375
13.6099999,-0.9648633003234863,9.622296333312988,1.4724340438842773,-0.6256103515625,2.6702880859375,1.1138916015625
13.629999900000001,-0.9385270476341248,9.57441234588623,1.525106430053711,0.2288818359375,0.3204345703125,-0.274658203125
13.649999900000001,-0.9145850539207458,9.528923034667969,1.5897499322891235,-1.373291015625,-2.74658203125,-0.4730224609375
13.6699999,-0.9074024558067322,9.519346237182617,1.6208745241165161,-0.9765625,-2.0599365234375,0.1220703125
13.6899999,-0.9169792532920837,9.528923034667969,1.5897499322891235,1.3427734375,0.4425048828125,0.396728515625
13.709999900000001,-0.933738648891449,9.524134635925293,1.522712230682373,0.4119873046875,1.4495849609375,1.1138916015625
13.729999900000001,-0.9528923034667969,9.500192642211914,1.5107412338256836,0.2593994140625,2.99072265625,0.30517578125
13.7499999,-0.9720458984375,9.459490776062012,1.5322890281677246,-0.030517578125,1.190185546875,-0.946044921875
13.7699999,-0.9792284965515137,9.423578262329102,1.5825673341751099,0.2288818359375,-0.885009765625,-2.3040771484375
13.789999900000002,-0.9840168952941895,9.404424667358398,1.6208745241165161,1.983642578125,0.213623046875,-2.166748046875
13.809999900000001,-0.9816226959228516,9.418789863586426,1.6424223184585571,1.9378662109375,2.349853515625,-3.1585693359375
13.8299999,-0.9816226959228516,9.423578262329102,1.5921441316604614,0.213623046875,0.48828125,-3.7078857421875
13.8499999,-0.9840168952941895,9.469067573547363,1.5729905366897583,0.91552734375,2.44140625,-6.3629150390625
13.8699999,-0.9864110946655273,9.469067573547363,1.534683346748352,1.0833740234375,2.7923583984375,-5.4931640625
13.889999900000001,-0.993593692779541,9.524134635925293,1.522712230682373,0.5035400390625,1.9989013671875,-7.50732421875
13.9099999,-1.0031704902648926,9.576807022094727,1.5203180313110352,1.373291015625,1.2969970703125,-7.415771484375
13.9299999,-1.015141487121582,9.658209800720215,1.5442601442337036,3.0670166015625,1.5869140625,-4.7607421875
13.9499999,-1.0295066833496094,9.739612579345703,1.53707754611969,0.946044921875,0.1373291015625,-3.11279296875
13.969999900000001,-1.0462661981582642,9.785101890563965,1.501164436340332,-1.617431640625,-0.946044921875,-1.9378662109375
13.9899999,-1.0606313943862915,9.799467086791992,1.45806884765625,0.2288818359375,2.13623046875,-1.8310546875
14.0099999,-1.0749965906143188,9.77791976928711,1.4221558570861816,2.349853515625,3.47900390625,-0.67138671875
14.0299999,-1.091755986213684,9.75397777557373,1.4269442558288574,1.4801025390625,1.52587890625,0.2899169921875
14.049999900000001,-1.1037269830703735,9.703699111938477,1.482010841369629,0.7781982421875,-0.091552734375,1.434326171875
14.069999900000001,-1.1085153818130493,9.674968719482422,1.50355863571167,-1.89208984375,-2.593994140625,0.2288818359375
14.0899999,-1.1013327836990356,9.615114212036133,1.50355863571167,-1.007080078125,-0.8392333984375,0.8544921875
14.1099999,-1.0893617868423462,9.581595420837402,1.460463047027588,1.7852783203125,2.105712890625,0.5035400390625
14.129999900000001,-1.0845733880996704,9.557653427124023,1.4077905416488647,0.946044921875,1.8768310546875,-0.0457763671875
14.149999900000001,-1.091755986213684,9.560047149658203,1.4269442558288574,1.89208984375,2.899169921875,-0.244140625
14.1699999,-1.1228805780410767,9.607931137084961,1.5466543436050415,-1.15966796875,-2.1820068359375,0.30517578125
14.1899999,-1.1300631761550903,9.622296333312988,1.5969325304031372,-0.335693359375,-0.701904296875,0.885009765625
14.209999900000001,-1.1252747774124146,9.605537414550781,1.5873557329177856,0.701904296875,0.7171630859375,1.1138916015625
14.229999900000001,-1.1085153818130493,9.593565940856934,1.558625340461731,0.3204345703125,1.220703125,-0.457763671875
14.2499999,-1.0965443849563599,9.564835548400879,1.5418659448623657,1.068115234375,1.373291015625,-0.5035400390625
14.2699999,-1.0869675874710083,9.579200744628906,1.5275006294250488,0.5035400390625,-0.9002685546875,0.2899169921875
14.289999900000002,-1.0845733880996704,9.591172218322754,1.5298948287963867,0.6561279296875,-1.0528564453125,1.068115234375
14.309999900000001,-1.0845733880996704,9.591172218322754,1.5083470344543457,0.1678466796875,-0.67138671875,1.6632080078125
14.3299999,-1.0797849893569946,9.586383819580078,1.460463047027588,-0.54931640625,-0.1678466796875,-0.0457763671875
14.3499999,-1.0749965906143188,9.569623947143555,1.4245500564575195,0.67138671875,1.64794921875,-0.9918212890625
14.3699999,-1.0654197931289673,9.550470352172852,1.4293384552001953,2.2735595703125,2.4566650390625,0.244140625
14.389999900000001,-1.0606313943862915,9.57441234588623,1.4221558570861816,-0.457763671875,-1.617431640625,-0.8544921875
14.4099999,-1.0630255937576294,9.57201862335205,1.45806884765625,-0.7781982421875,-0.762939453125,-0.5035400390625
14.4299999,-1.070208191871643,9.610325813293457,1.45806884765625,0.2899169921875,1.28173828125,-1.28173828125
14.4499999,-1.0749965906143188,9.62947940826416,1.4389152526855469,0.06103515625,0.67138671875,-0.48828125
14.469999900000001,-1.072602391242981,9.639056205749512,1.4508862495422363,0.9002685546875,1.983642578125,0.6256103515625
14.4899999,-1.0678139925003052,9.648633003234863,1.455674648284912,-0.3662109375,0.518798828125,-0.2593994140625
14.5099999,-1.0654197931289673,9.619902610778809,1.455674648284912,-0.732421875,-0.7171630859375,-0.2899169921875
14.5299999,-1.0678139925003052,9.612719535827637,1.4652514457702637,0.762939453125,1.7547607421875,-0.640869140625
14.549999900000001,-1.0773907899856567,9.586383819580078,1.434126853942871,-0.762939453125,1.129150390625,-0.457763671875
14.569999900000001,-1.0821791887283325,9.560047149658203,1.4269442558288574,-1.28173828125,1.495361328125,-0.0762939453125
14.5899999,-1.0845733880996704,9.526528358459473,1.4221558570861816,0.823974609375,2.0751953125,-0.701904296875
14.6099999,-1.0845733880996704,9.493009567260742,1.4460978507995605,2.288818359375,1.7547607421875,-1.1444091796875
14.629999900000001,-1.0821791887283325,9.476250648498535,1.4844050407409668,1.556396484375,0.579833984375,-1.2054443359375
14.649999900000001,-1.0845733880996704,9.485827445983887,1.501164436340332,0.213623046875,-0.9613037109375,-1.220703125
14.6699999,-1.094150185585022,9.48343276977539,1.5107412338256836,0.4119873046875,0.2288818359375,-0.67138671875
14.6899999,-1.1061211824417114,9.519346237182617,1.5107412338256836,3.1585693359375,1.8310546875,-2.288818359375
14.709999900000001,-1.1228805780410767,9.5408935546875,1.4700398445129395,0.7781982421875,-1.0833740234375,-2.1514892578125
14.729999900000001,-1.137245774269104,9.586383819580078,1.4293384552001953,-0.6103515625,-0.732421875,-1.0986328125
14.7499999,-1.1468225717544556,9.612719535827637,1.3862427473068237,0.3662109375,2.3040771484375,-0.579833984375
14.7699999,-1.1492167711257935,9.646238327026367,1.3718775510787964,1.46484375,3.5858154296875,-1.6937255859375
14.789999900000002,-1.1492167711257935,9.653421401977539,1.4053963422775269,0.152587890625,0.7171630859375,-1.5106201171875
14.809999900000001,-1.1492167711257935,9.670180320739746,1.45806884765625,-0.091552734375,-0.9765625,-0.8087158203125
14.8299999,-1.1492167711257935,9.682151794433594,1.4963760375976562,0.1220703125,-0.79345703125,-0.4119873046875
14.8499999,-1.1516109704971313,9.670180320739746,1.501164436340332,1.46484375,1.3885498046875,0.244140625
14.8699999,-1.1492167711257935,9.653421401977539,1.4652514457702637,-0.3204345703125,0.4119873046875,-0.7171630859375
14.889999900000001,-1.1444283723831177,9.619902610778809,1.4437036514282227,0.06103515625,1.2054443359375,-0.6866455078125
14.9099999,-1.1420341730117798,9.593565940856934,1.436521053314209,0.7476806640625,1.5411376953125,-0.1678466796875
14.9299999,-1.1420341730117798,9.588777542114258,1.4293384552001953,0.213623046875,-0.1373291015625,-0.5645751953125
14.9499999,-1.139639973640442,9.579200744628906,1.41257905960083,-0.7476806640625,-0.91552734375,0.18310546875
14.969999900000001,-1.139639973640442,9.567230224609375,1.4077905416488647,1.3275146484375,1.8310546875,0.5645751953125
14.9899999,-1.1348515748977661,9.533711433410645,1.3838485479354858,1.3427734375,1.373291015625,-0.1373291015625
15.0099999,-1.1324573755264282,9.50737476348877,1.37906014919281,0.091552734375,0.2593994140625,-1.708984375
15.0299999,-1.1300631761550903,9.473855972290039,1.3862427473068237,0.3662109375,0.5950927734375,-1.46484375
15.049999900000001,-1.1300631761550903,9.48343276977539,1.3982137441635132,0.8544921875,1.434326171875,-2.3193359375
15.069999900000001,-1.1420341730117798,9.516951560974121,1.41257905960083,1.617431640625,1.3580322265625,-2.410888671875
15.0899999,-1.158793568611145,9.583989143371582,1.434126853942871,2.1209716796875,1.1138916015625,-1.800537109375
15.1099999,-1.1875240802764893,9.634267807006836,1.4389152526855469,0.30517578125,-0.0457763671875,-0.4119873046875
15.129999900000001,-1.2090718746185303,9.68694019317627,1.460463047027588,0.4730224609375,1.2054443359375,-0.4730224609375
15.149999900000001,-1.2210428714752197,9.694122314453125,1.4652514457702637,1.2359619140625,0.7171630859375,-0.640869140625
15.1699999,-1.2186486721038818,9.679757118225098,1.4676456451416016,0.4730224609375,-0.3814697265625,-0.42724609375
15.1899999,-1.2090718746185303,9.651026725769043,1.4484920501708984,-1.0833740234375,-0.7476806640625,-0.396728515625
15.209999900000001,-1.1994950771331787,9.617507934570312,1.4173674583435059,0.7781982421875,0.823974609375,-0.54931640625
15.229999900000001,-1.194706678390503,9.586383819580078,1.3838485479354858,1.0986328125,0.9765625,-0.3509521484375
15.2499999,-1.1971008777618408,9.57201862335205,1.3646949529647827,0.030517578125,0.091552734375,-0.4119873046875
15.2699999,-1.1971008777618408,9.536105155944824,1.359906554222107,-0.9613037109375,-0.701904296875,-0.3662109375
15.289999900000002,-1.192312479019165,9.524134635925293,1.3527239561080933,0.2899169921875,0.1678466796875,-1.28173828125
15.309999900000001,-1.1803414821624756,9.493009567260742,1.338358759880066,0.2288818359375,0.91552734375,-2.0599365234375
15.3299999,-1.1683704853057861,9.48343276977539,1.3407529592514038,0.48828125,2.0904541015625,-2.0294189453125
15.3499999,-1.1659762859344482,9.495404243469238,1.3455413579940796,0.335693359375,0.6256103515625,-2.410888671875
15.3699999,-1.1779472827911377,9.557653427124023,1.3766659498214722,2.166748046875,0.67138671875,-2.4566650390625
15.389999900000001,-1.2066776752471924,9.59835433959961,1.3766659498214722,1.9989013671875,0.2899169921875,-0.54931640625
15.4099999,-1.2306196689605713,9.655815124511719,1.3838485479354858,0.244140625,1.15966796875,-0.6103515625
15.4299999,-1.2473790645599365,9.670180320739746,1.338358759880066,-0.8544921875,0.1068115234375,-2.01416015625
15.4499999,-1.2521674633026123,9.660603523254395,1.335964560508728,1.1749267578125,1.9073486328125,-0.823974609375
15.469999900000001,-1.2521674633026123,9.658209800720215,1.314416766166687,1.5106201171875,1.6326904296875,-1.251220703125
15.4899999,-1.2521674633026123,9.636661529541016,1.3215993642807007,-0.1373291015625,-0.06103515625,-0.7171630859375
15.5099999,-1.2545616626739502,9.619902610778809,1.357512354850769,0.518798828125,1.0223388671875,-1.0833740234375
15.5299999,-1.256955862045288,9.610325813293457,1.3838485479354858,2.0294189453125,0.2899169921875,-2.044677734375
15.549999900000001,-1.2617442607879639,9.588777542114258,1.3934253454208374,1.1749267578125,-1.15966796875,-1.1138916015625
15.569999900000001,-1.2689268589019775,9.603142738342285,1.3718775510787964,0.8544921875,-0.3814697265625,-1.03759765625
15.5899999,-1.280897855758667,9.588777542114258,1.3192051649093628,0.1068115234375,0.8697509765625,-0.18310546875
15.6099999,-1.2880805730819702,9.586383819580078,1.278503656387329,0.4425048828125,2.0294189453125,-0.152587890625
15.629999900000001,-1.2856862545013428,9.576807022094727,1.259350061416626,0.9613037109375,1.739501953125,-1.1444091796875
15.649999900000001,-1.2761094570159912,9.552865028381348,1.3024457693099976,1.8768310546875,2.227783203125,-0.4119873046875
15.6699999,-1.2713210582733154,9.555258750915527,1.3455413579940796,0.67138671875,0.8544921875,-0.9002685546875
15.6899999,-1.2761094570159912,9.552865028381348,1.3670891523361206,-1.220703125,-1.03759765625,-1.4495849609375
15.709999900000001,-1.2976573705673218,9.593565940856934,1.338358759880066,-0.4119873046875,1.64794921875,-1.0528564453125
15.729999900000001,-1.3024457693099976,9.627084732055664,1.3287819623947144,-0.2288818359375,1.64794921875,-0.946044921875
15.7499999,-1.3072341680526733,9.660603523254395,1.3287819623947144,0.5645751953125,1.0986328125,-1.0986328125
15.7699999,-1.3120225667953491,9.679757118225098,1.3311761617660522,-1.0833740234375,-0.48828125,-0.3509521484375
15.789999900000002,-1.3192051649093628,9.674968719482422,1.3503297567367554,-0.396728515625,0.9918212890625,-0.1220703125
15.809999900000001,-1.3263877630233765,9.679757118225098,1.3407529592514038,0.0762939453125,1.007080078125,-1.5106201171875
15.8299999,-1.3311761617660522,9.643844604492188,1.3431471586227417,-0.30517578125,0.640869140625,-0.3814697265625
15.8499999,-1.314416766166687,9.610325813293457,1.381454348564148,1.64794921875,2.166748046875,0.5645751953125
15.869999900000002,-1.290474772453308,9.521739959716797,1.4101848602294922,1.6632080078125,-0.213623046875,0.6866455078125
15.889999900000001,-1.2665326595306396,9.437943458557129,1.4676456451416016,1.15966796875,-1.617431640625,-2.44140625
15.9099999,-1.2545616626739502,9.375694274902344,1.4724340438842773,0.4119873046875,-2.716064453125,-3.4332275390625
15.9299999,-1.2761094570159912,9.334992408752441,1.4053963422775269,-3.2806396484375,-3.9520263671875,-2.349853515625
15.9499999,-1.3215993642807007,9.387664794921875,1.316810965538025,-0.7171630859375,-0.30517578125,-3.265380859375
15.969999900000001,-1.3742717504501343,9.445125579833984,1.2282254695892334,1.7242431640625,1.9073486328125,-4.0283203125
15.9899999,-1.4173674583435059,9.533711433410645,1.173158884048462,-0.67138671875,0.1678466796875,-2.62451171875
16.0099999,-1.434126853942871,9.612719535827637,1.173158884048462,-2.0751953125,-0.213623046875,-2.0904541015625
16.0299999,-1.4293384552001953,9.667786598205566,1.216254472732544,1.0833740234375,1.983642578125,-1.9683837890625
16.0499999,-1.4173674583435059,9.6989107131958,1.256955862045288,1.068115234375,1.2054443359375,-2.166748046875
16.0699999,-1.403002142906189,9.696516990661621,1.3120225667953491,-0.06103515625,0.4119873046875,-1.9683837890625
16.089999900000002,-1.3910311460494995,9.703699111938477,1.3455413579940796,-1.2664794921875,-0.244140625,-2.3040771484375
16.109999900000002,-1.37906014919281,9.701305389404297,1.3431471586227417,-1.4801025390625,-0.2899169921875,-1.8310546875
16.1299999,-1.3718775510787964,9.715670585632324,1.3335703611373901,0.396728515625,1.4190673828125,-1.220703125
16.1499999,-1.3742717504501343,9.725247383117676,1.316810965538025,0.67138671875,1.434326171875,-0.5645751953125
16.1699999,-1.3838485479354858,9.725247383117676,1.3215993642807007,-0.30517578125,0.396728515625,-0.1068115234375
16.1899999,-1.400607943534851,9.710882186889648,1.3311761617660522,-0.3814697265625,-0.030517578125,-0.3662109375
16.2099999,-1.4197616577148438,9.701305389404297,1.314416766166687,-0.9002685546875,-0.457763671875,-0.30517578125
16.2299999,-1.4389152526855469,9.68694019317627,1.292868971824646,0.762939453125,1.9683837890625,0.1373291015625
16.249999900000002,-1.455674648284912,9.670180320739746,1.2832920551300049,1.0833740234375,2.9296875,1.0833740234375
16.269999900000002,-1.4724340438842773,9.636661529541016,1.2952631711959839,0.30517578125,1.1138916015625,1.03759765625
16.2899999,-1.4844050407409668,9.588777542114258,1.3335703611373901,0.42724609375,-0.7171630859375,-0.244140625
16.3099999,-1.4891934394836426,9.545681953430176,1.3766659498214722,3.0517578125,0.1373291015625,-1.0833740234375
16.3299999,-1.4867992401123047,9.50498104095459,1.3718775510787964,2.6092529296875,-0.6561279296875,0.244140625
16.3499999,-1.4772224426269531,9.48343276977539,1.3431471586227417,1.617431640625,-0.579833984375,0.335693359375
16.3699999,-1.45806884765625,9.457097053527832,1.3096283674240112,3.4027099609375,1.2359619140625,-0.0457763671875
16.3899999,-1.436521053314209,9.433155059814453,1.2713210582733154,2.6092529296875,0.91552734375,-1.5411376953125
16.4099999,-1.4173674583435059,9.435548782348633,1.2497732639312744,0.2899169921875,0.1068115234375,-1.89208984375
16.429999900000002,-1.4077905416488647,9.44752025604248,1.2425906658172607,0.4425048828125,0.8544921875,-1.0833740234375
16.4499999,-1.4101848602294922,9.514557838439941,1.2497732639312744,1.28173828125,1.7242431640625,-1.9073486328125
16.4699999,-1.4197616577148438,9.564835548400879,1.2617442607879639,0.2899169921875,0.732421875,-1.03759765625
16.4899999,-1.4269442558288574,9.619902610778809,1.2832920551300049,-0.8392333984375,0.244140625,-0.9765625
16.5099999,-1.4269442558288574,9.658209800720215,1.278503656387329,-1.3427734375,-0.1220703125,-1.220703125
16.5299999,-1.4269442558288574,9.68933391571045,1.2832920551300049,-0.1373291015625,1.556396484375,-1.3275146484375
16.5499999,-1.4269442558288574,9.718064308166504,1.290474772453308,1.617431640625,1.5716552734375,-0.457763671875
16.5699999,-1.434126853942871,9.744400978088379,1.2976573705673218,0.6561279296875,-0.91552734375,0.0457763671875
16.589999900000002,-1.4437036514282227,9.761159896850586,1.292868971824646,-0.213623046875,-1.373291015625,0.67138671875
16.609999900000002,-1.4532804489135742,9.75397777557373,1.2545616626739502,-0.91552734375,0.30517578125,0.701904296875
16.6299999,-1.45806884765625,9.713275909423828,1.2210428714752197,0.6866455078125,2.288818359375,1.220703125
16.6499999,-1.45806884765625,9.66539192199707,1.192312479019165,0.518798828125,1.0528564453125,0.6866455078125
16.6699999,-1.4628572463989258,9.62947940826416,1.1899182796478271,-0.9307861328125,-0.8392333984375,0.274658203125
16.6899999,-1.4652514457702637,9.581595420837402,1.2090718746185303,-0.701904296875,0.8697509765625,1.8157958984375
16.7099999,-1.4628572463989258,9.567230224609375,1.2066776752471924,-1.28173828125,1.617431640625,1.007080078125
16.7299999,-1.4508862495422363,9.526528358459473,1.213860273361206,-0.0457763671875,1.739501953125,0.7171630859375
16.749999900000002,-1.4317326545715332,9.490615844726562,1.2282254695892334,-0.1220703125,1.6937255859375,0.48828125
16.769999900000002,-1.414973258972168,9.469067573547363,1.2497732639312744,-0.457763671875,1.1444091796875,0.1220703125
16.7899999,-1.4077905416488647,9.452308654785156,1.278503656387329,0.030517578125,1.03759765625,-0.244140625
16.8099999,-1.4101848602294922,9.469067573547363,1.3048399686813354,0.3814697265625,1.03759765625,-1.0223388671875
16.8299999,-1.4221558570861816,9.50737476348877,1.3120225667953491,-0.91552734375,0.396728515625,-0.9307861328125
16.8499999,-1.4293384552001953,9.536105155944824,1.3000515699386597,-1.3427734375,0.732421875,0.5035400390625
16.8699999,-1.4317326545715332,9.560047149658203,1.2880805730819702,-0.8544921875,2.2125244140625,0.1068115234375
16.8899999,-1.4317326545715332,9.569623947143555,1.3072341680526733,0.1220703125,2.532958984375,-1.1444091796875
16.9099999,-1.4293384552001953,9.569623947143555,1.3287819623947144,-0.946044921875,-0.4119873046875,-1.2969970703125
16.929999900000002,-1.4293384552001953,9.591172218322754,1.3551181554794312,-1.6937255859375,-1.3275146484375,-0.6561279296875
16.9499999,-1.4293384552001953,9.603142738342285,1.3311761617660522,-0.823974609375,-0.18310546875,0.091552734375
16.9699999,-1.4317326545715332,9.622296333312988,1.3000515699386597,0.9613037109375,1.9683837890625,0
16.9899999,-1.434126853942871,9.607931137084961,1.2617442607879639,1.312255859375,1.434326171875,0.0457763671875
17.0099999,-1.4437036514282227,9.612719535827637,1.256955862045288,-0.335693359375,-0.18310546875,-0.9307861328125
17.0299999,-1.4532804489135742,9.605537414550781,1.2689268589019775,0.4119873046875,0.2288818359375,-0.54931640625
17.0499999,-1.4628572463989258,9.641449928283691,1.256955862045288,0.9002685546875,-0.2899169921875,-0.518798828125
17.0699999,-1.4676456451416016,9.651026725769043,1.2258312702178955,0.640869140625,0.5340576171875,1.0986328125
17.089999900000002,-1.4652514457702637,9.658209800720215,1.2042834758758545,0.518798828125,2.5787353515625,1.2969970703125
17.109999900000002,-1.455674648284912,9.624691009521484,1.2018892765045166,0.244140625,2.25830078125,0.518798828125
17.1299999,-1.4437036514282227,9.588777542114258,1.2473790645599365,0.213623046875,0.701904296875,-0.1983642578125
17.1499999,-1.436521053314209,9.569623947143555,1.3072341680526733,1.312255859375,0.30517578125,-0.1983642578125
17.1699999,-1.4437036514282227,9.569623947143555,1.3335703611373901,0.518798828125,-0.79345703125,0.9613037109375
17.1899999,-1.455674648284912,9.583989143371582,1.338358759880066,0.518798828125,0.67138671875,1.2664794921875
17.2099999,-1.4676456451416016,9.576807022094727,1.292868971824646,-0.48828125,0.823974609375,1.03759765625
17.2299999,-1.460463047027588,9.531316757202148,1.2521674633026123,0.54931640625,2.50244140625,0.3204345703125
17.249999900000002,-1.4484920501708984,9.526528358459473,1.278503656387329,0.6866455078125,0.9918212890625,-0.1373291015625
17.269999900000002,-1.436521053314209,9.536105155944824,1.3024457693099976,-0.152587890625,-0.9613037109375,0.274658203125
17.2899999,-1.4317326545715332,9.5408935546875,1.3048399686813354,-1.068115234375,-0.79345703125,0.6866455078125
17.3099999,-1.4269442558288574,9.555258750915527,1.3024457693099976,0.0152587890625,1.8768310546875,-0.1068115234375
17.3299999,-1.4245500564575195,9.555258750915527,1.2761094570159912,-0.274658203125,0.8392333984375,-0.9613037109375
17.3499999,-1.4293384552001953,9.5624418258667,1.2545616626739502,-1.6326904296875,-1.1138916015625,-0.1678466796875
17.3699999,-1.434126853942871,9.57201862335205,1.2401964664459229,-0.7781982421875,0.640869140625,0.3509521484375
17.3899999,-1.4460978507995605,9.576807022094727,1.216254472732544,-1.0528564453125,1.739501953125,0.18310546875
17.409999900000003,-1.455674648284912,9.591172218322754,1.1994950771331787,-0.9613037109375,1.922607421875,-0.7171630859375
17.429999900000002,-1.460463047027588,9.588777542114258,1.2258312702178955,-0.8544921875,2.44140625,0.5645751953125
17.4499999,-1.45806884765625,9.617507934570312,1.290474772453308,-0.5645751953125,2.7008056640625,0.579833984375
17.4699999,-1.4460978507995605,9.643844604492188,1.381454348564148,1.0986328125,2.2430419921875,1.3427734375
17.4899999,-1.4293384552001953,9.706093788146973,1.525106430053711,6.378173828125,3.814697265625,2.655029296875
17.5099999,-1.3910311460494995,9.78989028930664,1.8794482946395874,14.70947265625,6.683349609375,4.7454833984375
17.5299999,-1.3192051649093628,10.007762908935547,2.5713725090026855,27.7252197265625,1.5106201171875,7.354736328125
17.5499999,-1.2018892765045166,10.376470565795898,3.8283286094665527,57.9681396484375,-13.1072998046875,16.815185546875
17.5699999,-1.0654197931289673,10.776301383972168,5.351040840148926,86.3494873046875,-50.9033203125,40.7562255859375
17.589999900000002,-0.9840168952941895,11.015722274780273,6.502651691436768,66.7877197265625,-114.166259765625,63.6444091796875
17.609999900000002,-0.9696516990661621,10.960655212402344,6.852205276489258,22.705078125,-155.6549072265625,70.709228515625
17.6299999,-1.1061211824417114,10.290278434753418,5.913678169250488,-18.7530517578125,-177.520751953125,73.1353759765625
17.6499999,-1.403002142906189,9.191340446472168,3.773261785507202,-73.974609375,-198.4100341796875,57.18994140625
17.6699999,-1.8555063009262085,8.061277389526367,0.5746083855628967,-77.6519775390625,-198.8983154296875,4.302978515625
17.6899999,-2.4660277366638184,7.240066051483154,-3.399766445159912,-8.5296630859375,-156.31103515625,-44.7235107421875
17.7099999,-3.2106244564056396,7.577648162841797,-7.824251174926758,31.3262939453125,-83.7554931640625,-67.8558349609375
17.7299999,-4.02465295791626,9.279925346374512,-12.114660263061523,-29.60205078125,-7.14111328125,-48.0194091796875
17.749999900000002,-4.908113479614258,11.257535934448242,-15.33725643157959,-75.775146484375,91.1712646484375,37.65869140625
17.769999900000002,-5.74129581451416,13.019668579101562,-16.622941970825195,-36.956787109375,204.254150390625,82.672119140625
17.7899999,-6.440402507781982,13.680468559265137,-16.225505828857422,-41.1529541015625,251.068115234375,64.3463134765625
17.8099999,-6.971915245056152,13.093889236450195,-14.45858383178711,-75.775146484375,287.0941162109375,70.4803466796875
17.8299999,-7.5201873779296875,11.872846603393555,-10.730812072753906,9.1552734375,415.802001953125,87.2650146484375
17.8499999,-7.829039573669434,10.304644584655762,-4.355052947998047,240.3106689453125,499.9847412109375,69.366455078125
17.8699999,-7.60637903213501,9.004592895507812,4.072536945343018,251.1444091796875,438.934326171875,5.6304931640625
17.8899999,-6.845022678375244,8.365341186523438,11.999738693237305,-64.9871826171875,57.464599609375,-33.9508056640625
17.909999900000003,-5.4252610206604,8.13789176940918,17.86074447631836,-113.677978515625,-9.613037109375,2.62451171875
17.929999900000002,-3.892971992492676,8.628703117370605,20.590133666992188,88.6077880859375,146.392822265625,22.3388671875
17.9499999,-2.7054479122161865,8.904036521911621,20.815189361572266,96.405029296875,72.906494140625,12.20703125
17.9699999,-2.03507137298584,9.08838939666748,20.448877334594727,7.7362060546875,-85.0372314453125,1.9989013671875
17.9899999,-1.8291701078414917,9.14585018157959,19.907787322998047,-38.787841796875,-136.383056640625,-1.40380859375
18.0099999,-2.0039467811584473,9.057265281677246,18.684350967407227,-24.9481201171875,-151.123046875,9.9639892578125
18.0299999,-2.470816135406494,9.030928611755371,16.66364288330078,-4.21142578125,-213.9739990234375,3.0364990234375
18.0499999,-3.155557870864868,8.899248123168945,14.161703109741211,24.59716796875,-268.310546875,-11.871337890625
18.0699999,-3.9408559799194336,8.87051773071289,10.896012306213379,29.5257568359375,-291.2445068359375,-18.524169921875
18.089999900000002,-4.726154327392578,9.21288776397705,6.878541469573975,-38.6199951171875,-310.5010986328125,-27.618408203125
18.109999900000002,-5.477933406829834,9.627084732055664,2.2385785579681396,-96.160888671875,-329.925537109375,-18.402099609375
18.1299999,-6.184223175048828,10.249577522277832,-2.7437551021575928,-102.386474609375,-328.18603515625,-25.7720947265625
18.1499999,-6.871358871459961,10.924742698669434,-7.879317760467529,-78.5980224609375,-284.5916748046875,-48.6602783203125
18.1699999,-7.489062786102295,11.856086730957031,-13.007698059082031,-73.2269287109375,-230.0872802734375,-56.0455322265625
18.1899999,-7.982268333435059,13.328520774841309,-17.764976501464844,-78.6895751953125,-144.47021484375,-38.604736328125
18.2099999,-8.374917984008789,14.935029983520508,-21.662736892700195,-53.4820556640625,-18.5394287109375,20.8282470703125
18.2299999,-8.645462036132812,16.182409286499023,-24.128765106201172,-41.9769287109375,112.2283935546875,81.6650390625
18.249999900000002,-8.916007041931152,16.46013641357422,-24.614788055419922,-40.3289794921875,231.5521240234375,112.152099609375
18.269999900000002,-9.313444137573242,15.483302116394043,-23.132776260375977,-39.8101806640625,324.6917724609375,126.5869140625
18.2899999,-9.926360130310059,13.740324020385742,-19.574993133544922,-38.9556884765625,399.7650146484375,132.7362060546875
18.3099999,-10.78348445892334,11.377246856689453,-13.651738166809082,58.2275390625,499.9847412109375,135.8184814453125
18.3299999,-11.44907283782959,8.916007041931152,-5.190629482269287,162.078857421875,499.9847412109375,103.5614013671875
18.3499999,-11.470620155334473,7.326257228851318,4.699818134307861,81.4971923828125,429.6722412109375,23.4832763671875
18.3699999,-10.644620895385742,6.50025749206543,14.67166805267334,-49.5758056640625,213.6688232421875,6.8511962890625
18.3899999,-8.904036521911621,6.229712963104248,23.432052612304688,46.4935302734375,179.7027587890625,67.2760009765625
18.409999900000003,-6.818686485290527,6.426037311553955,29.020118713378906,77.6519775390625,85.113525390625,48.4466552734375
18.429999900000002,-4.929661273956299,6.143521785736084,31.076738357543945,11.3067626953125,-88.6688232421875,11.810302734375
18.4499999,-3.5865142345428467,5.916072368621826,30.241161346435547,-14.0380859375,-141.143798828125,-10.4217529296875
18.4699999,-2.9161376953125,5.861005783081055,26.896461486816406,4.2724609375,-149.7039794921875,-7.904052734375
18.4899999,-2.87064790725708,6.095637321472168,22.47197723388672,8.1329345703125,-207.9315185546875,-5.18798828125
18.5099999,-3.2178070545196533,6.490680694580078,18.073827743530273,2.8533935546875,-273.4832763671875,-24.8870849609375
18.5299999,-3.825934410095215,6.983886241912842,13.869610786437988,-6.8817138671875,-330.74951171875,-52.490234375
18.5499999,-4.548983097076416,7.692570209503174,9.552865028381348,-8.9263916015625,-360.1837158203125,-62.408447265625
18.5699999,-5.355829238891602,8.678980827331543,5.04218864440918,-21.3470458984375,-361.6180419921875,-59.2498779296875
18.589999900000002,-6.196194171905518,9.916783332824707,0.22744916379451752,-38.14697265625,-355.46875,-54.9774169921875
18.609999900000002,-7.038952827453613,11.331756591796875,-4.752490520477295,-65.9027099609375,-353.424072265625,-58.929443359375
18.6299999,-7.802703380584717,12.42111873626709,-9.81143856048584,-67.0623779296875,-308.6395263671875,-39.5050048828125
18.6499999,-8.365341186523438,13.742717742919922,-14.724340438842773,-71.075439453125,-229.827880859375,-45.2728271484375
18.6699999,-8.69334602355957,14.901511192321777,-19.218257904052734,-55.1605224609375,-120.361328125,-33.111572265625
18.6899999,-8.793902397155762,15.971719741821289,-22.814348220825195,-40.8782958984375,2.044677734375,23.74267578125
18.7099999,-8.827422142028809,16.711528778076172,-24.820688247680664,-27.130126953125,143.4326171875,80.1239013671875
18.7299999,-9.023746490478516,16.563087463378906,-24.715343475341797,5.6304931640625,287.872314453125,122.6654052734375
18.749999900000002,-9.617507934570312,15.612588882446289,-22.78322410583496,-15.56396484375,376.5869140625,136.932373046875
18.769999900000002,-12.737153053283691,12.054805755615234,-12.368446350097656,95.3216552734375,499.9847412109375,164.5965576171875
18.7899999,-14.372392654418945,9.897629737854004,-2.8443117141723633,280.9906005859375,499.9847412109375,123.5809326171875
18.8099999,-14.973337173461914,8.669404029846191,8.995016098022461,174.0875244140625,499.9847412109375,10.162353515625
18.8299999,-14.053963661193848,8.02536392211914,20.791248321533203,-39.8101806640625,161.7431640625,-7.5836181640625
18.8499999,-11.635820388793945,7.7883381843566895,30.368053436279297,23.529052734375,41.9769287109375,78.0029296875
18.8699999,-8.65982723236084,7.965508937835693,35.4078483581543,78.43017578125,-37.4755859375,60.272216796875
18.8899999,-5.995080947875977,7.232883453369141,35.750221252441406,27.984619140625,-183.10546875,28.839111328125
18.909999900000003,-4.122815132141113,6.502651691436768,32.848445892333984,-37.1856689453125,-266.90673828125,-6.6070556640625
18.929999900000002,-3.2632968425750732,5.7556610107421875,27.617116928100586,-42.8924560546875,-295.501708984375,-15.9454345703125
18.9499999,-3.2178070545196533,5.60722017288208,21.052215576171875,-58.837890625,-362.6251220703125,-30.6243896484375
18.9699999,-3.7397429943084717,5.8873419761657715,14.472949028015137,-56.6253662109375,-388.5040283203125,-59.7686767578125
18.9899999,-4.702212333679199,6.485892295837402,8.40843677520752,-22.064208984375,-367.462158203125,-73.822021484375
19.0099999,-5.896918773651123,7.773972988128662,2.6384103298187256,-26.519775390625,-395.263671875,-95.1080322265625
19.0299999,-7.184999465942383,10.017339706420898,-2.765302896499634,-119.4915771484375,-432.037353515625,-116.6229248046875
19.0499999,-8.348581314086914,12.358869552612305,-8.073247909545898,-142.059326171875,-355.224609375,-58.807373046875
19.0699999,-9.10993766784668,14.82968521118164,-13.295001983642578,-100.89111328125,-234.832763671875,-18.4478759765625
19.089999900000002,-9.342175483703613,16.785747528076172,-18.057069778442383,-70.12939453125,-132.75146484375,-27.8167724609375
19.109999900000002,-9.14585018157959,17.946935653686523,-21.81596565246582,-51.1322021484375,-22.4609375,3.326416015625
19.1299999,-8.791508674621582,18.576610565185547,-24.17425537109375,-40.22216796875,120.0103759765625,75.50048828125
19.1499999,-8.695740699768066,18.368314743041992,-24.66745948791504,-23.4527587890625,277.8167724609375,141.1590576171875
19.1699999,-9.141061782836914,17.460912704467773,-23.130382537841797,-5.9051513671875,395.263671875,165.2374267578125
19.1899999,-10.268731117248535,15.988478660583496,-19.172767639160156,21.575927734375,479.18701171875,166.2445068359375
19.2099999,-11.650185585021973,13.73314094543457,-12.18409252166748,121.2005615234375,499.9847412109375,191.192626953125
19.2299999,-12.571952819824219,11.496956825256348,-3.248931646347046,87.5701904296875,499.9847412109375,174.4384765625
19.249999900000002,-12.650961875915527,9.390059471130371,6.971915245056152,-74.6612548828125,391.11328125,120.9716796875
19.269999900000002,-11.563994407653809,6.7708024978637695,17.111358642578125,-9.002685546875,323.150634765625,150.45166015625
19.2899999,-9.643844604492188,4.563348293304443,25.740062713623047,84.4268798828125,251.2359619140625,122.5128173828125
19.3099999,-7.469909191131592,2.6791117191314697,31.723173141479492,71.83837890625,58.16650390625,37.078857421875
19.3299999,-5.521028995513916,1.1635819673538208,34.13174057006836,17.974853515625,-139.9688720703125,9.9639892578125
19.3499999,-4.086902141571045,0.6823474764823914,33.497276306152344,44.647216796875,-183.2275390625,-3.7078857421875
19.3699999,-3.40216064453125,1.1180921792984009,30.01850128173828,39.886474609375,-224.8382568359375,-34.0576171875
19.3899999,-3.421314239501953,2.0015525817871094,25.02659034729004,2.1514892578125,-327.5146484375,-53.375244140625
19.409999900000003,-3.9911341667175293,3.19865345954895,19.49837875366211,-5.67626953125,-402.7252197265625,-76.904296875
19.429999900000002,-4.888959884643555,4.759673118591309,13.536816596984863,-34.9884033203125,-431.94580078125,-120.3765869140625
19.4499999,-5.92325496673584,6.543353080749512,7.328651428222656,-61.6455078125,-419.921875,-141.998291015625
19.4699999,-6.933608055114746,8.676587104797363,1.0773907899856567,-87.921142578125,-415.0390625,-135.6964111328125
19.4899999,-7.785943984985352,11.190498352050781,-5.018246650695801,-120.2392578125,-397.705078125,-138.519287109375
19.5099999,-8.398859977722168,13.876792907714844,-10.831368446350098,-144.95849609375,-325.1953125,-128.509521484375
19.5299999,-8.69095230102539,16.71870994567871,-16.139312744140625,-133.453369140625,-209.3353271484375,-95.3216552734375
19.5499999,-8.729259490966797,19.37627410888672,-20.573375701904297,-75.8209228515625,-62.1337890625,-26.0162353515625
19.5699999,-8.597578048706055,21.121646881103516,-23.45599365234375,-52.886962890625,98.3428955078125,75.439453125
19.589999900000002,-8.544905662536621,21.588516235351562,-24.19101333618164,-9.429931640625,257.4005126953125,142.5323486328125
19.609999900000002,-8.80587387084961,20.487184524536133,-22.759281158447266,19.6380615234375,361.6180419921875,170.0439453125
19.6299999,-9.557653427124023,18.27733612060547,-19.268535614013672,30.1361083984375,435.150146484375,190.6585693359375
19.6499999,-10.730812072753906,15.425841331481934,-13.381193161010742,107.6202392578125,499.9847412109375,204.4830322265625
19.6699999,-11.817779541015625,12.09550666809082,-5.377377033233643,232.421875,499.9847412109375,199.6307373046875
19.6899999,-12.167332649230957,8.947132110595703,4.1874589920043945,124.3743896484375,499.9847412109375,125.030517578125
19.7099999,-11.496956825256348,6.746860504150391,13.998897552490234,-59.9365234375,290.313720703125,37.7349853515625
19.7299999,-9.801861763000488,4.924872875213623,22.878992080688477,3.1890869140625,197.418212890625,76.141357421875
19.749999900000002,-7.642292022705078,4.127603530883789,29.618669509887695,126.40380859375,139.190673828125,97.8546142578125
19.769999900000002,-5.710171222686768,3.3662476539611816,33.62177276611328,110.5194091796875,-56.1065673828125,44.921875
19.7899999,-4.402936935424805,2.779668092727661,34.58184814453125,37.445068359375,-255.1727294921875,-12.1307373046875
19.8099999,-3.890577793121338,2.319981336593628,32.50368118286133,4.608154296875,-331.48193359375,-33.4014892578125
19.8299999,-4.05817174911499,2.6886885166168213,27.449522018432617,-46.4019775390625,-381.317138671875,-66.162109375
19.8499999,-4.630385875701904,3.4955344200134277,20.59731674194336,-73.0133056640625,-414.5660400390625,-100.7080078125
19.8699999,-5.353435039520264,4.778826713562012,13.184868812561035,-73.5931396484375,-405.7464599609375,-120.4376220703125
19.8899999,-6.033388137817383,6.617573261260986,6.217741966247559,-56.854248046875,-375.6103515625,-146.42333984375
19.909999900000003,-6.646304130554199,9.042900085449219,0.06703764945268631,-76.690673828125,-373.8250732421875,-157.562255859375
19.929999900000002,-7.1921820640563965,11.927912712097168,-5.20978307723999,-131.195068359375,-379.669189453125,-136.2457275390625
19.9499999,-7.60637903213501,14.82968521118164,-9.888052940368652,-163.75732421875,-313.6444091796875,-91.00341796875
19.9699999,-7.841010570526123,17.527950286865234,-14.142549514770508,-151.1383056640625,-201.507568359375,-66.10107421875
19.9899999,-7.951143741607666,19.3978214263916,-17.808073043823242,-85.14404296875,-75.653076171875,-28.6102294921875
20.0099999,-7.982268333435059,20.66435432434082,-20.47281837463379,-25.2838134765625,57.2662353515625,28.1524658203125
20.0299999,-8.145073890686035,21.13361930847168,-21.62921905517578,10.8642578125,201.171875,99.609375
20.0499999,-8.638279914855957,20.60210609436035,-21.08094596862793,10.833740234375,319.9920654296875,176.7120361328125
20.0699999,-9.57441234588623,19.01474952697754,-18.571823120117188,23.6663818359375,405.120849609375,216.0491943359375
20.089999900000002,-10.836156845092773,16.543933868408203,-14.166491508483887,62.774658203125,466.888427734375,216.30859375
20.109999900000002,-12.124237060546875,13.467384338378906,-7.8314337730407715,104.736328125,499.9847412109375,204.498291015625
20.1299999,-12.880805015563965,10.132261276245117,0.0933738648891449,110.9771728515625,499.9847412109375,194.000244140625
20.1499999,-12.665327072143555,7.144298076629639,9.153033256530762,63.201904296875,468.4906005859375,142.1966552734375
20.1699999,-11.39161205291748,4.644751071929932,18.207904815673828,6.89697265625,315.8111572265625,87.9974365234375
20.1899999,-9.32302188873291,2.719813108444214,26.161441802978516,-5.9661865234375,153.99169921875,70.12939453125
20.2099999,-7.017405033111572,1.3263877630233765,31.974563598632812,37.841796875,42.96875,56.4422607421875
20.2299999,-5.082890033721924,0.35673606395721436,34.62494659423828,45.3948974609375,-108.4747314453125,11.8255615234375
20.249999900000002,-3.861847400665283,-0.26575639843940735,34.100616455078125,12.02392578125,-229.9041748046875,-39.24560546875
