# Time (seconds),Accel_X,Accel_Y,Accel_Z,Gyro_X,Gyro_Y,Gyro_Z
0.0099999,9.512163162231445,-1.9057846069335938,-1.6903064250946045,1.4801025390625,-1.28173828125,0.30517578125
0.029999900000000003,9.524134635925293,-1.9081788063049316,-1.699883222579956,0.8544921875,-1.007080078125,-0.5340576171875
0.0499999,9.533711433410645,-1.9057846069335938,-1.7070658206939697,0.6256103515625,-1.1749267578125,-0.6866455078125
0.0699999,9.53849983215332,-1.9033904075622559,-1.7046716213226318,0.18310546875,-1.1444091796875,-0.2288818359375
0.08999990000000001,9.543288230895996,-1.900996208190918,-1.7046716213226318,-0.8544921875,-1.03759765625,-0.244140625
0.10999990000000001,9.543288230895996,-1.9033904075622559,-1.6974890232086182,0.7476806640625,-0.7171630859375,-0.1373291015625
0.1299999,9.5408935546875,-1.9153614044189453,-1.6950948238372803,1.4801025390625,-0.9918212890625,0.06103515625
0.14999990000000002,9.528923034667969,-1.922544002532959,-1.6903064250946045,0.8544921875,-0.9613037109375,-0.7476806640625
0.1699999,9.514557838439941,-1.9273324012756348,-1.6831238269805908,0.7781982421875,-0.54931640625,-0.54931640625
0.1899999,9.500192642211914,-1.9249382019042969,-1.6735470294952393,0.946044921875,-0.6561279296875,-0.5035400390625
0.20999990000000002,9.481039047241211,-1.9129672050476074,-1.6615760326385498,1.46484375,-1.007080078125,-0.9613037109375
0.2299999,9.469067573547363,-1.8986018896102905,-1.6519991159439087,1.1138916015625,-1.495361328125,-1.434326171875
0.2499999,9.457097053527832,-1.8842366933822632,-1.6424223184585571,0.6866455078125,-1.8768310546875,-0.9002685546875
0.2699999,9.44991397857666,-1.8746598958969116,-1.6400281190872192,0.6256103515625,-1.52587890625,0.030517578125
0.28999990000000003,9.44752025604248,-1.8698714971542358,-1.644816517829895,0.6103515625,-1.77001953125,0.3662109375
0.3099999,9.44752025604248,-1.8770540952682495,-1.6496049165725708,0.9918212890625,-2.13623046875,-0.2288818359375
0.3299999,9.457097053527832,-1.889025092124939,-1.6711528301239014,0.5645751953125,-2.0751953125,-0.5035400390625
0.34999990000000003,9.478644371032715,-1.900996208190918,-1.6927006244659424,0.701904296875,-1.7852783203125,-0.4730224609375
0.3699999,9.500192642211914,-1.9129672050476074,-1.7142484188079834,0.640869140625,-1.52587890625,-0.48828125
0.3899999,9.519346237182617,-1.920149803161621,-1.7310078144073486,0.518798828125,-1.3885498046875,-0.030517578125
0.40999990000000003,9.524134635925293,-1.9129672050476074,-1.7286136150360107,1.64794921875,-1.46484375,-0.030517578125
0.4299999,9.516951560974121,-1.8986018896102905,-1.723825216293335,0.9613037109375,-1.9073486328125,0.3509521484375
0.4499999,9.50498104095459,-1.8794482946395874,-1.7118542194366455,0.579833984375,-1.3580322265625,0.946044921875
0.4699999,9.488221168518066,-1.8626888990402222,-1.702277421951294,0.640869140625,-1.52587890625,1.64794921875
0.4899999,9.469067573547363,-1.8602946996688843,-1.702277421951294,-0.4119873046875,-1.8157958984375,0.152587890625
0.5099999,9.464279174804688,-1.8626888990402222,-1.702277421951294,0.2593994140625,-1.6632080078125,-0.91552734375
0.5299999,9.47146224975586,-1.8746598958969116,-1.7118542194366455,-0.3509521484375,-1.8768310546875,0.518798828125
0.5499999,9.500192642211914,-1.8818424940109253,-1.7262194156646729,-0.579833984375,-2.1209716796875,1.5869140625
0.5699999,9.533711433410645,-1.8818424940109253,-1.7334020137786865,-0.30517578125,-2.105712890625,1.5106201171875
0.5899998999999999,9.560047149658203,-1.8794482946395874,-1.7357962131500244,-0.7476806640625,-1.77001953125,0.67138671875
0.6099998999999999,9.5624418258667,-1.8794482946395874,-1.7286136150360107,-0.213623046875,-1.4495849609375,0.396728515625
0.6299999,9.545681953430176,-1.886630892753601,-1.7190368175506592,0.1983642578125,-1.46484375,0.9002685546875
0.6499999,9.524134635925293,-1.9081788063049316,-1.7166426181793213,0.3509521484375,-1.1138916015625,0.9765625
0.6699999,9.502586364746094,-1.9345149993896484,-1.7190368175506592,0.7476806640625,-1.0833740234375,0.701904296875
0.6899999,9.488221168518066,-1.9608511924743652,-1.7262194156646729,0.6256103515625,-1.129150390625,-0.30517578125
0.7099999,9.485827445983887,-1.9752163887023926,-1.723825216293335,0.396728515625,-0.8392333984375,-0.5645751953125
0.7299998999999999,9.478644371032715,-1.9728221893310547,-1.7166426181793213,0.2899169921875,-1.03759765625,0.335693359375
0.7499998999999999,9.478644371032715,-1.9608511924743652,-1.7046716213226318,0.4119873046875,-1.312255859375,0.42724609375
0.7699999,9.485827445983887,-1.944091796875,-1.6974890232086182,0.48828125,-1.3275146484375,-0.1983642578125
0.7899999,9.497797966003418,-1.9321208000183105,-1.6927006244659424,0.1678466796875,-1.0528564453125,0.3204345703125
0.8099999,9.514557838439941,-1.9249382019042969,-1.6927006244659424,0.48828125,-0.91552734375,0.8087158203125
0.8299999,9.524134635925293,-1.922544002532959,-1.6903064250946045,0.1220703125,-0.823974609375,0.823974609375
0.8499998999999999,9.521739959716797,-1.922544002532959,-1.678335428237915,0.7476806640625,-0.9918212890625,0.6256103515625
0.8699998999999999,9.509769439697266,-1.9297266006469727,-1.6735470294952393,-0.244140625,-1.5411376953125,0.7781982421875
0.8899999,9.502586364746094,-1.941697597503662,-1.6711528301239014,-0.7476806640625,-1.556396484375,0.4730224609375
0.9099999,9.490615844726562,-1.9632453918457031,-1.6855180263519287,0.335693359375,-1.190185546875,0.274658203125
0.9299999,9.488221168518066,-1.9847931861877441,-1.7046716213226318,1.2664794921875,-0.640869140625,-0.274658203125
0.9499999,9.485827445983887,-1.9991583824157715,-1.7262194156646729,0.762939453125,-0.823974609375,-1.0986328125
0.9699998999999999,9.490615844726562,-1.9967641830444336,-1.7405846118927002,0.1983642578125,-0.9307861328125,-0.9613037109375
0.9899998999999999,9.493009567260742,-1.9800047874450684,-1.742978811264038,1.678466796875,-0.5340576171875,-0.213623046875
1.0099999,9.495404243469238,-1.9584569931030273,-1.7334020137786865,1.6021728515625,-1.40380859375,0.9918212890625
1.0299999,9.493009567260742,-1.9345149993896484,-1.7166426181793213,0.7476806640625,-1.800537109375,1.0833740234375
1.0499999,9.490615844726562,-1.920149803161621,-1.699883222579956,0.2899169921875,-1.28173828125,-0.244140625
1.0699999,9.488221168518066,-1.9177556037902832,-1.6927006244659424,0.3204345703125,-0.9613037109375,-0.1068115234375
1.0899999,9.490615844726562,-1.9249382019042969,-1.6950948238372803,0.732421875,-0.701904296875,0.3204345703125
1.1099999,9.495404243469238,-1.9369091987609863,-1.6974890232086182,0.6866455078125,-0.6103515625,-0.2899169921875
1.1299999,9.493009567260742,-1.946485996246338,-1.6974890232086182,0.152587890625,-0.7781982421875,-0.8697509765625
1.1499999,9.488221168518066,-1.946485996246338,-1.6855180263519287,0.30517578125,-0.9613037109375,-0.6256103515625
1.1699998999999999,9.488221168518066,-1.9393033981323242,-1.678335428237915,-0.5645751953125,-1.2664794921875,-0.244140625
1.1899998999999999,9.48343276977539,-1.9297266006469727,-1.6687586307525635,-0.3509521484375,-1.0528564453125,0.274658203125
1.2099999,9.481039047241211,-1.922544002532959,-1.6663644313812256,0.1983642578125,-1.007080078125,0.2288818359375
1.2299999,9.478644371032715,-1.9321208000183105,-1.6711528301239014,-0.2899169921875,-1.373291015625,-0.335693359375
1.2499999,9.47146224975586,-1.9488801956176758,-1.678335428237915,-0.030517578125,-1.678466796875,0.06103515625
1.2699999,9.476250648498535,-1.9704279899597168,-1.6855180263519287,0.0457763671875,-0.9307861328125,-0.67138671875
1.2899999,9.48343276977539,-1.9800047874450684,-1.6950948238372803,-0.0152587890625,-0.946044921875,-1.373291015625
1.3099999,9.490615844726562,-1.9800047874450684,-1.6950948238372803,0.1373291015625,-1.2359619140625,-0.3204345703125
1.3299999,9.493009567260742,-1.9752163887023926,-1.6903064250946045,0.091552734375,-1.5716552734375,0.2899169921875
1.3499999,9.493009567260742,-1.9752163887023926,-1.6855180263519287,-0.1983642578125,-2.0751953125,0.6561279296875
1.3699999,9.495404243469238,-1.9823989868164062,-1.6831238269805908,0.1220703125,-2.471923828125,0.7476806640625
1.3899999,9.502586364746094,-1.987187385559082,-1.6879122257232666,0.4730224609375,-1.8310546875,-0.3662109375
1.4099999,9.514557838439941,-1.9847931861877441,-1.6903064250946045,0.7171630859375,-1.2359619140625,-1.2359619140625
1.4299998999999999,9.521739959716797,-1.968033790588379,-1.6950948238372803,0.640869140625,-0.9613037109375,-0.7476806640625
1.4499999,9.519346237182617,-1.946485996246338,-1.6903064250946045,0.7781982421875,-0.8697509765625,-0.1373291015625
1.4699999,9.500192642211914,-1.9297266006469727,-1.6879122257232666,0.7781982421875,-1.3275146484375,0.6103515625
1.4899999,9.476250648498535,-1.9249382019042969,-1.6879122257232666,0.91552734375,-1.9073486328125,1.0833740234375
1.5099999,9.44991397857666,-1.9345149993896484,-1.6927006244659424,0.823974609375,-2.3040771484375,0.732421875
1.5299999,9.437943458557129,-1.946485996246338,-1.702277421951294,0.2899169921875,-1.8463134765625,-0.701904296875
1.5499999,9.440337181091309,-1.9584569931030273,-1.7118542194366455,0.1373291015625,-1.52587890625,-0.42724609375
1.5699999,9.459490776062012,-1.9584569931030273,-1.7190368175506592,0.79345703125,-1.983642578125,1.64794921875
1.5899999,9.481039047241211,-1.9608511924743652,-1.721431016921997,0.9765625,-2.349853515625,2.166748046875
1.6099999,9.509769439697266,-1.9608511924743652,-1.721431016921997,0.30517578125,-2.13623046875,0.79345703125
1.6299999,9.533711433410645,-1.9608511924743652,-1.7190368175506592,0.4425048828125,-1.129150390625,-0.1068115234375
1.6499999,9.555258750915527,-1.9608511924743652,-1.7166426181793213,0.6866455078125,-0.7781982421875,0.2288818359375
1.6699999,9.564835548400879,-1.9584569931030273,-1.7070658206939697,0.152587890625,-0.7171630859375,0.2593994140625
1.6899998999999999,9.5624418258667,-1.9584569931030273,-1.6950948238372803,-0.4425048828125,-0.7476806640625,0.06103515625
1.7099999,9.548076629638672,-1.965639591217041,-1.6855180263519287,0.152587890625,-1.0833740234375,0.0457763671875
1.7299999,9.531316757202148,-1.9800047874450684,-1.6831238269805908,0.7171630859375,-1.0528564453125,0.0762939453125
1.7499999,9.512163162231445,-1.987187385559082,-1.6855180263519287,0.4730224609375,-0.7476806640625,-0.335693359375
1.7699999,9.493009567260742,-1.9919757843017578,-1.6879122257232666,0.42724609375,-1.15966796875,-0.1983642578125
1.7899999,9.481039047241211,-1.9943699836730957,-1.6950948238372803,-0.2593994140625,-1.617431640625,-0.42724609375
1.8099999,9.476250648498535,-1.98958158493042,-1.7070658206939697,-0.1068115234375,-1.3885498046875,-0.7781982421875
1.8299999,9.478644371032715,-1.9847931861877441,-1.7166426181793213,0.5340576171875,-0.701904296875,-0.4119873046875
1.8499999,9.481039047241211,-1.9704279899597168,-1.7190368175506592,0.79345703125,-0.6256103515625,0.2593994140625
1.8699999,9.48343276977539,-1.9584569931030273,-1.7118542194366455,0.335693359375,-1.007080078125,-0.091552734375
1.8899999,9.473855972290039,-1.944091796875,-1.6950948238372803,0.0152587890625,-1.5411376953125,-0.30517578125
1.9099999,9.461885452270508,-1.9369091987609863,-1.6831238269805908,0.1068115234375,-1.4495849609375,0.4425048828125
1.9299998999999999,9.452308654785156,-1.944091796875,-1.6831238269805908,-0.6256103515625,-1.1444091796875,0.6103515625
1.9499999,9.44991397857666,-1.9560627937316895,-1.6879122257232666,-0.3662109375,-1.0528564453125,0.3662109375
1.9699999,9.452308654785156,-1.9728221893310547,-1.7046716213226318,-0.3662109375,-1.0223388671875,-0.5035400390625
1.9899999,9.466673851013184,-1.98958158493042,-1.7142484188079834,-0.1678466796875,-1.0223388671875,-0.457763671875
2.0099999,9.493009567260742,-2.0015525817871094,-1.723825216293335,0.0457763671875,-0.91552734375,-0.4119873046875
2.0299999,9.516951560974121,-2.0039467811584473,-1.7190368175506592,0.4425048828125,-0.762939453125,-0.701904296875
2.0499999,9.536105155944824,-1.9967641830444336,-1.7094600200653076,0.5950927734375,-0.5645751953125,-0.2899169921875
2.0699999,9.545681953430176,-1.987187385559082,-1.699883222579956,0.0152587890625,-0.8697509765625,0.2593994140625
2.0899999,9.5408935546875,-1.9776105880737305,-1.6927006244659424,0.5035400390625,-1.0528564453125,0.48828125
2.1099999,9.526528358459473,-1.9704279899597168,-1.6974890232086182,1.28173828125,-0.640869140625,0.1373291015625
2.1299999,9.50498104095459,-1.9728221893310547,-1.699883222579956,0.885009765625,-0.5645751953125,-0.1220703125
2.1499999,9.476250648498535,-1.9776105880737305,-1.699883222579956,-0.0762939453125,-0.6866455078125,-0.3204345703125
2.1699999,9.44752025604248,-1.9776105880737305,-1.6879122257232666,-0.42724609375,-1.15966796875,-0.8697509765625
2.1899999,9.430760383605957,-1.9752163887023926,-1.678335428237915,-0.4119873046875,-1.40380859375,-1.3275146484375
2.2099999,9.437943458557129,-1.9632453918457031,-1.6735470294952393,-0.640869140625,-1.52587890625,-1.4190673828125
2.2299999,9.464279174804688,-1.944091796875,-1.6711528301239014,-0.7476806640625,-1.495361328125,-0.5645751953125
2.2499999,9.495404243469238,-1.9249382019042969,-1.6711528301239014,-0.18310546875,-1.2969970703125,0.9613037109375
2.2699999,9.514557838439941,-1.9177556037902832,-1.6759412288665771,-0.1678466796875,-1.52587890625,1.2664794921875
2.2899999,9.514557838439941,-1.9369091987609863,-1.6759412288665771,-0.152587890625,-1.7242431640625,0.579833984375
2.3099999,9.50498104095459,-1.9728221893310547,-1.6855180263519287,0.091552734375,-1.5106201171875,-0.0762939453125
2.3299999,9.493009567260742,-2.0159177780151367,-1.6974890232086182,0.1220703125,-1.1138916015625,-0.9307861328125
2.3499999,9.493009567260742,-2.049436569213867,-1.7046716213226318,0.518798828125,-0.8087158203125,-1.4190673828125
2.3699999,9.500192642211914,-2.049436569213867,-1.702277421951294,0.42724609375,-0.823974609375,-1.617431640625
2.3899999,9.509769439697266,-2.0231003761291504,-1.6831238269805908,0.030517578125,-1.0833740234375,-0.8697509765625
2.4099999,9.519346237182617,-1.98958158493042,-1.6615760326385498,0.0457763671875,-1.1444091796875,0.1068115234375
2.4299999,9.526528358459473,-1.965639591217041,-1.6496049165725708,0.457763671875,-1.46484375,0.5035400390625
2.4499999,9.524134635925293,-1.9608511924743652,-1.6519991159439087,0.885009765625,-1.434326171875,-0.0457763671875
2.4699999,9.516951560974121,-1.968033790588379,-1.659181833267212,0.8544921875,-1.3427734375,-0.732421875
2.4899999,9.502586364746094,-1.9728221893310547,-1.6663644313812256,0.457763671875,-1.434326171875,-1.2664794921875
2.5099999,9.485827445983887,-1.9704279899597168,-1.6687586307525635,0.5340576171875,-1.3885498046875,-0.79345703125
2.5299999,9.47146224975586,-1.965639591217041,-1.6687586307525635,0.4730224609375,-1.2664794921875,-0.3509521484375
2.5499999,9.469067573547363,-1.9608511924743652,-1.678335428237915,0.335693359375,-1.373291015625,-0.8544921875
2.5699999,9.469067573547363,-1.9632453918457031,-1.6903064250946045,0.6561279296875,-1.556396484375,-0.732421875
2.5899999,9.476250648498535,-1.9632453918457031,-1.702277421951294,0.396728515625,-2.2735595703125,-0.2899169921875
2.6099999,9.478644371032715,-1.9608511924743652,-1.7094600200653076,0.640869140625,-2.25830078125,0.030517578125
2.6299999,9.481039047241211,-1.9608511924743652,-1.7190368175506592,0.54931640625,-1.922607421875,-0.3204345703125
2.6499999,9.490615844726562,-1.9608511924743652,-1.723825216293335,0.5950927734375,-1.89208984375,-0.8392333984375
2.6699999,9.497797966003418,-1.9536685943603516,-1.7310078144073486,0.8392333984375,-1.77001953125,-0.885009765625
2.6899999,9.50737476348877,-1.941697597503662,-1.7286136150360107,0.9613037109375,-1.800537109375,-0.06103515625
2.7099999,9.512163162231445,-1.922544002532959,-1.7190368175506592,0.4730224609375,-1.5106201171875,0.0762939453125
2.7299999,9.512163162231445,-1.9081788063049316,-1.7094600200653076,0.42724609375,-1.5411376953125,-0.18310546875
2.7499999,9.509769439697266,-1.9033904075622559,-1.7046716213226318,0.48828125,-1.5869140625,-0.4425048828125
2.7699999,9.509769439697266,-1.9105730056762695,-1.7046716213226318,0.396728515625,-1.1444091796875,-0.5035400390625
2.7899999,9.50737476348877,-1.9273324012756348,-1.7070658206939697,0.3814697265625,-1.1749267578125,-0.42724609375
2.8099999,9.50737476348877,-1.9369091987609863,-1.7046716213226318,0.244140625,-1.28173828125,-0.6256103515625
2.8299999,9.50498104095459,-1.946485996246338,-1.7046716213226318,0.213623046875,-1.5716552734375,-0.5645751953125
2.8499999,9.509769439697266,-1.9536685943603516,-1.7046716213226318,0.30517578125,-1.495361328125,-0.5340576171875
2.8699999,9.512163162231445,-1.9608511924743652,-1.7118542194366455,0.30517578125,-1.2054443359375,-0.2593994140625
2.8899999,9.514557838439941,-1.9608511924743652,-1.7166426181793213,0.457763671875,-1.190185546875,-0.67138671875
2.9099999,9.512163162231445,-1.9608511924743652,-1.7190368175506592,0.274658203125,-1.5411376953125,-1.373291015625
2.9299999,9.500192642211914,-1.9536685943603516,-1.7166426181793213,0.6866455078125,-1.28173828125,-0.823974609375
2.9499999,9.490615844726562,-1.946485996246338,-1.7142484188079834,1.1749267578125,-1.1138916015625,-0.335693359375
2.9699999,9.485827445983887,-1.944091796875,-1.7118542194366455,0.3509521484375,-1.4190673828125,-0.579833984375
2.9899999,9.485827445983887,-1.9488801956176758,-1.7142484188079834,0.213623046875,-1.52587890625,-0.823974609375
3.0099999,9.485827445983887,-1.9632453918457031,-1.7190368175506592,-0.244140625,-1.4801025390625,-1.129150390625
3.0299999,9.493009567260742,-1.9752163887023926,-1.7262194156646729,0.4730224609375,-1.800537109375,-0.518798828125
3.0499999,9.502586364746094,-1.9752163887023926,-1.7286136150360107,1.8157958984375,-2.1209716796875,0.732421875
3.0699999,9.512163162231445,-1.968033790588379,-1.7310078144073486,0.48828125,-1.708984375,-0.518798828125
3.0899999,9.519346237182617,-1.9488801956176758,-1.7262194156646729,0.4425048828125,-1.1749267578125,-1.40380859375
3.1099999,9.516951560974121,-1.9273324012756348,-1.721431016921997,1.15966796875,-0.9765625,-0.701904296875
3.1299999,9.502586364746094,-1.9129672050476074,-1.7118542194366455,1.495361328125,-1.1749267578125,0.18310546875
3.1499999,9.473855972290039,-1.9081788063049316,-1.6974890232086182,1.800537109375,-1.861572265625,0.9307861328125
3.1699999,9.44752025604248,-1.9177556037902832,-1.6950948238372803,0.9918212890625,-2.6702880859375,0.5950927734375
3.1899999,9.430760383605957,-1.9321208000183105,-1.6927006244659424,0.8087158203125,-2.5634765625,-0.4730224609375
3.2099999,9.435548782348633,-1.946485996246338,-1.7046716213226318,1.28173828125,-2.1209716796875,-0.5340576171875
3.2299999,9.457097053527832,-1.9560627937316895,-1.7142484188079834,1.983642578125,-2.410888671875,1.0223388671875
3.2499999,9.48343276977539,-1.9560627937316895,-1.721431016921997,2.0599365234375,-3.0517578125,1.40380859375
3.2699999,9.509769439697266,-1.946485996246338,-1.723825216293335,0.8087158203125,-2.25830078125,-0.1373291015625
3.2899999,9.531316757202148,-1.9321208000183105,-1.7190368175506592,0.518798828125,-1.6326904296875,-1.3275146484375
3.3099999,9.545681953430176,-1.9177556037902832,-1.721431016921997,0.3662109375,-1.4801025390625,-0.3509521484375
3.3299999000000002,9.548076629638672,-1.9081788063049316,-1.7190368175506592,0.6103515625,-1.40380859375,0.1678466796875
3.3499999,9.53849983215332,-1.9105730056762695,-1.721431016921997,0.5950927734375,-1.373291015625,-0.2288818359375
3.3699999,9.514557838439941,-1.9249382019042969,-1.723825216293335,0.4119873046875,-1.190185546875,-0.2899169921875
3.3899999,9.48343276977539,-1.9393033981323242,-1.7286136150360107,0.5035400390625,-1.2359619140625,-0.4730224609375
3.4099999,9.459490776062012,-1.946485996246338,-1.7381904125213623,0.7476806640625,-1.4801025390625,-0.640869140625
3.4299999,9.445125579833984,-1.946485996246338,-1.7525556087493896,1.251220703125,-1.8310546875,0.335693359375
3.4499999,9.442731857299805,-1.9393033981323242,-1.764526605606079,1.007080078125,-2.01416015625,0.7781982421875
3.4699999,9.452308654785156,-1.9273324012756348,-1.778891921043396,0.7476806640625,-1.8463134765625,0.3814697265625
3.4899999,9.478644371032715,-1.9129672050476074,-1.7884687185287476,0.5950927734375,-1.3580322265625,-0.274658203125
3.5099999,9.502586364746094,-1.8962076902389526,-1.7932571172714233,0.7781982421875,-0.823974609375,0.6103515625
3.5299999,9.521739959716797,-1.889025092124939,-1.7884687185287476,0.8544921875,-0.8087158203125,2.01416015625
3.5499999,9.524134635925293,-1.886630892753601,-1.7764976024627686,0.4730224609375,-0.9002685546875,1.6632080078125
3.5699999,9.514557838439941,-1.9033904075622559,-1.7621324062347412,0.0762939453125,-1.068115234375,0.67138671875
3.5899999,9.495404243469238,-1.922544002532959,-1.7501614093780518,0.0457763671875,-0.91552734375,0.701904296875
3.6099999,9.485827445983887,-1.9488801956176758,-1.742978811264038,-0.3509521484375,-0.8087158203125,0.5645751953125
3.6299999,9.481039047241211,-1.9704279899597168,-1.7405846118927002,-0.5035400390625,-0.8392333984375,0.1068115234375
3.6499999,9.48343276977539,-1.987187385559082,-1.7357962131500244,-0.213623046875,-0.946044921875,0.30517578125
3.6699999,9.48343276977539,-1.9967641830444336,-1.7310078144073486,0.1373291015625,-0.732421875,0.2288818359375
3.6899999,9.481039047241211,-1.9967641830444336,-1.7262194156646729,-0.2899169921875,-0.762939453125,-0.0152587890625
3.7099999,9.473855972290039,-1.9967641830444336,-1.7190368175506592,-0.213623046875,-0.9002685546875,-0.2288818359375
3.7299999,9.464279174804688,-1.98958158493042,-1.7142484188079834,0.18310546875,-1.0223388671875,-0.18310546875
3.7499999,9.459490776062012,-1.9776105880737305,-1.7094600200653076,-0.1220703125,-1.2359619140625,-0.6103515625
3.7699999,9.457097053527832,-1.9704279899597168,-1.7118542194366455,-0.3662109375,-1.5869140625,0.1373291015625
3.7899999,9.461885452270508,-1.968033790588379,-1.7190368175506592,-0.1983642578125,-1.6326904296875,0.8087158203125
3.8099999,9.469067573547363,-1.9752163887023926,-1.7310078144073486,-0.6561279296875,-1.5106201171875,-0.0457763671875
3.8299999000000002,9.48343276977539,-1.987187385559082,-1.745373010635376,-1.068115234375,-1.3427734375,-0.762939453125
3.8499999,9.497797966003418,-1.9943699836730957,-1.7573440074920654,-0.42724609375,-1.495361328125,0.152587890625
3.8699999,9.512163162231445,-1.9943699836730957,-1.7621324062347412,0.335693359375,-1.6937255859375,0.5340576171875
3.8899999,9.521739959716797,-1.9800047874450684,-1.7621324062347412,0.4119873046875,-1.3885498046875,0.3204345703125
3.9099999,9.526528358459473,-1.9632453918457031,-1.7573440074920654,0.152587890625,-1.1138916015625,0.1373291015625
3.9299999,9.519346237182617,-1.9536685943603516,-1.7501614093780518,0.091552734375,-1.068115234375,0.6561279296875
3.9499999,9.50498104095459,-1.9512743949890137,-1.7477672100067139,-0.244140625,-0.9613037109375,0.7781982421875
3.9699999,9.490615844726562,-1.9560627937316895,-1.7477672100067139,0.0152587890625,-0.823974609375,0.06103515625
3.9899999,9.478644371032715,-1.9608511924743652,-1.7477672100067139,0.3509521484375,-0.79345703125,-0.18310546875
4.0099999,9.469067573547363,-1.9632453918457031,-1.745373010635376,-0.030517578125,-0.8544921875,0.06103515625
4.029999900000001,9.461885452270508,-1.9584569931030273,-1.7405846118927002,-0.2899169921875,-1.129150390625,0.457763671875
4.0499999,9.459490776062012,-1.9584569931030273,-1.7357962131500244,-0.762939453125,-1.46484375,0.4119873046875
4.069999900000001,9.469067573547363,-1.9704279899597168,-1.7405846118927002,-0.6561279296875,-1.5106201171875,0.4730224609375
4.0899999000000005,9.48343276977539,-1.9823989868164062,-1.7573440074920654,-0.2288818359375,-0.9307861328125,0.42724609375
4.1099999,9.497797966003418,-1.98958158493042,-1.7717092037200928,0,-0.3814697265625,0.3509521484375
4.1299999000000005,9.502586364746094,-1.987187385559082,-1.7741034030914307,-0.518798828125,-0.54931640625,0.396728515625
4.1499999,9.493009567260742,-1.9776105880737305,-1.7597382068634033,-0.7171630859375,-1.0528564453125,1.1138916015625
4.1699999000000005,9.478644371032715,-1.9776105880737305,-1.7381904125213623,-0.732421875,-1.251220703125,1.1444091796875
4.1899999,9.466673851013184,-1.987187385559082,-1.721431016921997,-0.5035400390625,-1.129150390625,0.2899169921875
4.209999900000001,9.466673851013184,-2.011129379272461,-1.7142484188079834,-0.3662109375,-1.1138916015625,0.0762939453125
4.2299999,9.47146224975586,-2.030282974243164,-1.7142484188079834,-0.2899169921875,-1.3275146484375,0.091552734375
4.249999900000001,9.478644371032715,-2.0446481704711914,-1.7190368175506592,-0.1220703125,-1.251220703125,-0.0457763671875
4.2699999,9.488221168518066,-2.051830768585205,-1.721431016921997,0.2899169921875,-1.190185546875,0.0457763671875
4.289999900000001,9.493009567260742,-2.0470423698425293,-1.723825216293335,0.7171630859375,-1.40380859375,0.06103515625
4.3099999,9.493009567260742,-2.03507137298584,-1.7190368175506592,0.4730224609375,-1.46484375,0.2593994140625
4.329999900000001,9.495404243469238,-2.0231003761291504,-1.7190368175506592,-0.18310546875,-1.3427734375,-0.3204345703125
4.3499999,9.493009567260742,-2.013523578643799,-1.7190368175506592,0.1678466796875,-1.1138916015625,-0.30517578125
4.369999900000001,9.495404243469238,-2.006340980529785,-1.723825216293335,0.6256103515625,-1.007080078125,-0.335693359375
4.3899999,9.500192642211914,-2.006340980529785,-1.7286136150360107,0.8544921875,-0.9918212890625,-0.2899169921875
4.409999900000001,9.50498104095459,-2.006340980529785,-1.7310078144073486,0.732421875,-1.03759765625,-0.1373291015625
4.4299999,9.50498104095459,-2.0039467811584473,-1.7334020137786865,0.335693359375,-1.28173828125,0.1678466796875
4.449999900000001,9.500192642211914,-2.006340980529785,-1.7310078144073486,0.1373291015625,-0.8087158203125,-0.030517578125
4.4699999,9.488221168518066,-2.006340980529785,-1.7286136150360107,0.457763671875,-0.640869140625,-0.2593994140625
4.489999900000001,9.47146224975586,-2.008735179901123,-1.7262194156646729,0.3204345703125,-0.9765625,-0.1983642578125
4.5099999,9.459490776062012,-2.011129379272461,-1.7262194156646729,0.3814697265625,-1.46484375,-0.030517578125
4.529999900000001,9.452308654785156,-2.008735179901123,-1.7310078144073486,0.8544921875,-1.739501953125,0.1220703125
4.5499999,9.452308654785156,-2.006340980529785,-1.7357962131500244,0.7171630859375,-1.129150390625,-0.1373291015625
4.569999900000001,9.454702377319336,-2.0039467811584473,-1.7381904125213623,0.0152587890625,-1.2664794921875,-0.0152587890625
4.5899999000000005,9.454702377319336,-2.0039467811584473,-1.7381904125213623,-0.67138671875,-1.556396484375,-0.54931640625
4.609999900000001,9.459490776062012,-2.0039467811584473,-1.7357962131500244,-0.335693359375,-1.5716552734375,-1.007080078125
4.6299999000000005,9.473855972290039,-2.0015525817871094,-1.7357962131500244,0.2593994140625,-1.9683837890625,-0.1678466796875
4.6499999,9.493009567260742,-1.9967641830444336,-1.7381904125213623,0.213623046875,-2.0904541015625,0.732421875
4.6699999000000005,9.514557838439941,-1.98958158493042,-1.7405846118927002,-0.06103515625,-1.5106201171875,-0.0457763671875
4.6899999,9.528923034667969,-1.987187385559082,-1.745373010635376,0.2288818359375,-0.9765625,-0.48828125
4.709999900000001,9.528923034667969,-1.987187385559082,-1.742978811264038,0.701904296875,-0.762939453125,0.2593994140625
4.7299999,9.516951560974121,-1.9967641830444336,-1.7405846118927002,0.4425048828125,-0.9613037109375,0.1983642578125
4.749999900000001,9.50498104095459,-2.006340980529785,-1.7405846118927002,0.2899169921875,-1.1749267578125,-0.4730224609375
4.7699999,9.493009567260742,-2.0159177780151367,-1.742978811264038,0.640869140625,-0.91552734375,-0.5035400390625
4.789999900000001,9.48343276977539,-2.0183119773864746,-1.745373010635376,0.762939453125,-0.8087158203125,-0.5950927734375
4.8099999,9.48343276977539,-2.0159177780151367,-1.742978811264038,0.762939453125,-0.67138671875,-0.2288818359375
4.829999900000001,9.478644371032715,-2.006340980529785,-1.7357962131500244,0.7171630859375,-0.6103515625,0.1678466796875
4.8499999,9.48343276977539,-2.006340980529785,-1.7286136150360107,-0.1373291015625,-0.9918212890625,-0.3509521484375
4.869999900000001,9.48343276977539,-2.0015525817871094,-1.7262194156646729,0.091552734375,-0.9613037109375,-0.2288818359375
4.8899999,9.488221168518066,-2.0039467811584473,-1.7286136150360107,0.5645751953125,-0.7171630859375,-0.06103515625
4.909999900000001,9.495404243469238,-2.008735179901123,-1.7334020137786865,0.6103515625,-0.732421875,-0.1373291015625
4.9299999,9.495404243469238,-2.013523578643799,-1.7310078144073486,0.7171630859375,-0.54931640625,0.091552734375
4.949999900000001,9.485827445983887,-2.0207061767578125,-1.7262194156646729,0.4425048828125,-0.3204345703125,-0.457763671875
4.9699999,9.476250648498535,-2.027888774871826,-1.7166426181793213,0.152587890625,-0.6256103515625,-0.7781982421875
4.989999900000001,9.466673851013184,-2.027888774871826,-1.7094600200653076,0.762939453125,-0.701904296875,-0.396728515625
5.0099999,9.459490776062012,-2.0254945755004883,-1.7094600200653076,0.732421875,-0.701904296875,-0.5340576171875
5.029999900000001,9.459490776062012,-2.0159177780151367,-1.7118542194366455,0.457763671875,-0.640869140625,-0.8392333984375
5.0499999,9.466673851013184,-2.0039467811584473,-1.7190368175506592,0.274658203125,-0.6103515625,-1.0528564453125
5.069999900000001,9.476250648498535,-1.987187385559082,-1.721431016921997,0.6561279296875,-0.762939453125,-0.274658203125
5.0899999000000005,9.488221168518066,-1.9776105880737305,-1.723825216293335,0.3662109375,-0.9918212890625,0.1373291015625
5.109999900000001,9.493009567260742,-1.9776105880737305,-1.723825216293335,0.1373291015625,-1.15966796875,0.335693359375
5.1299999000000005,9.495404243469238,-1.9847931861877441,-1.7190368175506592,0.42724609375,-1.2969970703125,0.5340576171875
5.1499999,9.488221168518066,-1.9919757843017578,-1.7142484188079834,0.3204345703125,-1.1138916015625,-0.2593994140625
5.1699999000000005,9.481039047241211,-1.987187385559082,-1.7046716213226318,0.48828125,-0.9613037109375,-1.0223388671875
5.1899999,9.47146224975586,-1.9847931861877441,-1.6950948238372803,0.152587890625,-1.434326171875,-0.06103515625
5.209999900000001,9.47146224975586,-1.9800047874450684,-1.6950948238372803,-0.213623046875,-1.46484375,0.1983642578125
5.2299999,9.476250648498535,-1.987187385559082,-1.6950948238372803,-0.06103515625,-1.0833740234375,-0.244140625
5.249999900000001,9.481039047241211,-2.0015525817871094,-1.6974890232086182,0.274658203125,-0.79345703125,-0.640869140625
5.2699999,9.48343276977539,-2.027888774871826,-1.6950948238372803,0.3204345703125,-1.28173828125,-0.9307861328125
5.289999900000001,9.461885452270508,-2.1045033931732178,-1.6927006244659424,-0.0762939453125,-2.0904541015625,-1.8463134765625
5.3099999,9.41400146484375,-2.3104045391082764,-1.7070658206939697,0.2899169921875,-3.5247802734375,-5.55419921875
5.329999900000001,9.48343276977539,-2.762908697128296,-1.9273324012756348,2.44140625,-9.70458984375,-14.46533203125
5.3499999,9.93354320526123,-3.375824451446533,-2.537853717803955,14.2669677734375,-20.0653076171875,-31.005859375
5.369999900000001,11.109095573425293,-3.8139634132385254,-3.5434184074401855,37.2772216796875,-20.355224609375,-50.323486328125
5.3899999,13.048398971557617,-3.624821424484253,-4.836287498474121,52.032470703125,6.1187744140625,-57.3272705078125
5.409999900000001,15.476119995117188,-2.5474305152893066,-5.942408561706543,70.6329345703125,59.844970703125,-35.003662109375
5.4299999,17.55189323425293,-0.7733271718025208,-6.471527099609375,77.1026611328125,104.736328125,11.993408203125
5.449999900000001,18.643648147583008,1.0845733880996704,-6.299144744873047,68.817138671875,129.9896240234375,60.9588623046875
5.4699999,18.212692260742188,2.3367409706115723,-5.506663799285889,59.26513671875,154.052734375,100.0213623046875
5.489999900000001,16.33085060119629,2.650381326675415,-4.347870349884033,60.9893798828125,175.10986328125,115.3564453125
5.5099999,13.412318229675293,2.1284453868865967,-3.0119056701660156,69.183349609375,181.0150146484375,114.501953125
5.529999900000001,9.962273597717285,1.1180921792984009,-1.6112977266311646,71.47216796875,177.3834228515625,118.8812255859375
5.5499999,6.440402507781982,-0.06464344263076782,-0.15562310814857483,68.267822265625,163.9251708984375,140.56396484375
5.569999900000001,3.246537446975708,-1.2401964664459229,1.3000515699386597,57.220458984375,144.287109375,144.8516845703125
5.5899999000000005,0.5506663918495178,-2.346317768096924,2.734178304672241,47.42431640625,109.2071533203125,117.767333984375
5.609999900000001,-1.6927006244659424,-3.421314239501953,4.132391929626465,23.7274169921875,78.3538818359375,75.2410888671875
5.6299999000000005,-3.6559460163116455,-4.448426723480225,5.5114521980285645,1.617431640625,38.238525390625,47.088623046875
5.6499999,-5.403713226318359,-5.384559631347656,6.629544734954834,-38.9556884765625,-29.8309326171875,25.3448486328125
5.6699999000000005,-6.821080684661865,-6.232107162475586,7.206547260284424,-77.362060546875,-117.9962158203125,-9.6282958984375
5.6899999,-7.524975776672363,-6.821080684661865,6.9240312576293945,-68.5882568359375,-210.44921875,-60.1806640625
5.709999900000001,-6.909666061401367,-6.983886241912842,5.518634796142578,-52.4139404296875,-295.7611083984375,-120.1019287109375
5.7299999,-4.527435302734375,-6.3518171310424805,3.0119056701660156,-47.821044921875,-346.221923828125,-183.7921142578125
5.749999900000001,-0.2513911724090576,-4.967968463897705,-0.2968810200691223,-37.4908447265625,-347.137451171875,-193.0389404296875
5.7699999,5.719748020172119,-2.9975404739379883,-4.05817174911499,-48.583984375,-297.882080078125,-138.3819580078125
5.789999900000001,12.842497825622559,-0.629675030708313,-7.6566572189331055,-53.9398193359375,-243.71337890625,-148.040771484375
5.8099999,19.74258804321289,1.680729627609253,-10.465055465698242,-19.6533203125,-113.95263671875,-160.64453125
5.829999900000001,25.34262466430664,3.663128614425659,-11.949460983276367,16.17431640625,35.21728515625,-83.251953125
5.8499999,28.1893310546875,5.142745018005371,-11.915942192077637,13.0767822265625,118.865966796875,-18.5546875
5.869999900000001,28.095956802368164,5.750872611999512,-10.6925048828125,-21.209716796875,153.4576416015625,5.462646484375
5.8899999,25.354595184326172,5.477933406829834,-8.93037223815918,-51.5594482421875,184.417724609375,39.1387939453125
5.909999900000001,20.992361068725586,4.424484729766846,-7.184999465942383,-42.755126953125,216.9342041015625,74.1424560546875
5.9299999,16.115371704101562,2.959233283996582,-5.801150798797607,-18.157958984375,252.13623046875,107.7423095703125
5.949999900000001,11.291055679321289,1.3910311460494995,-4.651933670043945,-1.15966796875,282.8826904296875,141.90673828125
5.9699999,6.97430944442749,-0.1149216815829277,-3.4380736351013184,-4.058837890625,284.3170166015625,150.57373046875
5.989999900000001,3.2585084438323975,-1.5083470344543457,-2.1045033931732178,-15.56396484375,264.6026611328125,150.81787109375
6.0099999,0.28969839215278625,-2.786850690841675,-0.5147533416748047,-7.049560546875,244.9493408203125,138.519287109375
6.029999900000001,-1.965639591217041,-3.845088005065918,1.1755530834197998,10.8489990234375,217.6055908203125,125.518798828125
6.0499999,-3.6080620288848877,-4.613626480102539,2.9544448852539062,24.9786376953125,163.1011962890625,126.7547607421875
6.069999900000001,-4.7836151123046875,-5.080495834350586,4.702212333679199,8.6212158203125,102.6763916015625,109.55810546875
6.0899999000000005,-5.552153587341309,-5.3127336502075195,6.203376770019531,-35.308837890625,40.496826171875,71.075439453125
6.109999900000001,-5.928043365478516,-5.458779811859131,7.254431247711182,-56.060791015625,-25.5279541015625,34.8358154296875
6.1299999000000005,-5.808333396911621,-5.566518783569336,7.539340972900391,-64.5599365234375,-94.8638916015625,15.8233642578125
6.149999900000001,-5.22175407409668,-5.683835029602051,7.026981830596924,-75.927734375,-169.0826416015625,16.17431640625
6.1699999000000005,-4.201824188232422,-5.832275390625,5.719748020172119,-83.8623046875,-229.30908203125,5.7373046875
6.1899999,-2.8131868839263916,-5.995080947875977,3.794809579849243,-87.40234375,-285.400390625,-17.5628662109375
6.209999900000001,-0.9074024558067322,-6.138733386993408,1.400607943534851,-97.625732421875,-332.3822021484375,-46.1273193359375
6.2299999,1.6160861253738403,-6.138733386993408,-1.3455413579940796,-97.320556640625,-369.3389892578125,-83.1756591796875
6.249999900000001,5.066130638122559,-5.825092792510986,-4.2975921630859375,-72.662353515625,-382.659912109375,-114.92919921875
6.2699999,9.564835548400879,-5.04218864440918,-7.287950038909912,-84.930419921875,-361.4044189453125,-164.093017578125
6.289999900000001,15.061923027038574,-3.8163576126098633,-10.055646896362305,-116.5008544921875,-271.209716796875,-240.753173828125
6.3099999,20.875043869018555,-2.499546527862549,-12.382811546325684,-76.019287109375,-138.0615234375,-199.8291015625
6.329999900000001,25.787946701049805,-1.1492167711257935,-13.745112419128418,44.4793701171875,-21.5606689453125,-51.239013671875
6.3499999,28.524518966674805,-0.14604631066322327,-13.802573204040527,120.54443359375,92.3004150390625,-2.105712890625
6.369999900000001,28.30185890197754,0.4405331015586853,-12.569559097290039,82.94677734375,176.788330078125,-28.839111328125
6.3899999,25.356990814208984,0.6943184733390808,-10.342951774597168,14.3585205078125,220.21484375,-31.8450927734375
6.409999900000001,20.740968704223633,0.5937620401382446,-7.773972988128662,-1.220703125,230.1788330078125,-16.0369873046875
6.4299999,15.667655944824219,0.2537853717803955,-5.47075080871582,9.2620849609375,235.90087890625,21.514892578125
6.449999900000001,11.010933876037598,-0.24660277366638184,-3.670311212539673,8.026123046875,238.1744384765625,64.239501953125
6.4699999,7.189787864685059,-0.8571242094039917,-2.3247697353363037,-1.220703125,236.1907958984375,101.37939453125
6.489999900000001,4.211400985717773,-1.5897499322891235,-1.3048399686813354,-1.64794921875,233.8104248046875,128.570556640625
6.5099999,2.049436569213867,-2.360682964324951,-0.42377370595932007,16.1895751953125,218.505859375,135.284423828125
6.529999900000001,0.4572925269603729,-3.0573954582214355,0.45010992884635925,28.900146484375,193.6492919921875,142.730712890625
6.5499999,-0.730231523513794,-3.600879430770874,1.4867992401123047,12.2528076171875,165.313720703125,137.1612548828125
6.569999900000001,-1.86508309841156,-4.1156325340271,2.6599581241607666,-51.116943359375,130.67626953125,106.8572998046875
6.5899999000000005,-3.1699230670928955,-4.790797710418701,3.780444383621216,-129.7454833984375,90.240478515625,72.7386474609375
6.609999900000001,-4.644751071929932,-5.846640586853027,4.6040496826171875,-155.9600830078125,19.3328857421875,45.8221435546875
6.6299999000000005,-6.098031520843506,-7.156269073486328,4.8482584953308105,-136.23046875,-89.4012451171875,-1.3275146484375
6.649999900000001,-6.981492042541504,-8.480262756347656,4.316745758056641,-124.786376953125,-196.136474609375,-88.9739990234375
6.6699999000000005,-6.598419666290283,-9.277531623840332,2.784456491470337,-127.8839111328125,-300.5218505859375,-198.2879638671875
6.6899999,-4.4723687171936035,-9.064447402954102,0.40940847992897034,-95.306396484375,-357.1929931640625,-276.0772705078125
6.709999900000001,-0.45010992884635925,-7.69735860824585,-2.734178304672241,-17.9901123046875,-352.0965576171875,-311.431884765625
6.7299999,5.286397457122803,-5.1331682205200195,-6.205770969390869,67.779541015625,-333.8165283203125,-295.71533203125
6.749999900000001,12.315773963928223,-1.4508862495422363,-9.279925346374512,122.650146484375,-275.3753662109375,-258.30078125
6.7699999,19.56302261352539,2.717418909072876,-11.185709953308105,94.696044921875,-105.1177978515625,-250.213623046875
6.789999900000001,25.526979446411133,6.540958881378174,-11.63342571258545,-42.7398681640625,137.5579833984375,-182.3577880859375
6.8099999,29.022512435913086,9.464279174804688,-10.524910926818848,-122.6959228515625,209.1217041015625,-120.208740234375
6.829999900000001,29.082368850708008,10.517727851867676,-8.370129585266113,-116.27197265625,181.5185546875,-52.8717041015625
6.8499999,26.283546447753906,10.019734382629395,-6.112396717071533,-163.6962890625,189.3768310546875,2.960205078125
6.869999900000001,21.674707412719727,8.164227485656738,-4.323928356170654,-242.0196533203125,245.9564208984375,5.8135986328125
6.8899999,16.780960083007812,5.595249176025391,-3.4548330307006836,-330.3375244140625,321.3653564453125,-49.957275390625
6.909999900000001,12.334927558898926,2.80361008644104,-3.44765043258667,-378.875732421875,369.2626953125,-96.25244140625
6.9299999,8.944737434387207,0.0933738648891449,-3.936067581176758,-381.6375732421875,376.434326171875,-78.094482421875
6.949999900000001,6.555324077606201,-2.403778553009033,-4.587290287017822,-408.9508056640625,379.8828125,-68.3746337890625
6.9699999,5.188235282897949,-4.580107688903809,-5.03021764755249,-395.477294921875,374.93896484375,-66.6656494140625
6.989999900000001,4.587290287017822,-6.550535678863525,-5.367800235748291,-357.421875,343.505859375,-58.4564208984375
7.0099999,4.402936935424805,-8.42040729522705,-5.468356609344482,-343.0938720703125,341.36962890625,-37.3382568359375
7.029999900000001,4.333505153656006,-10.103530883789062,-5.276820659637451,-231.26220703125,344.757080078125,-70.12939453125
7.0499999,4.156333923339844,-11.382035255432129,-4.7189717292785645,-89.324951171875,328.4759521484375,-127.838134765625
7.069999900000001,3.6343982219696045,-11.868058204650879,-3.5482068061828613,34.759521484375,290.83251953125,-89.8895263671875
7.0899999000000005,3.1100680828094482,-11.21204662322998,-2.0446481704711914,132.9498291015625,200.8056640625,-37.4603271484375
7.109999900000001,2.6360161304473877,-9.27034854888916,-0.4405331015586853,173.9654541015625,146.209716796875,-18.0206298828125
7.1299999000000005,2.365471363067627,-6.13633918762207,1.1204863786697388,236.5875244140625,128.8604736328125,-4.0740966796875
7.149999900000001,2.3965959548950195,-2.2433669567108154,2.454056739807129,311.21826171875,97.808837890625,-13.3514404296875
7.1699999000000005,2.7748796939849854,2.4229321479797363,3.466804027557373,375.0762939453125,55.908203125,-32.8521728515625
7.1899999,3.0310592651367188,7.5632829666137695,4.680664539337158,418.304443359375,56.21337890625,27.008056640625
7.209999900000001,2.9233202934265137,12.38759994506836,6.2416839599609375,381.9580078125,88.409423828125,128.875732421875
7.2299999,2.434903144836426,17.02277374267578,8.195352554321289,303.253173828125,81.4361572265625,132.537841796875
7.249999900000001,1.3718775510787964,20.55182647705078,10.697293281555176,281.6925048828125,85.99853515625,161.19384765625
7.2699999,-0.002394201699644327,22.634782791137695,13.141773223876953,216.9342041015625,103.33251953125,240.081787109375
7.289999900000001,-1.094150185585022,23.142353057861328,14.863204002380371,84.991455078125,62.43896484375,253.23486328125
7.3099999,-2.2577321529388428,21.825542449951172,15.682021141052246,-7.8887939453125,47.4395751953125,251.800537109375
7.329999900000001,-2.9735984802246094,19.105730056762695,15.30373764038086,-61.981201171875,24.9786376953125,243.95751953125
7.3499999,-3.507505416870117,15.583858489990234,14.065935134887695,-117.034912109375,16.0369873046875,222.8851318359375
7.369999900000001,-3.5745432376861572,11.939884185791016,12.289437294006348,-158.966064453125,-2.9296875,187.042236328125
7.3899999,-3.4787750244140625,8.492233276367188,10.378864288330078,-226.2420654296875,-0.9307861328125,143.24951171875
7.409999900000001,-3.1723172664642334,5.389348030090332,8.51138687133789,-294.0216064453125,13.824462890625,93.7347412109375
7.4299999,-2.849100112915039,2.6886885166168213,6.8162922859191895,-321.2127685546875,11.5203857421875,53.89404296875
7.449999900000001,-2.580949544906616,0.3208230137825012,5.449203014373779,-297.8668212890625,9.33837890625,52.8106689453125
7.4699999,-2.233790159225464,-1.601720929145813,4.3861775398254395,-270.9808349609375,-22.03369140625,65.5975341796875
7.489999900000001,-1.7142484188079834,-3.1675288677215576,3.6367924213409424,-258.4991455078125,-74.066162109375,93.3380126953125
7.5099999,-1.0534487962722778,-4.63517427444458,2.980781078338623,-249.9542236328125,-106.5521240234375,123.0621337890625
7.529999900000001,-0.021547814831137657,-6.208165168762207,2.097320795059204,-234.832763671875,-126.4495849609375,97.2900390625
7.5499999,1.192312479019165,-8.099584579467773,0.8331822156906128,-206.085205078125,-125.1678466796875,38.909912109375
7.569999900000001,2.580949544906616,-10.27591323852539,-0.7709329724311829,-132.2479248046875,-104.095458984375,-4.69970703125
7.5899999000000005,3.9408559799194336,-12.320562362670898,-2.47560453414917,-43.487548828125,-97.2137451171875,-54.2449951171875
7.609999900000001,5.125985622406006,-13.73074722290039,-3.9408559799194336,50.9490966796875,-89.9200439453125,-132.26318359375
7.6299999000000005,6.009446144104004,-13.795390129089355,-4.917690277099609,165.771484375,-102.7069091796875,-187.744140625
7.649999900000001,6.710947513580322,-12.51209831237793,-5.197812080383301,292.4041748046875,-132.720947265625,-195.86181640625
7.6699999000000005,7.560888767242432,-9.473855972290039,-5.0876784324646,381.34765625,-152.9083251953125,-211.7156982421875
7.6899999,9.155426979064941,-4.489128112792969,-4.285621166229248,470.5047607421875,-112.4267578125,-233.795166015625
7.709999900000001,11.240777015686035,1.3096283674240112,-2.7269957065582275,444.2596435546875,0.030517578125,-190.9332275390625
7.7299999,13.615824699401855,7.6111674308776855,-0.8331822156906128,359.5123291015625,25.2227783203125,-146.91162109375
7.749999900000001,15.887922286987305,13.934253692626953,1.5490485429763794,394.0277099609375,35.82763671875,-157.71484375
7.7699999,17.056293487548828,18.849550247192383,4.129997730255127,354.766845703125,131.3934326171875,-104.30908203125
7.789999900000001,17.120935440063477,22.692243576049805,6.270414352416992,150.421142578125,159.1644287109375,30.5938720703125
7.8099999,15.938200950622559,24.442405700683594,8.078036308288574,59.600830078125,60.05859375,182.2052001953125
7.829999900000001,13.508086204528809,23.860614776611328,9.004592895507812,9.765625,48.4771728515625,259.490966796875
7.8499999,10.445901870727539,21.277271270751953,8.978256225585938,-21.4385986328125,64.4683837890625,244.110107421875
7.869999900000001,7.252037048339844,17.48485565185547,8.149862289428711,-35.9649658203125,58.9141845703125,246.2005615234375
7.8899999,4.333505153656006,13.481749534606934,6.926425457000732,-51.0711669921875,58.9752197265625,289.73388671875
7.909999900000001,2.070984363555908,10.036493301391602,5.7125654220581055,-72.20458984375,75.3326416015625,319.9615478515625
7.9299999,0.35434186458587646,7.390900611877441,4.6471452713012695,-100.1739501953125,89.3402099609375,313.1561279296875
7.949999900000001,-1.0749965906143188,5.480327606201172,3.9217023849487305,-140.0604248046875,97.0458984375,313.201904296875
7.9699999,-2.205059766769409,3.976768970489502,3.488351821899414,-175.1556396484375,84.8541259765625,288.5284423828125
7.989999900000001,-3.361459255218506,2.6431987285614014,3.3494882583618164,-194.610595703125,49.6978759765625,273.9410400390625
8.0099999,-4.527435302734375,1.2018892765045166,3.5170822143554688,-200.7598876953125,37.567138671875,262.359619140625
8.0299999,-5.832275390625,-0.4884171485900879,3.8379054069519043,-233.6273193359375,37.90283203125,230.2703857421875
8.049999900000001,-7.19936466217041,-2.4468741416931152,4.235342979431152,-262.7105712890625,22.491455078125,149.261474609375
8.069999900000001,-8.508993148803711,-4.7405195236206055,4.304774761199951,-307.2052001953125,-48.553466796875,55.999755859375
8.0899999,-9.457097053527832,-7.259219646453857,3.663128614425659,-317.68798828125,-176.6510009765625,21.8658447265625
8.1099999,-9.581595420837402,-9.952696800231934,1.889025092124939,-288.6962890625,-272.8118896484375,-7.2479248046875
8.129999900000001,-8.461109161376953,-12.464214324951172,-1.2976573705673218,-268.6920166015625,-318.54248046875,-119.7662353515625
8.149999900000001,-5.774814605712891,-14.257471084594727,-5.631162166595459,-214.90478515625,-348.297119140625,-264.0380859375
8.1699999,-1.460463047027588,-14.765042304992676,-10.24000072479248,-108.4747314453125,-311.3555908203125,-354.400634765625
8.1899999,4.065354347229004,-13.697227478027344,-14.154520034790039,-16.9219970703125,-179.6112060546875,-347.625732421875
8.2099999,10.086771965026855,-11.197681427001953,-16.565481185913086,72.296142578125,-146.087646484375,-336.8682861328125
8.229999900000001,15.830461502075195,-7.441178798675537,-17.32683753967285,165.069580078125,-137.8936767578125,-376.495361328125
8.2499999,21.09052276611328,-2.846705913543701,-16.51520347595215,256.28662109375,-77.1026611328125,-327.45361328125
8.2699999,24.641124725341797,1.280897855758667,-14.58308219909668,230.6365966796875,55.450439453125,-135.498046875
8.2899999,26.43677520751953,4.680664539337158,-12.179304122924805,72.3419189453125,127.899169921875,-75.50048828125
8.309999900000001,25.969905853271484,6.469132900238037,-9.423578262329102,21.6217041015625,208.3282470703125,-113.0218505859375
8.3299999,23.238121032714844,6.916848659515381,-6.818686485290527,58.8836669921875,258.2550048828125,-87.95166015625
8.3499999,19.275718688964844,6.8162922859191895,-4.3622355461120605,65.5059814453125,257.9498291015625,-27.5421142578125
8.3699999,14.686033248901367,6.63433313369751,-2.0614075660705566,-14.8162841796875,279.6630859375,-6.103515625
8.389999900000001,10.251971244812012,6.538564682006836,0.05985504388809204,-122.4517822265625,291.0003662109375,-27.4505615234375
8.4099999,6.186617374420166,6.347028732299805,1.9536685943603516,-172.943115234375,291.168212890625,-30.853271484375
8.4299999,2.7102363109588623,5.856217384338379,3.5386300086975098,-189.75830078125,261.8865966796875,-7.9345703125
8.4499999,-0.22026655077934265,5.0876784324646,4.821922302246094,-240.264892578125,220.977783203125,-12.5732421875
8.469999900000001,-2.4396915435791016,3.7708675861358643,5.679046630859375,-336.85302734375,192.0928955078125,-41.1529541015625
8.4899999,-3.9815573692321777,1.920149803161621,5.896918773651123,-375,95.8099365234375,-25.87890625
8.5099999,-4.81473970413208,-0.608127236366272,5.451597213745117,-286.1480712890625,-17.059326171875,73.6541748046875
8.5299999,-5.006275653839111,-3.780444383621216,4.185064792633057,-212.4481201171875,-102.8900146484375,168.1365966796875
8.549999900000001,-4.728548526763916,-7.4316020011901855,1.9943699836730957,-231.3079833984375,-180.2520751953125,183.8226318359375
8.569999900000001,-3.9193081855773926,-11.331756591796875,-1.1468225717544556,-216.644287109375,-216.9189453125,123.7640380859375
8.5899999,-2.7461493015289307,-14.927847862243652,-4.982333660125732,-88.19580078125,-249.0997314453125,37.59765625
8.6099999,-1.2425906658172607,-17.401058197021484,-8.803479194641113,106.3385009765625,-263.427734375,-73.394775390625
8.629999900000001,0.35913026332855225,-18.002002716064453,-11.834539413452148,182.830810546875,-249.2523193359375,-189.7735595703125
8.649999900000001,2.2146365642547607,-16.318878173828125,-13.46259593963623,190.1702880859375,-224.9298095703125,-261.7950439453125
8.6699999,4.570530891418457,-12.45463752746582,-13.94861888885498,209.259033203125,-242.1417236328125,-280.670166015625
8.6899999,8.159439086914062,-6.823474884033203,-13.421895027160645,165.557861328125,-238.922119140625,-289.306640625
8.709999900000001,12.921506881713867,-0.17477671802043915,-12.318167686462402,123.6114501953125,-186.70654296875,-281.0516357421875
8.729999900000001,18.624494552612305,6.40927791595459,-10.639832496643066,196.4874267578125,-98.114013671875,-166.07666015625
8.7499999,24.073698043823242,11.959037780761719,-8.556877136230469,228.08837890625,19.0277099609375,-70.526123046875
8.7699999,27.748798370361328,15.533580780029297,-6.210559368133545,200.3631591796875,95.184326171875,-52.703857421875
8.7899999,28.627470016479492,16.64927864074707,-3.8067808151245117,129.302978515625,146.42333984375,-13.24462890625
8.809999900000001,26.463111877441406,15.552734375,-1.6352397203445435,62.6678466796875,192.68798828125,76.3092041015625
8.8299999,22.067358016967773,12.84968090057373,-0.08140286058187485,15.838623046875,169.43359375,160.5377197265625
8.8499999,16.620548248291016,9.550470352172852,1.1683704853057861,-39.1998291015625,96.038818359375,172.2259521484375
8.8699999,11.4849853515625,6.311115741729736,1.7717092037200928,-61.4471435546875,174.713134765625,68.0694580078125
8.889999900000001,7.072471618652344,3.756502389907837,2.1571757793426514,-133.4228515625,294.0673828125,13.3209228515625
8.9099999,3.4189200401306152,1.8531121015548706,2.5689783096313477,-160.0494384765625,270.8740234375,71.96044921875
8.9299999,0.6153098344802856,0.36152446269989014,2.978386878967285,-139.7857666015625,164.825439453125,126.64794921875
8.9499999,-1.5753847360610962,-0.9409212470054626,3.380612850189209,-172.3785400390625,113.7542724609375,126.40380859375
8.969999900000001,-2.9927520751953125,-2.298433542251587,3.6128504276275635,-227.6611328125,120.8953857421875,79.193115234375
8.9899999,-3.6774938106536865,-3.8714241981506348,3.361459255218506,-269.2108154296875,122.467041015625,25.0701904296875
9.0099999,-3.8570590019226074,-5.796362400054932,2.408566951751709,-263.641357421875,60.6536865234375,17.0745849609375
9.0299999,-3.603273630142212,-8.180987358093262,0.5817909836769104,-211.42578125,-39.459228515625,40.283203125
9.049999900000001,-3.0621838569641113,-10.869675636291504,-2.027888774871826,-142.2271728515625,-154.388427734375,64.5751953125
9.069999900000001,-2.0661959648132324,-13.378799438476562,-5.056553840637207,-68.756103515625,-191.253662109375,20.7977294921875
9.0899999,-0.7469909191131592,-15.057134628295898,-7.970297336578369,24.5208740234375,-170.928955078125,-86.8072509765625
9.1099999,1.0989385843276978,-15.346833229064941,-10.129867553710938,109.0850830078125,-168.1976318359375,-182.6171875
9.129999900000001,3.7445313930511475,-13.833697319030762,-11.286267280578613,163.604736328125,-187.80517578125,-213.226318359375
9.149999900000001,6.835445880889893,-10.57040023803711,-11.025299072265625,198.394775390625,-206.4361572265625,-194.9005126953125
9.1699999,10.807426452636719,-6.303933143615723,-10.204087257385254,192.7947998046875,-156.6009521484375,-204.40673828125
9.1899999,14.970943450927734,-1.2114660739898682,-8.482656478881836,190.643310546875,-125.8087158203125,-237.2894287109375
9.209999900000001,18.70589828491211,3.663128614425659,-6.521805286407471,230.4534912109375,-60.5926513671875,-191.95556640625
9.229999900000001,21.63640022277832,7.951143741607666,-4.431667327880859,239.0899658203125,-27.2674560546875,-98.052978515625
9.2499999,23.017854690551758,11.259930610656738,-2.449268341064453,188.2476806640625,-18.402099609375,-67.6422119140625
9.2699999,22.84786605834961,13.21599292755127,-0.811634361743927,113.372802734375,36.1328125,-76.8585205078125
9.2899999,21.095312118530273,13.735535621643066,0.31603461503982544,41.534423828125,116.790771484375,-29.693603515625
9.309999900000001,18.22226905822754,12.902353286743164,1.0223240852355957,-10.6048583984375,125.5340576171875,64.6514892578125
9.3299999,14.82968521118164,10.864887237548828,1.3982137441635132,-51.7120361328125,46.9207763671875,140.869140625
9.3499999,11.35809326171875,8.027758598327637,1.5825673341751099,-78.704833984375,25.8026123046875,149.8870849609375
9.3699999,8.453926086425781,4.819528102874756,1.647210717201233,-103.057861328125,84.991455078125,106.87255859375
9.389999900000001,6.167463779449463,1.53707754611969,1.5729905366897583,-151.123046875,113.6932373046875,97.747802734375
9.4099999,4.469974517822266,-1.7741034030914307,1.3239935636520386,-161.1328125,73.8677978515625,176.1932373046875
9.4299999,3.2297780513763428,-5.058948040008545,0.7757213711738586,-134.429931640625,15.533447265625,259.0484619140625
9.4499999,2.2625205516815186,-8.236053466796875,-0.07661445438861847,-110.137939453125,0.5950927734375,236.602783203125
9.469999900000001,1.5729905366897583,-10.946290016174316,-1.039083480834961,-90.1031494140625,10.25390625,133.8653564453125
9.4899999,1.192312479019165,-12.622231483459473,-1.8339585065841675,-65.91796875,33.447265625,33.75244140625
9.5099999,1.0582371950149536,-13.105859756469727,-2.0853497982025146,-57.891845703125,72.1893310546875,-25.1007080078125
9.5299999,1.1228805780410767,-12.476184844970703,-1.8291701078414917,-40.130615234375,31.5399169921875,-22.5982666015625
9.549999900000001,0.9481038451194763,-11.161767959594727,-0.9792284965515137,-0.7781982421875,-32.806396484375,13.458251953125
9.569999900000001,0.3758896589279175,-9.782708168029785,-0.038307227194309235,-13.12255859375,-57.1136474609375,-7.14111328125
9.5899999,-0.3878606855869293,-8.71728801727295,0.6057330369949341,-48.4771728515625,-105.072021484375,-59.9212646484375
9.6099999,-0.8140285611152649,-7.802703380584717,0.5051765441894531,-44.6014404296875,-171.8597412109375,-102.5238037109375
9.629999900000001,-0.3256114423274994,-6.914454460144043,-0.5003881454467773,-11.53564453125,-209.5489501953125,-118.0572509765625
9.649999900000001,1.1755530834197998,-5.791574001312256,-2.161964178085327,33.9508056640625,-226.9439697265625,-97.564697265625
9.6699999,3.6152446269989014,-4.347870349884033,-4.098873138427734,43.2281494140625,-210.2203369140625,-85.540771484375
9.6899999,6.687005519866943,-2.628833532333374,-5.987898349761963,8.3465576171875,-194.03076171875,-109.06982421875
9.709999900000001,10.120290756225586,-0.9409212470054626,-7.527369976043701,20.69091796875,-154.815673828125,-95.947265625
9.729999900000001,13.697227478027344,0.7637503147125244,-8.576030731201172,69.4122314453125,-102.4932861328125,-53.22265625
9.7499999,17.099388122558594,2.2457611560821533,-9.045293807983398,67.3828125,-47.821044921875,-30.6396484375
9.7699999,19.699491500854492,3.4093432426452637,-8.738836288452148,33.233642578125,28.5186767578125,-17.059326171875
9.7899999,21.0689754486084,4.0533833503723145,-7.869740962982178,-32.073974609375,85.8917236328125,-16.54052734375
9.809999900000001,21.212627410888672,4.0964789390563965,-6.737283706665039,-71.441650390625,110.6719970703125,45.928955078125
9.8299999,20.034679412841797,3.464409828186035,-5.602431774139404,-75.9429931640625,133.8043212890625,125.0152587890625
9.8499999,17.85835075378418,2.2409727573394775,-4.661510944366455,-84.1217041015625,166.7022705078125,152.801513671875
9.8699999,14.947001457214355,0.5961562395095825,-3.801992416381836,-80.841064453125,170.3033447265625,151.519775390625
9.889999900000001,11.681309700012207,-1.3048399686813354,-2.9975404739379883,-93.6279296875,145.5535888671875,146.331787109375
9.9099999,8.425195693969727,-3.4308910369873047,-2.293645143508911,-147.308349609375,146.3623046875,154.266357421875
9.9299999,5.372588634490967,-5.714959621429443,-1.8602946996688843,-202.69775390625,176.6204833984375,147.5677490234375
9.9499999,2.6431987285614014,-8.161833763122559,-1.889025092124939,-204.8187255859375,182.9833984375,113.494873046875
9.969999900000001,0.28730419278144836,-10.599130630493164,-2.408566951751709,-176.2847900390625,163.02490234375,73.6541748046875
9.9899999,-1.3000515699386597,-12.658143997192383,-3.1316158771514893,-88.043212890625,100.2655029296875,11.71875
10.0099999,-1.5634137392044067,-13.682862281799316,-3.7445313930511475,29.083251953125,23.8800048828125,-81.268310546875
10.0299999,-0.17238251864910126,-13.108254432678223,-3.907337188720703,96.3287353515625,-25.6195068359375,-166.19873046875
10.049999900000001,2.9257144927978516,-10.953473091125488,-3.3925838470458984,88.958740234375,-27.099609375,-215.9423828125
10.069999900000001,6.888118267059326,-7.68538761138916,-2.406172752380371,45.8984375,-18.12744140625,-190.12451171875
10.0899999,10.718840599060059,-4.261679172515869,-1.1540051698684692,37.1551513671875,-41.229248046875,-100.52490234375
10.1099999,13.582305908203125,-1.623268723487854,-0.014365210197865963,58.624267578125,-69.9920654296875,-23.4832763671875
10.129999900000001,14.949395179748535,-0.08619125932455063,0.7134721279144287,58.074951171875,-71.136474609375,23.0865478515625
10.149999900000001,14.875175476074219,0.26815059781074524,1.0079588890075684,41.1376953125,-32.562255859375,46.5087890625
10.1699999,13.79060173034668,-0.3423708379268646,0.828393816947937,-1.7547607421875,10.650634765625,40.2374267578125
10.1899999,12.124237060546875,-1.5705963373184204,0.40222588181495667,-32.501220703125,28.717041015625,11.7950439453125
10.209999900000001,10.35252857208252,-3.069366693496704,-0.10773907601833344,-27.4658203125,40.313720703125,-19.3939208984375
10.229999900000001,8.901641845703125,-4.405331134796143,-0.5674257874488831,-12.725830078125,35.4156494140625,-28.2440185546875
10.2499999,7.924807548522949,-5.3582234382629395,-0.8571242094039917,-5.4779052734375,21.17919921875,-11.688232421875
10.2699999,7.60637903213501,-5.832275390625,-1.0438719987869263,-5.3863525390625,11.1083984375,-14.83154296875
10.2899999,7.750030994415283,-5.935225963592529,-1.2066776752471924,8.0108642578125,-0.030517578125,-26.67236328125
10.309999900000001,8.35336971282959,-5.849034786224365,-1.4772224426269531,26.6265869140625,-14.2364501953125,-32.0892333984375
10.3299999,9.155426979064941,-5.614402770996094,-1.8962076902389526,32.77587890625,-12.359619140625,-25.8026123046875
10.3499999,9.981427192687988,-5.403713226318359,-2.4444799423217773,23.590087890625,11.3067626953125,-19.59228515625
10.3699999,10.6925048828125,-5.2696380615234375,-3.0190882682800293,17.120361328125,30.9600830078125,-30.792236328125
10.389999900000001,11.065999984741211,-5.233725070953369,-3.464409828186035,31.463623046875,41.290283203125,-35.4461669921875
10.4099999,11.135432243347168,-5.231330871582031,-3.643975019454956,48.40087890625,45.0286865234375,-35.2783203125
10.4299999,10.922348022460938,-5.22175407409668,-3.529053211212158,43.8232421875,46.478271484375,-30.94482421875
10.4499999,10.493785858154297,-5.135562419891357,-3.1100680828094482,45.6085205078125,51.605224609375,-23.5748291015625
10.469999900000001,9.99100399017334,-5.0254292488098145,-2.5282769203186035,55.908203125,54.6722412109375,-33.599853515625
10.4899999,9.41639518737793,-4.8937482833862305,-1.9177556037902832,60.791015625,51.1474609375,-42.6788330078125
10.5099999,8.860940933227539,-4.721365928649902,-1.359906554222107,78.338623046875,43.5791015625,-32.1502685546875
10.5299999,8.324639320373535,-4.477157115936279,-0.9074024558067322,89.3402099609375,36.3922119140625,-21.0113525390625
10.549999900000001,7.8314337730407715,-4.182670593261719,-0.5530605912208557,85.479736328125,33.416748046875,-21.1334228515625
10.569999900000001,7.395689010620117,-3.883395195007324,-0.2561795711517334,85.26611328125,26.6876220703125,-23.1170654296875
10.5899999,7.046135425567627,-3.576937437057495,0,90.5914306640625,22.491455078125,-26.9012451171875
10.6099999,6.809109687805176,-3.2824504375457764,0.24181437492370605,95.9014892578125,16.3726806640625,-25.299072265625
10.629999900000001,6.655880928039551,-2.942473888397217,0.5051765441894531,102.813720703125,7.232666015625,-18.3258056640625
10.649999900000001,6.6127848625183105,-2.5713725090026855,0.7589619159698486,96.0693359375,3.173828125,-22.4456787109375
10.6699999,6.610390663146973,-2.1787235736846924,0.9696516990661621,84.9609375,6.622314453125,-29.9224853515625
10.6899999,6.720524311065674,-1.7693150043487549,1.1204863786697388,85.235595703125,5.6304931640625,-29.632568359375
10.709999900000001,6.9455790519714355,-1.357512354850769,1.1851298809051514,80.2459716796875,3.509521484375,-25.6805419921875
10.729999900000001,7.261613845825195,-0.993593692779541,1.2090718746185303,71.1517333984375,4.425048828125,-20.6298828125
10.7499999,7.637503623962402,-0.667982280254364,1.235408067703247,71.075439453125,0.762939453125,-14.1754150390625
10.7699999,8.020575523376465,-0.42616790533065796,1.280897855758667,74.6612548828125,-6.1798095703125,-6.7291259765625
10.7899999,8.355764389038086,-0.2992752194404602,1.3455413579940796,68.8629150390625,-10.3759765625,2.9296875
10.809999900000001,8.62630844116211,-0.2561795711517334,1.4293384552001953,65.521240234375,-15.56396484375,15.1214599609375
10.8299999,8.801085472106934,-0.304063618183136,1.5155296325683594,63.995361328125,-19.866943359375,22.705078125
10.8499999,8.83939266204834,-0.42377370595932007,1.5897499322891235,58.2122802734375,-18.4783935546875,20.2178955078125
10.8699999,8.772355079650879,-0.5793967843055725,1.6424223184585571,47.5311279296875,-17.3492431640625,21.4080810546875
10.889999900000001,8.635885238647461,-0.7565677165985107,1.644816517829895,38.6962890625,-20.8587646484375,25.115966796875
10.9099999,8.497021675109863,-0.8762778043746948,1.5897499322891235,41.015625,-22.003173828125,21.8505859375
10.9299999,8.389283180236816,-0.9433154463768005,1.4867992401123047,38.14697265625,-19.6533203125,23.193359375
10.9499999,8.360552787780762,-0.950498104095459,1.3287819623947144,26.885986328125,-17.4560546875,24.9176025390625
10.969999900000001,8.334216117858887,-0.9217676520347595,1.170764684677124,25.3448486328125,-18.310546875,30.57861328125
10.9899999,8.343792915344238,-0.9050082564353943,1.0223240852355957,32.1197509765625,-23.4375,28.01513671875
11.0099999,8.310274124145508,-0.9193734526634216,0.8930372595787048,34.2254638671875,-32.989501953125,31.6314697265625
11.0299999,8.312667846679688,-0.9624691009521484,0.7637503147125244,28.8848876953125,-38.8336181640625,34.027099609375
11.049999900000001,8.394071578979492,-0.9816226959228516,0.6177040338516235,23.468017578125,-43.4112548828125,21.2860107421875
11.069999900000001,8.542511940002441,-0.9672574996948242,0.44771572947502136,25.69580078125,-45.6085205078125,19.0582275390625
11.0899999,8.746018409729004,-0.9792284965515137,0.2753331959247589,19.6380615234375,-44.891357421875,25.45166015625
11.1099999,8.927978515625,-1.0247182846069336,0.10295066982507706,12.0086669921875,-45.654296875,23.101806640625
11.129999900000001,9.009381294250488,-1.1204863786697388,-0.028730420395731926,10.3912353515625,-44.9676513671875,6.103515625
11.149999900000001,8.975862503051758,-1.213860273361206,-0.12689268589019775,14.404296875,-49.5758056640625,-3.173828125
11.1699999,8.877699851989746,-1.278503656387329,-0.22026655077934265,4.8828125,-49.6063232421875,-5.5694580078125
11.1899999,8.688557624816895,-1.3072341680526733,-0.28730419278144836,0.6866455078125,-50.140380859375,-7.2479248046875
11.209999900000001,8.513781547546387,-1.2761094570159912,-0.3711012601852417,3.082275390625,-56.610107421875,-20.01953125
11.229999900000001,8.389283180236816,-1.1803414821624756,-0.44771572947502136,9.7503662109375,-66.6656494140625,-24.4293212890625
11.2499999,8.432378768920898,-0.9576807022094727,-0.5913678407669067,1.8768310546875,-70.9686279296875,-22.735595703125
11.2699999,8.588001251220703,-0.6751648783683777,-0.8020575642585754,-15.3961181640625,-60.302734375,-21.575927734375
11.2899999,8.789113998413086,-0.4381389021873474,-1.0797849893569946,-15.5792236328125,-57.037353515625,-16.815185546875
11.309999900000001,8.913613319396973,-0.3423708379268646,-1.4221558570861816,-7.7056884765625,-68.939208984375,-8.97216796875
11.3299999,9.062053680419922,-0.3734954595565796,-1.8124107122421265,-8.9874267578125,-76.5228271484375,-9.033203125
11.3499999,9.191340446472168,-0.45489832758903503,-2.2170307636260986,-12.3443603515625,-70.7855224609375,-12.9241943359375
11.3699999,9.38048267364502,-0.5482721924781799,-2.6240451335906982,-14.923095703125,-57.2509765625,-12.542724609375
11.389999900000001,9.533711433410645,-0.6512228846549988,-3.0190882682800293,-12.26806640625,-56.732177734375,-5.6304931640625
11.4099999,9.57201862335205,-0.8020575642585754,-3.361459255218506,-6.805419921875,-68.7255859375,3.4027099609375
11.4299999,9.409213066101074,-0.9768342971801758,-3.6535518169403076,-9.3994140625,-63.7359619140625,0.6561279296875
11.4499999,9.133879661560059,-1.1659762859344482,-3.847482204437256,-13.4735107421875,-47.6837158203125,-8.6669921875
11.469999900000001,8.832210540771484,-1.2761094570159912,-3.9193081855773926,-9.033203125,-49.8809814453125,-12.1612548828125
11.4899999,8.619126319885254,-1.292868971824646,-3.93367338180542,-8.331298828125,-68.359375,-6.9732666015625
11.5099999,8.47547435760498,-1.2210428714752197,-3.912125587463379,-11.3983154296875,-70.5413818359375,-4.21142578125
11.5299999,8.396465301513672,-1.0558429956436157,-3.9887399673461914,-17.88330078125,-56.21337890625,-11.5814208984375
11.549999900000001,8.38688850402832,-0.8307880163192749,-4.094084739685059,-14.8773193359375,-53.9398193359375,-17.7154541015625
11.569999900000001,8.434772491455078,-0.49559974670410156,-4.242525577545166,-8.1787109375,-64.7125244140625,-12.4969482421875
11.5899999,8.53532886505127,-0.14844051003456116,-4.333505153656006,-11.474609375,-67.44384765625,2.7618408203125
11.6099999,8.69334602355957,0.2298433631658554,-4.46518611907959,-26.2908935546875,-59.5855712890625,3.9825439453125
11.629999900000001,8.796297073364258,0.545877993106842,-4.627991676330566,-33.355712890625,-51.605224609375,-2.197265625
11.649999900000001,8.848969459533691,0.768538773059845,-4.833893299102783,-14.9383544921875,-73.2879638671875,17.4102783203125
11.6699999,8.827422142028809,0.8619126081466675,-5.114014625549316,-16.2353515625,-88.623046875,39.794921875
11.6899999,8.844181060791016,0.8571242094039917,-5.473145008087158,-35.9649658203125,-75.1800537109375,41.0003662109375
11.709999900000001,8.932766914367676,0.7350199222564697,-5.896918773651123,-44.0216064453125,-59.0057373046875,33.111572265625
11.729999900000001,9.090784072875977,0.524330198764801,-6.3733649253845215,-41.351318359375,-50.9033203125,34.454345703125
11.7499999,9.351752281188965,0.2513911724090576,-6.811503887176514,-38.5284423828125,-50.9185791015625,44.2962646484375
11.7699999,9.696516990661621,-0.026336219161748886,-7.182605266571045,-42.4652099609375,-48.8433837890625,48.126220703125
11.7899999,10.014945983886719,-0.2585737705230713,-7.417236804962158,-45.7763671875,-30.3497314453125,53.03955078125
11.809999900000001,10.220847129821777,-0.42377370595932007,-7.558494567871094,-49.6978759765625,-10.25390625,58.074951171875
11.8299999,10.259154319763184,-0.5770025849342346,-7.575253963470459,-44.9371337890625,-6.7291259765625,77.3162841796875
11.8499999,10.096348762512207,-0.7445967197418213,-7.467514991760254,-33.4930419921875,-12.0697021484375,101.9744873046875
11.8699999,9.835380554199219,-0.993593692779541,-7.287950038909912,-34.576416015625,-6.7901611328125,97.320556640625
11.889999900000001,9.519346237182617,-1.2952631711959839,-7.115567684173584,-46.5545654296875,8.453369140625,81.4208984375
11.9099999,9.23443603515625,-1.6687586307525635,-6.976703643798828,-42.9534912109375,12.6190185546875,83.8775634765625
11.9299999,8.927978515625,-2.0374655723571777,-6.9240312576293945,-22.705078125,9.27734375,101.470947265625
11.9499999,8.588001251220703,-2.4013843536376953,-6.8162922859191895,-6.5765380859375,14.251708984375,104.8583984375
11.969999900000001,8.276755332946777,-2.7317841053009033,-6.744466304779053,-33.8897705078125,18.280029296875,77.117919921875
11.9899999,7.972691535949707,-3.0095114707946777,-6.615179061889648,-54.4586181640625,27.587890625,67.413330078125
12.0099999,7.778761386871338,-3.2776620388031006,-6.543353080749512,-50.628662109375,23.3001708984375,78.1707763671875
12.0299999,7.690176010131836,-3.5649664402008057,-6.581660270690918,-37.8570556640625,13.8397216796875,91.3848876953125
12.049999900000001,7.673416614532471,-3.909731388092041,-6.6846113204956055,-30.6243896484375,11.04736328125,99.822998046875
12.069999900000001,7.733271598815918,-4.302380561828613,-6.833051681518555,-32.7911376953125,20.111083984375,94.66552734375
12.0899999,7.886500358581543,-4.709394931793213,-6.950367450714111,-37.0025634765625,33.87451171875,76.995849609375
12.1099999,8.10437297821045,-5.070919036865234,-7.015010833740234,-38.26904296875,46.3714599609375,59.6160888671875
12.129999900000001,8.346187591552734,-5.372588634490967,-6.993463039398193,-38.26904296875,53.0548095703125,53.6346435546875
12.149999900000001,8.554482460021973,-5.5976433753967285,-6.914454460144043,-38.116455078125,58.074951171875,52.032470703125
12.1699999,8.647856712341309,-5.760449409484863,-6.777985095977783,-35.675048828125,65.6585693359375,40.83251953125
12.1899999,8.628703117370605,-5.870582580566406,-6.584054470062256,-22.8424072265625,70.587158203125,24.84130859375
12.209999900000001,8.547300338745117,-5.937620162963867,-6.370970726013184,-17.9290771484375,70.892333984375,8.7890625
12.229999900000001,8.391676902770996,-6.011840343475342,-6.110002517700195,-16.8304443359375,73.394775390625,4.180908203125
12.2499999,8.190564155578613,-6.141127586364746,-5.839457988739014,-5.6610107421875,76.4312744140625,4.852294921875
12.2699999,8.001421928405762,-6.279991149902344,-5.56173038482666,11.199951171875,65.4144287109375,-9.94873046875
12.289999900000002,7.850587368011475,-6.361393928527832,-5.238513469696045,21.0723876953125,55.908203125,-19.2718505859375
12.309999900000001,7.805097579956055,-6.270414352416992,-4.8722004890441895,12.298583984375,54.8858642578125,-21.2554931640625
12.3299999,7.833827972412109,-6.021417140960693,-4.4532151222229,-7.568359375,62.6678466796875,-21.148681640625
12.3499999,7.9176249504089355,-5.669469833374023,-4.017470359802246,-15.8843994140625,69.8089599609375,-17.7459716796875
12.3699999,7.955932140350342,-5.257667064666748,-3.6607344150543213,-18.4783935546875,59.6771240234375,-24.169921875
12.389999900000001,8.04930591583252,-4.908113479614258,-3.380612850189209,-21.4996337890625,66.619873046875,-26.824951171875
12.4099999,8.090007781982422,-4.60165548324585,-3.181894063949585,-10.955810546875,65.338134765625,-13.641357421875
12.4299999,8.164227485656738,-4.381389141082764,-3.043030261993408,-0.8087158203125,57.5408935546875,-12.14599609375
12.4499999,8.245630264282227,-4.220977783203125,-2.894589900970459,5.767822265625,54.962158203125,-15.7318115234375
12.469999900000001,8.324639320373535,-4.113238334655762,-2.7102363109588623,3.6163330078125,55.6640625,-19.47021484375
12.4899999,8.463502883911133,-4.003105163574219,-2.5330653190612793,-4.6234130859375,56.8695068359375,-18.341064453125
12.5099999,8.652645111083984,-3.8953661918640137,-2.3319525718688965,-2.8076171875,56.6864013671875,-15.7623291015625
12.5299999,8.875306129455566,-3.8307228088378906,-2.169146776199341,-0.701904296875,57.5714111328125,-17.4560546875
12.549999900000001,8.999804496765137,-3.8355112075805664,-2.027888774871826,2.1209716796875,59.75341796875,-19.195556640625
12.569999900000001,9.074024200439453,-3.931279182434082,-1.8794482946395874,15.6097412109375,50.7354736328125,-2.7618408203125
12.5899999,8.947132110595703,-4.134786128997803,-1.7190368175506592,27.3590087890625,40.9393310546875,14.2059326171875
12.6099999,8.724471092224121,-4.505887508392334,-1.5705963373184204,24.35302734375,42.3583984375,15.472412109375
12.629999900000001,8.432378768920898,-4.975151062011719,-1.4700398445129395,25.4669189453125,33.3404541015625,-3.3721923828125
12.649999900000001,8.118738174438477,-5.477933406829834,-1.4173674583435059,40.7562255859375,22.4151611328125,-10.8184814453125
12.6699999,7.807491779327393,-5.918466567993164,-1.3982137441635132,49.6673583984375,16.5252685546875,-13.8092041015625
12.6899999,7.570465564727783,-6.19379997253418,-1.3766659498214722,40.10009765625,19.0887451171875,-23.6968994140625
12.709999900000001,7.412448406219482,-6.212953567504883,-1.3120225667953491,34.393310546875,21.17919921875,-32.623291015625
12.729999900000001,7.398083209991455,-6.033388137817383,-1.1971008777618408,42.41943359375,23.468017578125,-31.4788818359375
12.7499999,7.50582218170166,-5.657498836517334,-1.0773907899856567,44.00634765625,20.2789306640625,-31.6619873046875
12.7699999,7.659051418304443,-5.1810526847839355,-0.9193734526634216,52.093505859375,15.1824951171875,-30.670166015625
12.789999900000002,7.872135162353516,-4.616020679473877,-0.7398083209991455,57.7239990234375,11.0015869140625,-36.590576171875
12.809999900000001,8.066065788269043,-4.067748546600342,-0.5913678407669067,45.166015625,18.9208984375,-37.9486083984375
12.8299999,8.310274124145508,-3.507505416870117,-0.5171475410461426,37.4908447265625,22.9644775390625,-30.4412841796875
12.8499999,8.583212852478027,-2.9903578758239746,-0.4405331015586853,49.3621826171875,19.3939208984375,-27.6031494140625
12.8699999,8.892065048217773,-2.564189910888672,-0.3926490843296051,47.5311279296875,17.181396484375,-29.8614501953125
12.889999900000001,9.23443603515625,-2.1978771686553955,-0.3447650372982025,34.210205078125,17.08984375,-33.1878662109375
12.9099999,9.550470352172852,-1.8818424940109253,-0.24660277366638184,31.6162109375,18.5546875,-28.0609130859375
12.9299999,9.830592155456543,-1.678335428237915,-0.24899697303771973,29.2816162109375,17.5933837890625,-16.693115234375
12.9499999,9.995792388916016,-1.5969325304031372,-0.31603461503982544,32.3944091796875,14.6026611328125,-13.031005859375
12.969999900000001,9.983820915222168,-1.6855180263519287,-0.4381389021873474,37.017822265625,12.5885009765625,-17.8375244140625
12.9899999,9.861717224121094,-1.867477297782898,-0.5554547905921936,41.351318359375,5.1422119140625,-23.49853515625
13.0099999,9.62947940826416,-2.0829553604125977,-0.6200982332229614,43.121337890625,2.8839111328125,-22.674560546875
13.0299999,9.330204010009766,-2.2361843585968018,-0.5770025849342346,36.6363525390625,12.6953125,-21.7742919921875
13.049999900000001,9.01895809173584,-2.296039342880249,-0.47165772318840027,34.36279296875,16.4794921875,-28.5186767578125
13.069999900000001,8.757989883422852,-2.2433669567108154,-0.3447650372982025,40.71044921875,6.7138671875,-22.369384765625
13.0899999,8.556877136230469,-2.1356279850006104,-0.24181437492370605,43.0908203125,3.173828125,-11.5203857421875
13.1099999,8.429984092712402,-2.011129379272461,-0.181959331035614,40.130615234375,11.3983154296875,-7.26318359375
13.129999900000001,8.339004516601562,-1.9297266006469727,-0.1388636976480484,42.510986328125,11.260986328125,-3.7994384765625
13.149999900000001,8.219294548034668,-1.9512743949890137,-0.047884032130241394,41.1529541015625,8.6669921875,-11.2457275390625
13.1699999,8.073247909545898,-2.0183119773864746,0.07182604819536209,37.261962890625,5.2490234375,-15.6707763671875
13.1899999,7.982268333435059,-2.099714994430542,0.1388636976480484,37.17041015625,2.899169921875,-2.0904541015625
13.209999900000001,7.931990146636963,-2.094926595687866,0.14365209639072418,43.365478515625,3.662109375,3.509521484375
13.229999900000001,7.939172744750977,-2.0590133666992188,0.06224924325942993,50.3997802734375,0.8697509765625,-0.732421875
13.2499999,7.965508937835693,-1.8914192914962769,-0.026336219161748886,50.872802734375,-3.6468505859375,-7.476806640625
13.2699999,7.9631147384643555,-1.7118542194366455,-0.07182604819536209,41.5496826171875,0.48828125,-10.4827880859375
13.289999900000002,7.836222171783447,-1.5658079385757446,-0.0454898327589035,35.33935546875,5.1422119140625,-7.6904296875
13.309999900000001,7.637503623962402,-1.4221558570861816,0.0071826050989329815,44.6929931640625,-2.6092529296875,-8.6822509765625
13.3299999,7.4986395835876465,-1.1827356815338135,0.026336219161748886,52.06298828125,-19.8822021484375,-16.2811279296875
13.3499999,7.443572998046875,-0.8810662031173706,-0.040701430290937424,46.6156005859375,-26.1383056640625,-10.7421875
13.3699999,7.462726593017578,-0.5482721924781799,-0.1388636976480484,42.633056640625,-18.218994140625,1.4190673828125
13.389999900000001,7.527369976043701,-0.31124621629714966,-0.26096799969673157,46.08154296875,-21.7437744140625,-4.425048828125
13.4099999,7.575253963470459,-0.15322890877723694,-0.37828385829925537,42.6025390625,-25.482177734375,-27.5115966796875
13.4299999,7.508216381072998,-0.035913024097681046,-0.42377370595932007,42.9534912109375,-25.4974365234375,-31.0516357421875
13.4499999,7.47230339050293,0.14604631066322327,-0.4620809257030487,47.3480224609375,-34.3017578125,-17.4713134765625
13.469999900000001,7.467514991760254,0.43095630407333374,-0.545877993106842,48.6297607421875,-48.15673828125,-18.2952880859375
13.4899999,7.553706169128418,0.8020575642585754,-0.6943184733390808,52.3681640625,-59.6466064453125,-30.0140380859375
13.5099999,7.7213006019592285,1.2066776752471924,-0.9169792532920837,55.450439453125,-69.183349609375,-18.6614990234375
13.5299999,7.9631147384643555,1.50355863571167,-1.1779472827911377,49.49951171875,-70.8770751953125,-1.129150390625
13.549999900000001,8.233659744262695,1.6879122257232666,-1.4077905416488647,43.45703125,-76.72119140625,-5.7220458984375
13.569999900000001,8.504204750061035,1.7262194156646729,-1.6376339197158813,33.8134765625,-75.1953125,-32.684326171875
13.5899999,8.647856712341309,1.7070658206939697,-1.8914192914962769,30.0140380859375,-68.90869140625,-34.11865234375
13.6099999,8.789113998413086,1.6950948238372803,-2.190694570541382,26.1993408203125,-63.41552734375,-25.970458984375
13.629999900000001,8.920795440673828,1.723825216293335,-2.583343744277954,16.143798828125,-69.6563720703125,-28.656005859375
13.649999900000001,9.066842079162598,1.7357962131500244,-2.9927520751953125,17.8680419921875,-70.5413818359375,-32.623291015625
13.6699999,9.260771751403809,1.7717092037200928,-3.3901896476745605,22.4761962890625,-68.5272216796875,-27.3284912109375
13.6899999,9.459490776062012,1.8411411046981812,-3.756502389907837,22.2625732421875,-66.0400390625,-13.641357421875
13.709999900000001,9.624691009521484,1.8722656965255737,-4.077325344085693,13.3209228515625,-65.032958984375,-7.3089599609375
13.729999900000001,9.710882186889648,1.8387469053268433,-4.3406877517700195,9.063720703125,-59.600830078125,-14.6331787109375
13.7499999,9.758766174316406,1.7597382068634033,-4.5825018882751465,7.9193115234375,-47.882080078125,-23.590087890625
13.7699999,9.84256362915039,1.7405846118927002,-4.67827033996582,14.5111083984375,-53.2989501953125,-10.80322265625
13.789999900000002,9.84495735168457,1.778891921043396,-4.702212333679199,18.5699462890625,-61.4776611328125,17.1051025390625
13.809999900000001,9.770736694335938,1.8148049116134644,-4.58968448638916,12.7410888671875,-59.5855712890625,30.0445556640625
13.8299999,9.622296333312988,1.764526605606079,-4.517858505249023,-6.2408447265625,-45.83740234375,18.7225341796875
13.8499999,9.435548782348633,1.6136919260025024,-4.4508209228515625,-5.0201416015625,-45.71533203125,17.6544189453125
13.8699999,9.284713745117188,1.41257905960083,-4.438849925994873,6.2713623046875,-59.112548828125,34.97314453125
13.889999900000001,9.2033109664917,1.213860273361206,-4.467580318450928,-2.9144287109375,-58.5174560546875,45.5322265625
13.9099999,9.198522567749023,1.0247182846069336,-4.546588897705078,-26.3824462890625,-42.8924560546875,38.116455078125
13.9299999,9.258378028869629,0.8092401623725891,-4.656722068786621,-39.947509765625,-23.7274169921875,26.2451171875
13.9499999,9.265560150146484,0.524330198764801,-4.7189717292785645,-35.21728515625,-19.1650390625,31.67724609375
13.969999900000001,9.205705642700195,0.21787235140800476,-4.654327869415283,-25.360107421875,-36.7584228515625,44.00634765625
13.9899999,9.026140213012695,-0.07422025501728058,-4.517858505249023,-22.796630859375,-55.3741455078125,42.4652099609375
14.0099999,8.789113998413086,-0.23942017555236816,-4.359841346740723,-32.89794921875,-53.5430908203125,33.050537109375
14.0299999,8.59997272491455,-0.22026655077934265,-4.3191399574279785,-50.6134033203125,-36.7279052734375,18.5394287109375
14.049999900000001,8.561665534973145,-0.07900865375995636,-4.383783340454102,-59.63134765625,-30.853271484375,17.181396484375
14.069999900000001,8.674192428588867,0.10055647045373917,-4.568136692047119,-47.271728515625,-46.4019775390625,35.858154296875
14.0899999,8.848969459533691,0.26096799969673157,-4.862623691558838,-34.3017578125,-67.93212890625,52.55126953125
14.1099999,8.983044624328613,0.3423708379268646,-5.22175407409668,-35.369873046875,-58.8226318359375,58.3038330078125
14.129999900000001,9.028534889221191,0.36152446269989014,-5.614402770996094,-56.732177734375,-27.7099609375,50.750732421875
14.149999900000001,9.014169692993164,0.31364041566848755,-5.990292549133301,-69.3359375,-20.93505859375,39.00146484375
14.1699999,8.935160636901855,0.20350714027881622,-6.308721542358398,-59.26513671875,-38.7725830078125,36.4227294921875
14.1899999,8.904036521911621,0.1173158809542656,-6.564900875091553,-40.252685546875,-49.1943359375,41.3970947265625
14.209999900000001,8.89685344696045,0.11013327538967133,-6.687005519866943,-35.552978515625,-44.1741943359375,57.4951171875
14.229999900000001,8.901641845703125,-0.0071826050989329815,-6.646304130554199,-49.5452880859375,-31.982421875,91.9189453125
14.2499999,8.87051773071289,-0.19153612852096558,-6.555324077606201,-61.82861328125,-41.50390625,106.1248779296875
14.2699999,8.841787338256836,-0.5482721924781799,-6.469132900238037,-58.868408203125,-40.283203125,98.5565185546875
14.289999900000002,8.813055992126465,-1.0079588890075684,-6.584054470062256,-54.962158203125,-26.6876220703125,101.74560546875
14.309999900000001,8.729259490966797,-1.436521053314209,-6.847416877746582,-39.8101806640625,-20.721435546875,124.267578125
14.3299999,8.645462036132812,-1.8483237028121948,-7.201758861541748,-26.4739990234375,-22.8271484375,140.56396484375
14.3499999,8.44195556640625,-2.293645143508911,-7.582436561584473,-34.5001220703125,-13.1683349609375,136.29150390625
14.3699999,8.121131896972656,-2.7437551021575928,-7.8529815673828125,-32.8369140625,11.932373046875,125.457763671875
14.389999900000001,7.797914981842041,-3.205836057662964,-8.003816604614258,-35.308837890625,27.587890625,105.0567626953125
14.4099999,7.474697589874268,-3.6104562282562256,-7.989450931549072,-37.5823974609375,28.717041015625,92.71240234375
14.4299999,7.218518257141113,-3.931279182434082,-7.7883381843566895,-24.658203125,18.6920166015625,95.4132080078125
14.4499999,7.038952827453613,-4.158728122711182,-7.433996200561523,-18.06640625,15.6097412109375,96.710205078125
14.469999900000001,6.916848659515381,-4.292803764343262,-6.993463039398193,-27.64892578125,25.20751953125,84.9456787109375
14.4899999,6.871358871459961,-4.352658748626709,-6.543353080749512,-41.748046875,38.9862060546875,64.3768310546875
14.5099999,6.88332986831665,-4.343081951141357,-6.150704383850098,-47.5616455078125,41.5496826171875,49.5758056640625
14.5299999,7.010222434997559,-4.32871675491333,-5.8873419761657715,-40.740966796875,30.548095703125,50.96435546875
14.549999900000001,7.2137298583984375,-4.333505153656006,-5.770026206970215,-35.7513427734375,20.0653076171875,54.99267578125
14.569999900000001,7.441178798675537,-4.400542736053467,-5.779603004455566,-36.2701416015625,21.4080810546875,53.9703369140625
14.5899999,7.647080421447754,-4.534617900848389,-5.894524574279785,-35.58349609375,25.7415771484375,45.3033447265625
14.6099999,7.8098859786987305,-4.687847137451172,-6.081272125244141,-34.0728759765625,27.40478515625,35.21728515625
14.629999900000001,7.960720539093018,-4.824316501617432,-6.320692539215088,-31.18896484375,27.8778076171875,29.1748046875
14.649999900000001,8.042123794555664,-4.90571928024292,-6.555324077606201,-21.1944580078125,27.2674560546875,32.2723388671875
14.6699999,8.08282470703125,-4.9368438720703125,-6.744466304779053,-15.13671875,26.519775390625,33.538818359375
14.6899999,8.054094314575195,-4.9368438720703125,-6.885724067687988,-22.1405029296875,27.7862548828125,19.683837890625
14.709999900000001,7.9415669441223145,-4.910507678985596,-6.9240312576293945,-24.444580078125,34.5458984375,0.3509521484375
14.729999900000001,7.829039573669434,-4.8722004890441895,-6.876147270202637,-22.918701171875,38.87939453125,-9.3536376953125
14.7499999,7.692570209503174,-4.795586109161377,-6.730101108551025,-19.3634033203125,39.5965576171875,-16.0980224609375
14.7699999,7.5848307609558105,-4.702212333679199,-6.481103897094727,-23.8800048828125,40.924072265625,-26.0009765625
14.789999900000002,7.522581577301025,-4.592078685760498,-6.205770969390869,-32.3028564453125,39.73388671875,-38.1622314453125
14.809999900000001,7.50582218170166,-4.448426723480225,-5.925649166107178,-28.1982421875,40.71044921875,-46.600341796875
14.8299999,7.589619159698486,-4.235342979431152,-5.6910176277160645,-23.8494873046875,42.144775390625,-49.102783203125
14.8499999,7.659051418304443,-3.993528366088867,-5.48272180557251,-29.0985107421875,46.3714599609375,-44.036865234375
14.8699999,7.723694801330566,-3.7469255924224854,-5.327098846435547,-39.5965576171875,48.0194091796875,-42.6483154296875
14.889999900000001,7.6997528076171875,-3.581725835800171,-5.25527286529541,-40.618896484375,46.5545654296875,-41.56494140625
14.9099999,7.644686222076416,-3.531447410583496,-5.293580055236816,-26.6265869140625,41.80908203125,-34.820556640625
14.9299999,7.546523571014404,-3.5386300086975098,-5.398924827575684,-11.4288330078125,38.9251708984375,-33.1573486328125
14.9499999,7.515398979187012,-3.529053211212158,-5.48272180557251,-5.279541015625,38.0401611328125,-38.543701171875
14.969999900000001,7.503427982330322,-3.40216064453125,-5.473145008087158,-6.3934326171875,34.942626953125,-41.778564453125
14.9899999,7.496245384216309,-3.157952070236206,-5.317522048950195,-1.251220703125,36.4532470703125,-36.102294921875
15.0099999,7.508216381072998,-2.8419175148010254,-5.104437828063965,-3.2806396484375,37.2467041015625,-30.2734375
15.0299999,7.527369976043701,-2.52109432220459,-4.898536682128906,-4.302978515625,36.3006591796875,-33.5235595703125
15.049999900000001,7.5848307609558105,-2.233790159225464,-4.73573112487793,3.9520263671875,35.5682373046875,-29.3426513671875
15.069999900000001,7.680599212646484,-2.011129379272461,-4.613626480102539,10.1318359375,33.0810546875,-16.937255859375
15.0899999,7.833827972412109,-1.8411411046981812,-4.5394062995910645,5.3253173828125,29.3121337890625,-18.1732177734375
15.1099999,8.037335395812988,-1.7118542194366455,-4.508281707763672,2.86865234375,33.477783203125,-18.768310546875
15.129999900000001,8.283937454223633,-1.644816517829895,-4.5609540939331055,6.1187744140625,42.3126220703125,-13.885498046875
15.149999900000001,8.56645393371582,-1.6184803247451782,-4.6471452713012695,14.6942138671875,42.6483154296875,-10.650634765625
15.1699999,8.827422142028809,-1.623268723487854,-4.6950297355651855,21.17919921875,40.0848388671875,-8.1329345703125
15.1899999,9.011775016784668,-1.6376339197158813,-4.627991676330566,16.7999267578125,42.7703857421875,-9.979248046875
15.209999900000001,9.11233139038086,-1.6089035272598267,-4.434061527252197,7.32421875,52.1087646484375,-8.1329345703125
15.229999900000001,9.095572471618652,-1.601720929145813,-4.158728122711182,3.0517578125,59.600830078125,3.7994384765625
15.2499999,8.971074104309082,-1.6065093278884888,-3.8546648025512695,9.521484375,58.0902099609375,11.5203857421875
15.2699999,8.774748802185059,-1.6663644313812256,-3.5218706130981445,23.712158203125,49.8809814453125,7.38525390625
15.289999900000002,8.597578048706055,-1.7357962131500244,-3.205836057662964,26.30615234375,43.2281494140625,-4.0283203125
15.309999900000001,8.53532886505127,-1.7573440074920654,-2.892195701599121,21.4996337890625,42.3431396484375,-10.19287109375
15.3299999,8.607154846191406,-1.7190368175506592,-2.6192567348480225,20.0653076171875,43.3807373046875,-4.8370361328125
15.3499999,8.786720275878906,-1.6519991159439087,-2.3989901542663574,26.0772705078125,40.740966796875,4.6234130859375
15.3699999,8.992621421813965,-1.6160861253738403,-2.2457611560821533,31.097412109375,35.675048828125,3.1280517578125
15.389999900000001,9.167398452758789,-1.6208745241165161,-2.1571757793426514,31.0516357421875,32.2418212890625,-6.256103515625
15.4099999,9.339780807495117,-1.6400281190872192,-2.121262788772583,32.501220703125,31.6619873046875,-16.7236328125
15.4299999,9.493009567260742,-1.656787633895874,-2.094926595687866,38.0859375,32.0587158203125,-20.69091796875
15.4499999,9.622296333312988,-1.577778935432434,-2.054224967956543,40.1153564453125,28.80859375,-16.3116455078125
15.469999900000001,9.696516990661621,-1.45806884765625,-1.9536685943603516,40.679931640625,30.1055908203125,-16.632080078125
15.4899999,9.66299819946289,-1.2880805730819702,-1.8387469053268433,41.4886474609375,33.02001953125,-18.4478759765625
15.5099999,9.560047149658203,-1.1180921792984009,-1.702277421951294,42.327880859375,34.0576171875,-20.7366943359375
15.5299999,9.38048267364502,-0.9720458984375,-1.5682021379470825,41.0308837890625,36.8194580078125,-25.3448486328125
15.549999900000001,9.188945770263672,-0.8427590131759644,-1.4389152526855469,36.956787109375,36.2701416015625,-30.1361083984375
15.569999900000001,8.96389102935791,-0.7254431247711182,-1.3096283674240112,38.848876953125,32.989501953125,-27.7557373046875
15.5899999,8.734047889709473,-0.5602431893348694,-1.194706678390503,43.212890625,25.8941650390625,-20.904541015625
15.6099999,8.547300338745117,-0.363918662071228,-1.0845733880996704,43.212890625,18.7225341796875,-17.27294921875
15.629999900000001,8.379706382751465,-0.14365209639072418,-0.9720458984375,39.85595703125,15.869140625,-13.5498046875
15.649999900000001,8.307879447937012,0.06464344263076782,-0.849941611289978,39.00146484375,12.1612548828125,-9.0179443359375
15.6699999,8.315062522888184,0.2537853717803955,-0.727837324142456,39.947509765625,8.30078125,-7.2021484375
15.6899999,8.398859977722168,0.42856210470199585,-0.6153098344802856,37.3077392578125,8.4991455078125,-5.1727294921875
15.709999900000001,8.506598472595215,0.6320692300796509,-0.4812345504760742,35.33935546875,14.3585205078125,5.4931640625
15.729999900000001,8.56884765625,0.7805097699165344,-0.31364041566848755,28.5491943359375,14.8773193359375,18.829345703125
15.7499999,8.554482460021973,0.8331822156906128,-0.12928688526153564,14.8162841796875,0.7171630859375,21.728515625
15.7699999,8.4108304977417,0.7254431247711182,0.07182604819536209,14.312744140625,-8.2244873046875,21.05712890625
15.789999900000002,8.355764389038086,0.48602294921875,0.15801730751991272,12.0849609375,-16.0980224609375,17.7764892578125
15.809999900000001,8.360552787780762,0.2513911724090576,0.1604115068912506,13.73291015625,-19.83642578125,21.3470458984375
15.8299999,8.470685958862305,0.1388636976480484,0.11013327538967133,7.080078125,-21.54541015625,32.7606201171875
15.8499999,8.69095230102539,0.05027823522686958,-0.035913024097681046,-17.059326171875,-33.416748046875,31.097412109375
15.869999900000002,8.932766914367676,-0.08619125932455063,-0.2537853717803955,-25.604248046875,-42.0074462890625,22.39990234375
15.889999900000001,9.191340446472168,-0.3280056416988373,-0.5506663918495178,-15.0299072265625,-41.107177734375,18.5699462890625
15.9099999,9.440337181091309,-0.7110779285430908,-0.8882488012313843,4.2572021484375,-40.863037109375,17.852783203125
15.9299999,9.581595420837402,-1.1204863786697388,-1.1683704853057861,7.4920654296875,-39.1693115234375,18.1121826171875
15.9499999,9.646238327026367,-1.4772224426269531,-1.3934253454208374,-12.51220703125,-36.468505859375,20.4315185546875
15.969999900000001,9.660603523254395,-1.7549498081207275,-1.6208745241165161,-26.0009765625,-33.4014892578125,11.138916015625
15.9899999,9.694122314453125,-1.941697597503662,-1.86508309841156,-13.0462646484375,-29.23583984375,-1.2054443359375
16.0099999,9.773131370544434,-2.0470423698425293,-2.0901381969451904,0.701904296875,-26.031494140625,-4.7149658203125
16.0299999,9.885659217834473,-2.078166961669922,-2.2409727573394775,-5.9356689453125,-23.9105224609375,-4.791259765625
16.0499999,10.000580787658691,-2.030282974243164,-2.2697031497955322,-29.022216796875,-23.681640625,-4.852294921875
16.0699999,10.137049674987793,-1.900996208190918,-2.2840683460235596,-43.6248779296875,-16.1895751953125,-3.8604736328125
16.089999900000002,10.249577522277832,-1.6879122257232666,-2.322375535964966,-34.149169921875,-9.3536376953125,-0.6103515625
16.109999900000002,10.350133895874023,-1.4532804489135742,-2.4157495498657227,-11.77978515625,-9.0789794921875,7.0343017578125
16.1299999,10.26394271850586,-1.2066776752471924,-2.4660277366638184,-1.6326904296875,-36.0107421875,18.1732177734375
16.1499999,10.177751541137695,-1.01753568649292,-2.4588451385498047,-2.899169921875,-50.201416015625,33.2183837890625
16.1699999,10.050858497619629,-0.9840168952941895,-2.31758713722229,-22.0947265625,-47.66845703125,30.6549072265625
16.1899999,10.019734382629395,-1.0869675874710083,-2.123656988143921,-66.680908203125,-55.3131103515625,25.3143310546875
16.2099999,9.979032516479492,-1.1755530834197998,-2.145204782485962,-159.332275390625,-87.7227783203125,27.6031494140625
16.2299999,9.93593692779541,-1.1324573755264282,-2.032677173614502,-177.2918701171875,-64.422607421875,19.3634033203125
16.249999900000002,9.725247383117676,-1.0558429956436157,-3.287238836288452,163.8031005859375,55.419921875,-8.4228515625
16.269999900000002,9.583989143371582,-1.1420341730117798,-3.818751811981201,467.9412841796875,159.8968505859375,-8.1939697265625
16.2899999,9.560047149658203,-1.7310078144073486,-4.369418144226074,131.9732666015625,195.7244873046875,-1.03759765625
16.3099999,9.646238327026367,-2.765302896499634,-3.6559460163116455,44.647216796875,164.764404296875,-23.162841796875
16.3299999,9.852140426635742,-3.713406801223755,-1.7166426181793213,40.9088134765625,106.475830078125,-69.1070556640625
16.3499999,10.053253173828125,-3.995922565460205,0.6607996821403503,-16.9525146484375,44.7845458984375,-90.9881591796875
16.3699999,10.153809547424316,-3.3423056602478027,2.7676970958709717,-25.87890625,-3.692626953125,-69.76318359375
16.3899999,10.156203269958496,-2.0614075660705566,3.9863457679748535,-31.402587890625,-60.4400634765625,-29.9530029296875
16.4099999,10.06043529510498,-0.768538773059845,4.048594951629639,-44.2352294921875,-98.876953125,-5.645751953125
16.429999900000002,9.904812812805176,-0.0454898327589035,2.784456491470337,-41.80908203125,-105.1177978515625,-7.1258544921875
16.4499999,9.713275909423828,-0.05985504388809204,0.5506663918495178,-41.56494140625,-78.338623046875,-19.5770263671875
16.4699999,9.583989143371582,-0.4381389021873474,-1.8411411046981812,-13.4124755859375,-11.29150390625,-36.43798828125
16.4899999,9.454702377319336,-0.7733271718025208,-3.5913026332855225,14.6942138671875,25.69580078125,-41.9769287109375
16.5099999,9.361329078674316,-0.7206547260284424,-4.228160381317139,8.7127685546875,17.181396484375,-32.7301025390625
16.5299999,9.320627212524414,-0.3232172429561615,-3.801992416381836,-0.18310546875,-0.4119873046875,-16.265869140625
16.5499999,9.334992408752441,0.08619125932455063,-2.889801502227783,3.8299560546875,-10.406494140625,-0.701904296875
16.5699999,9.41400146484375,0.23702596127986908,-1.9273324012756348,4.1961669921875,-14.5721435546875,3.326416015625
16.589999900000002,9.490615844726562,0.021547814831137657,-1.2952631711959839,-8.0108642578125,-24.10888671875,-5.18798828125
16.609999900000002,9.548076629638672,-0.33758243918418884,-1.0989385843276978,-23.62060546875,-34.6221923828125,-17.88330078125
16.6299999,9.564835548400879,-0.6009446382522583,-1.3096283674240112,-13.458251953125,-27.5115966796875,-22.39990234375
16.6499999,9.521739959716797,-0.667982280254364,-1.7262194156646729,6.4849853515625,-6.2103271484375,-13.4429931640625
16.6699999,9.445125579833984,-0.4668693244457245,-2.0805611610412598,15.655517578125,5.2337646484375,-7.904052734375
16.6899999,9.308655738830566,-0.17956513166427612,-2.229001760482788,3.4027099609375,-3.143310546875,-6.622314453125
16.7099999,9.14345645904541,0.1867477297782898,-2.1787235736846924,-7.2174072265625,-12.237548828125,-3.7994384765625
16.7299999,8.978256225585938,0.5291185975074768,-2.1380221843719482,0.3814697265625,-10.9100341796875,3.173828125
16.749999900000002,8.80587387084961,0.6967126727104187,-2.2457611560821533,1.1138916015625,-7.5225830078125,15.07568359375
16.769999900000002,8.734047889709473,0.6751648783683777,-2.3558945655822754,6.2408447265625,4.5318603515625,17.4407958984375
16.7899999,8.738836288452148,0.5291185975074768,-2.298433542251587,9.735107421875,10.8489990234375,14.068603515625
16.8099999,8.887276649475098,0.2968810200691223,-1.9536685943603516,0.4425048828125,2.288818359375,19.073486328125
16.8299999,9.081207275390625,0.12689268589019775,-1.4748282432556152,2.3040771484375,-15.8843994140625,28.045654296875
16.8499999,9.334992408752441,-0.12928688526153564,-1.1563993692398071,-19.3023681640625,-37.0635986328125,32.073974609375
16.8699999,9.543288230895996,-0.44771572947502136,-1.2018892765045166,-16.3421630859375,-31.9061279296875,26.0772705078125
16.8899999,9.775525093078613,-0.9648633003234863,-1.6352397203445435,-5.615234375,-9.1705322265625,20.5078125
16.9099999,9.99339771270752,-1.4628572463989258,-2.1164743900299072,10.1470947265625,10.80322265625,13.2598876953125
16.929999900000002,10.247182846069336,-1.9488801956176758,-2.4444799423217773,20.6146240234375,17.0135498046875,6.2103271484375
16.9499999,10.362105369567871,-2.3080103397369385,-2.513911724090576,2.838134765625,4.5166015625,0.518798828125
16.9699999,10.38844108581543,-2.3918075561523438,-2.3535003662109375,1.9378662109375,3.2806396484375,-13.214111328125
16.9899999,10.304644584655762,-2.2146365642547607,-2.1380221843719482,4.1961669921875,7.965087890625,-16.632080078125
17.0099999,10.129867553710938,-1.7597382068634033,-1.889025092124939,12.1612548828125,12.298583984375,-8.85009765625
17.0299999,9.95748519897461,-1.2114660739898682,-1.6184803247451782,24.8565673828125,11.71875,0.8544921875
17.0499999,9.787496566772461,-0.7493851184844971,-1.3215993642807007,22.9644775390625,4.608154296875,4.913330078125
17.0699999,9.639056205749512,-0.47884035110473633,-0.9792284965515137,14.70947265625,-3.509521484375,4.6234130859375
17.089999900000002,9.478644371032715,-0.3447650372982025,-0.6392518281936646,15.7623291015625,-12.451171875,6.04248046875
17.109999900000002,9.320627212524414,-0.33039984107017517,-0.4357447028160095,11.871337890625,-26.9012451171875,12.1002197265625
17.1299999,9.188945770263672,-0.4620809257030487,-0.5171475410461426,-0.518798828125,-37.78076171875,17.303466796875
17.1499999,9.155426979064941,-1.6903064250946045,-1.5658079385757446,-3.8909912109375,-27.2979736328125,5.5694580078125
17.1699999,9.174580574035645,-1.9153614044189453,-2.3798365592956543,6.591796875,41.595458984375,-68.42041015625
17.1899999,9.363722801208496,-2.360682964324951,-3.177105665206909,64.666748046875,74.9359130859375,-72.4639892578125
17.2099999,9.59835433959961,-2.164358377456665,-3.3470940589904785,39.48974609375,26.3824462890625,-8.758544921875
17.2299999,9.821015357971191,-1.1204863786697388,-2.8562827110290527,0.30517578125,5.2032470703125,-18.1427001953125
17.249999900000002,10.022128105163574,-0.5410895943641663,-2.3774423599243164,2.2430419921875,12.5732421875,-26.763916015625
17.269999900000002,10.101137161254883,-0.1149216815829277,-1.9823989868164062,25.1007080078125,13.3819580078125,-4.1961669921875
17.2899999,10.086771965026855,0.22744916379451752,-1.7118542194366455,11.4898681640625,0.885009765625,0.6866455078125
17.3099999,9.99339771270752,0.31364041566848755,-1.4891934394836426,-7.9345703125,-13.24462890625,1.46484375
17.3299999,9.864110946655273,0.24899697303771973,-1.3479355573654175,-9.3231201171875,-16.41845703125,2.86865234375
17.3499999,9.72285270690918,0.035913024097681046,-1.4077905416488647,-6.3934326171875,-17.1661376953125,5.645751953125
17.3699999,9.646238327026367,-0.15083470940589905,-1.5466543436050415,-5.279541015625,-15.07568359375,4.5623779296875
17.3899999,9.593565940856934,-0.272938996553421,-1.7310078144073486,-5.8441162109375,-9.613037109375,6.439208984375
17.409999900000003,9.57441234588623,-0.26815059781074524,-1.8842366933822632,-6.500244140625,-7.4005126953125,15.899658203125
17.429999900000002,9.548076629638672,-0.272938996553421,-1.9536685943603516,4.3182373046875,-6.3323974609375,28.4576416015625
17.4499999,9.519346237182617,-0.33758243918418884,-1.9488801956176758,7.6904296875,-6.072998046875,29.3426513671875
17.4699999,9.521739959716797,-0.5793967843055725,-1.821987509727478,3.9825439453125,-6.9580078125,20.7977294921875
17.4899999,9.5624418258667,-1.036689281463623,-1.7262194156646729,-2.0904541015625,-9.3536376953125,12.1612548828125
17.5099999,9.651026725769043,-1.414973258972168,-1.6663644313812256,-8.026123046875,-8.3160400390625,-0.1068115234375
17.5299999,9.720458984375,-1.6759412288665771,-1.7070658206939697,-6.7596435546875,-6.134033203125,-6.2713623046875
17.5499999,9.737217903137207,-1.6400281190872192,-1.821987509727478,-4.2877197265625,-3.3416748046875,-4.94384765625
17.5699999,9.718064308166504,-1.3886369466781616,-1.9177556037902832,1.4190673828125,0.06103515625,0.18310546875
17.589999900000002,9.66539192199707,-1.072602391242981,-1.9560627937316895,8.544921875,2.7618408203125,5.6304931640625
17.609999900000002,9.641449928283691,-0.933738648891449,-1.9847931861877441,3.96728515625,-0.457763671875,6.317138671875
17.6299999,9.610325813293457,-0.933738648891449,-1.9369091987609863,0.54931640625,-0.67138671875,-0.7781982421875
17.6499999,9.591172218322754,-0.9600749015808105,-1.86508309841156,-2.349853515625,1.6937255859375,-9.7503662109375
17.6699999,9.57201862335205,-0.9528923034667969,-1.7980455160140991,-5.2490234375,-2.4261474609375,-4.241943359375
17.6899999,9.564835548400879,-0.9481038451194763,-1.8555063009262085,11.199951171875,-0.4730224609375,3.2196044921875
17.7099999,9.581595420837402,-0.8858546018600464,-1.8076223134994507,15.2130126953125,9.82666015625,-1.6937255859375
17.7299999,9.59596061706543,-0.912190854549408,-1.9321208000183105,7.1563720703125,5.31005859375,-5.0811767578125
17.749999900000002,9.607931137084961,-0.9265560507774353,-1.9153614044189453,15.1519775390625,6.866455078125,-4.241943359375
17.769999900000002,9.600749015808105,-0.9241618514060974,-1.766920804977417,19.3634033203125,12.3138427734375,-0.6561279296875
17.7899999,9.600749015808105,-0.9002198576927185,-1.623268723487854,4.7607421875,3.7384033203125,-3.23486328125
17.8099999,9.641449928283691,-0.9265560507774353,-1.482010841369629,-4.69970703125,-4.9285888671875,-3.7384033203125
17.8299999,9.679757118225098,-0.9864110946655273,-1.4460978507995605,1.0223388671875,-3.936767578125,-1.4190673828125
17.8499999,9.708487510681152,-1.0031704902648926,-1.5753847360610962,7.049560546875,0.54931640625,-3.2196044921875
17.8699999,9.710882186889648,-1.015141487121582,-1.7118542194366455,9.21630859375,4.486083984375,-5.92041015625
17.8899999,9.696516990661621,-0.9840168952941895,-1.821987509727478,9.09423828125,3.6468505859375,-5.9967041015625
17.909999900000003,9.672574996948242,-0.9193734526634216,-1.8148049116134644,13.5498046875,0.9765625,-4.6234130859375
17.929999900000002,9.646238327026367,-0.8810662031173706,-1.7405846118927002,17.0135498046875,0.91552734375,-4.608154296875
17.9499999,9.59835433959961,-0.8020575642585754,-1.6280571222305298,18.4173583984375,0.7781982421875,-6.77490234375
17.9699999,9.57441234588623,-0.7924807667732239,-1.5203180313110352,13.519287109375,2.44140625,-6.134033203125
17.9899999,9.552865028381348,-0.7134721279144287,-1.4077905416488647,8.8653564453125,-0.579833984375,-3.2958984375
18.0099999,9.560047149658203,-0.6607996821403503,-1.3718775510787964,3.021240234375,-5.6915283203125,0.885009765625
18.0299999,9.569623947143555,-0.5530605912208557,-1.37906014919281,10.955810546875,-3.8604736328125,1.617431640625
18.0499999,9.603142738342285,-0.5339069962501526,-1.414973258972168,15.68603515625,1.4190673828125,5.55419921875
18.0699999,9.641449928283691,-0.5482721924781799,-1.4532804489135742,3.2958984375,-0.8392333984375,7.8887939453125
18.089999900000002,9.696516990661621,-0.6607996821403503,-1.479616641998291,-13.8092041015625,-5.4779052734375,8.4075927734375
18.109999900000002,9.742006301879883,-0.8236053586006165,-1.522712230682373,-14.2059326171875,-7.26318359375,6.7291259765625
18.1299999,9.737217903137207,-0.9911994934082031,-1.6184803247451782,-3.662109375,-7.537841796875,4.08935546875
18.1499999,9.72285270690918,-1.137245774269104,-1.7262194156646729,-0.4119873046875,-11.444091796875,-0.823974609375
18.1699999,9.672574996948242,-1.213860273361206,-1.8100165128707886,1.2359619140625,-7.537841796875,-2.838134765625
18.1899999,9.646238327026367,-1.2545616626739502,-1.8291701078414917,-1.3885498046875,1.678466796875,0.1983642578125
18.2099999,9.617507934570312,-1.2258312702178955,-1.8124107122421265,-7.659912109375,-4.547119140625,-2.5634765625
18.2299999,9.59596061706543,-1.1755530834197998,-1.7884687185287476,-3.7078857421875,-4.4708251953125,-2.3345947265625
18.249999900000002,9.57201862335205,-1.0797849893569946,-1.7477672100067139,1.800537109375,-3.3721923828125,-2.86865234375
18.269999900000002,9.560047149658203,-0.9624691009521484,-1.699883222579956,-1.7242431640625,-4.119873046875,-4.21142578125
18.2899999,9.557653427124023,-0.8236053586006165,-1.6400281190872192,-9.490966796875,-5.31005859375,-3.7384033203125
18.3099999,9.564835548400879,-0.730231523513794,-1.599326729774475,-10.68115234375,-6.04248046875,-3.021240234375
18.3299999,9.579200744628906,-0.7015010714530945,-1.6112977266311646,-3.84521484375,-7.38525390625,1.15966796875
18.3499999,9.583989143371582,-0.7589619159698486,-1.6519991159439087,1.739501953125,-7.171630859375,1.5411376953125
18.3699999,9.576807022094727,-0.8475474119186401,-1.7142484188079834,-2.6702880859375,-6.3018798828125,-1.2969970703125
18.3899999,9.57201862335205,-0.9145850539207458,-1.7764976024627686,-13.2293701171875,-10.223388671875,-4.3487548828125
18.409999900000003,9.57201862335205,-0.950498104095459,-1.8387469053268433,-16.2506103515625,-11.566162109375,-6.134033203125
18.429999900000002,9.59835433959961,-0.950498104095459,-1.9153614044189453,-7.4462890625,-4.974365234375,-4.608154296875
18.4499999,9.63187313079834,-0.9457096457481384,-2.0039467811584473,-5.2337646484375,-2.50244140625,-3.41796875
18.4699999,9.682151794433594,-0.933738648891449,-2.073378562927246,-6.9427490234375,-5.2032470703125,-5.615234375
18.4899999,9.718064308166504,-0.912190854549408,-2.1308395862579346,-6.622314453125,-6.134033203125,-7.4310302734375
18.5099999,9.751583099365234,-0.8738836050033569,-2.1547815799713135,-2.44140625,-3.1585693359375,-5.31005859375
18.5299999,9.765948295593262,-0.828393816947937,-2.1523873805999756,-0.152587890625,-1.3275146484375,-3.9520263671875
18.5499999,9.75397777557373,-0.7733271718025208,-2.1284453868865967,1.5869140625,2.9296875,-2.3651123046875
18.5699999,9.708487510681152,-0.7374141216278076,-2.0805611610412598,1.1749267578125,2.960205078125,-1.434326171875
18.589999900000002,9.651026725769043,-0.7110779285430908,-2.0254945755004883,-1.708984375,-1.739501953125,-4.0740966796875
18.609999900000002,9.591172218322754,-0.7015010714530945,-1.9704279899597168,-2.685546875,-1.678466796875,-5.9814453125
18.6299999,9.545681953430176,-0.6967126727104187,-1.922544002532959,-3.753662109375,-0.8544921875,-5.7373046875
18.6499999,9.519346237182617,-0.6871358752250671,-1.8770540952682495,-2.777099609375,1.0833740234375,-6.2713623046875
18.6699999,9.497797966003418,-0.6631938815116882,-1.821987509727478,-1.4801025390625,2.6702880859375,-7.049560546875
18.6899999,9.497797966003418,-0.6320692300796509,-1.7717092037200928,-3.60107421875,1.922607421875,-8.4075927734375
18.7099999,9.512163162231445,-0.6105214357376099,-1.7381904125213623,-4.2266845703125,1.922607421875,-6.988525390625
18.7299999,9.550470352172852,-0.5913678407669067,-1.7381904125213623,0.91552734375,2.105712890625,-4.7607421875
18.749999900000002,9.59835433959961,-0.5817909836769104,-1.7741034030914307,4.1656494140625,1.6326904296875,-4.4097900390625
18.769999900000002,9.641449928283691,-0.5626373887062073,-1.824381709098816,2.6092529296875,1.708984375,-4.364013671875
18.7899999,9.682151794433594,-0.5339069962501526,-1.8818424940109253,-0.3509521484375,1.922607421875,-3.7841796875
18.8099999,9.691728591918945,-0.5003881454467773,-1.9177556037902832,-0.885009765625,1.0833740234375,-3.2501220703125
18.8299999,9.696516990661621,-0.4668693244457245,-1.9488801956176758,0.48828125,0.3204345703125,-2.899169921875
18.8499999,9.670180320739746,-0.44532153010368347,-1.9488801956176758,2.777099609375,0.6866455078125,-1.8768310546875
18.8699999,9.658209800720215,-0.40940847992897034,-1.9321208000183105,2.4261474609375,1.03759765625,-2.99072265625
18.8899999,9.643844604492188,-0.37828385829925537,-1.9081788063049316,-1.0223388671875,-0.4425048828125,-2.5482177734375
18.909999900000003,9.646238327026367,-0.33279404044151306,-1.8770540952682495,-0.91552734375,-0.885009765625,-0.5035400390625
18.929999900000002,9.651026725769043,-0.3016694188117981,-1.8579005002975464,0.54931640625,-1.8768310546875,1.6021728515625
18.9499999,9.651026725769043,-0.2825157940387726,-1.8339585065841675,1.495361328125,-2.105712890625,2.8228759765625
18.9699999,9.62947940826416,-0.2968810200691223,-1.8124107122421265,0.1220703125,-1.89208984375,3.2806396484375
18.9899999,9.593565940856934,-0.3280056416988373,-1.7836803197860718,0.091552734375,-1.556396484375,2.62451171875
19.0099999,9.555258750915527,-0.38067805767059326,-1.7597382068634033,-0.5035400390625,-1.8157958984375,1.8310546875
19.0299999,9.533711433410645,-0.4405331015586853,-1.7573440074920654,-2.0294189453125,-2.349853515625,0.9002685546875
19.0499999,9.533711433410645,-0.4884171485900879,-1.7597382068634033,-0.91552734375,-1.52587890625,0.18310546875
19.0699999,9.560047149658203,-0.5291185975074768,-1.7860745191574097,0.0457763671875,-1.0223388671875,0.54931640625
19.089999900000002,9.593565940856934,-0.5554547905921936,-1.8148049116134644,0.4730224609375,-1.03759765625,1.03759765625
19.109999900000002,9.636661529541016,-0.5650315880775452,-1.843535304069519,0.6561279296875,-0.5645751953125,0.2593994140625
19.1299999,9.667786598205566,-0.5674257874488831,-1.86508309841156,1.3275146484375,0.18310546875,0.335693359375
19.1499999,9.694122314453125,-0.5626373887062073,-1.8818424940109253,2.0904541015625,0.3204345703125,1.190185546875
19.1699999,9.6989107131958,-0.5554547905921936,-1.889025092124939,2.9144287109375,0.1983642578125,1.0986328125
19.1899999,9.691728591918945,-0.5530605912208557,-1.8962076902389526,2.838134765625,0.3509521484375,-0.0762939453125
19.2099999,9.672574996948242,-0.5530605912208557,-1.889025092124939,3.23486328125,-0.1068115234375,-0.8697509765625
19.2299999,9.660603523254395,-0.5482721924781799,-1.8794482946395874,2.7313232421875,0.0457763671875,-0.30517578125
19.249999900000002,9.648633003234863,-0.5315127968788147,-1.8579005002975464,1.7547607421875,0.2593994140625,0.152587890625
19.269999900000002,9.634267807006836,-0.5099649429321289,-1.824381709098816,1.3427734375,0.762939453125,0.48828125
19.2899999,9.612719535827637,-0.4884171485900879,-1.7884687185287476,0.67138671875,0.6866455078125,-0.030517578125
19.3099999,9.591172218322754,-0.47644615173339844,-1.7501614093780518,0.3814697265625,0.1068115234375,-0.18310546875
19.3299999,9.581595420837402,-0.47884035110473633,-1.7286136150360107,0.0152587890625,-0.8087158203125,-0.152587890625
19.3499999,9.586383819580078,-0.4836287498474121,-1.723825216293335,-0.030517578125,-1.0528564453125,0.3509521484375
19.3699999,9.612719535827637,-0.4908113479614258,-1.745373010635376,-0.2593994140625,-1.220703125,0.2899169921875
19.3899999,9.651026725769043,-0.5027823448181152,-1.7836803197860718,-0.213623046875,-1.03759765625,0.42724609375
19.409999900000003,9.68694019317627,-0.5171475410461426,-1.8315643072128296,0.18310546875,-1.068115234375,1.0833740234375
19.429999900000002,9.715670585632324,-0.5363011956214905,-1.8794482946395874,0.885009765625,-0.6103515625,1.2664794921875
19.4499999,9.725247383117676,-0.5482721924781799,-1.9177556037902832,0.9765625,0.2899169921875,1.068115234375
19.4699999,9.703699111938477,-0.5554547905921936,-1.922544002532959,1.46484375,0.8392333984375,1.0528564453125
19.4899999,9.667786598205566,-0.5506663918495178,-1.8938134908676147,1.5869140625,0.7781982421875,0.3662109375
19.5099999,9.624691009521484,-0.5410895943641663,-1.8411411046981812,1.220703125,1.0528564453125,0.030517578125
19.5299999,9.583989143371582,-0.5339069962501526,-1.7764976024627686,1.312255859375,0.701904296875,0.54931640625
19.5499999,9.57441234588623,-0.5267243981361389,-1.7262194156646729,1.2664794921875,0.274658203125,0.5035400390625
19.5699999,9.581595420837402,-0.5291185975074768,-1.7046716213226318,0.4425048828125,0.2593994140625,0.762939453125
19.589999900000002,9.605537414550781,-0.5363011956214905,-1.6974890232086182,1.0528564453125,0.1678466796875,1.373291015625
19.609999900000002,9.63187313079834,-0.5506663918495178,-1.7094600200653076,1.0986328125,0.2288818359375,0.885009765625
19.6299999,9.651026725769043,-0.569819986820221,-1.7190368175506592,1.5106201171875,0.0152587890625,1.0223388671875
19.6499999,9.66299819946289,-0.5889736413955688,-1.723825216293335,2.899169921875,-1.0223388671875,1.15966796875
19.6699999,9.674968719482422,-0.6009446382522583,-1.7262194156646729,3.4027099609375,-2.44140625,1.861572265625
19.6899999,9.677363395690918,-0.6105214357376099,-1.7118542194366455,2.1514892578125,-1.0833740234375,0.9613037109375
19.7099999,9.68694019317627,-0.6153098344802856,-1.702277421951294,0.5035400390625,-0.4425048828125,0.0762939453125
19.7299999,9.68694019317627,-0.6248866319656372,-1.6927006244659424,1.3275146484375,-1.03759765625,0.579833984375
19.749999900000002,9.679757118225098,-0.6368576288223267,-1.6903064250946045,3.387451171875,-0.5340576171875,1.3427734375
19.769999900000002,9.667786598205566,-0.6536170840263367,-1.6855180263519287,3.204345703125,-0.2288818359375,0.274658203125
19.7899999,9.646238327026367,-0.667982280254364,-1.678335428237915,2.38037109375,0.2899169921875,-0.9918212890625
19.8099999,9.622296333312988,-0.6823474764823914,-1.6639702320098877,3.570556640625,0.1373291015625,-1.89208984375
19.8299999,9.603142738342285,-0.6799532771110535,-1.6496049165725708,3.1585693359375,-0.79345703125,-2.716064453125
19.8499999,9.59835433959961,-0.6607996821403503,-1.6424223184585571,0.823974609375,-1.007080078125,-3.0517578125
19.8699999,9.59835433959961,-0.6344634294509888,-1.6376339197158813,0.9307861328125,-1.3580322265625,-1.739501953125
19.8899999,9.605537414550781,-0.6129156351089478,-1.644816517829895,1.983642578125,-3.0517578125,1.0223388671875
19.909999900000003,9.610325813293457,-0.6033388376235962,-1.6639702320098877,2.166748046875,-4.2572021484375,0.701904296875
19.929999900000002,9.617507934570312,-0.6057330369949341,-1.6950948238372803,0.79345703125,-1.953125,-3.0670166015625
19.9499999,9.636661529541016,-0.608127236366272,-1.7405846118927002,0.4119873046875,-1.434326171875,-3.570556640625
19.9699999,9.660603523254395,-0.5985504388809204,-1.7812861204147339,2.6397705078125,-2.6397705078125,0.030517578125
19.9899999,9.68694019317627,-0.5770025849342346,-1.8148049116134644,2.8839111328125,-2.0599365234375,0.7781982421875
20.0099999,9.696516990661621,-0.545877993106842,-1.8195933103561401,1.3580322265625,-0.457763671875,-1.40380859375
20.0299999,9.68694019317627,-0.5123591423034668,-1.7980455160140991,0.4730224609375,-0.5950927734375,-1.8768310546875
20.0499999,9.658209800720215,-0.49559974670410156,-1.764526605606079,1.03759765625,-2.1209716796875,0.30517578125
20.0699999,9.624691009521484,-0.4908113479614258,-1.7357962131500244,0.9307861328125,-2.7008056640625,1.1444091796875
20.089999900000002,9.59835433959961,-0.5003881454467773,-1.723825216293335,0,-1.3275146484375,-0.946044921875
20.109999900000002,9.579200744628906,-0.5219359993934631,-1.721431016921997,0.457763671875,-1.6326904296875,-0.732421875
20.1299999,9.583989143371582,-0.5363011956214905,-1.721431016921997,1.6937255859375,-4.5318603515625,1.6937255859375
20.1499999,9.605537414550781,-0.5434837937355042,-1.7190368175506592,-0.0762939453125,-2.4566650390625,-0.4119873046875
