# Time (seconds),Accel_X,Accel_Y,Accel_Z,Gyro_X,Gyro_Y,Gyro_Z
0.0099999,9.78989028930664,-0.13168109953403473,0.6607996821403503,-2.1514892578125,3.23486328125,-0.5035400390625
0.029999900000000003,9.75397777557373,-0.10773907601833344,0.7110779285430908,1.2054443359375,5.9356689453125,-1.64794921875
0.0499999,9.72285270690918,-0.09576806426048279,0.8020575642585754,2.5177001953125,3.7994384765625,-0.4425048828125
0.0699999,9.682151794433594,-0.06224924325942993,0.9265560507774353,-0.30517578125,2.105712890625,-0.6561279296875
0.08999990000000001,9.68694019317627,-0.035913024097681046,1.0223240852355957,-1.495361328125,-0.91552734375,0.9002685546875
0.10999990000000001,9.72285270690918,-0.031124621629714966,1.0965443849563599,-1.129150390625,-0.8544921875,1.4190673828125
0.1299999,9.794678688049316,-0.06464344263076782,1.1252747774124146,1.129150390625,1.7242431640625,-1.77001953125
0.14999990000000002,9.883264541625977,-0.1364694982767105,1.1324573755264282,1.007080078125,0.48828125,-2.8228759765625
0.1699999,9.95748519897461,-0.2106897532939911,1.072602391242981,0.7171630859375,-1.739501953125,-3.3416748046875
0.1899999,9.998186111450195,-0.2561795711517334,0.9816226959228516,-1.0986328125,-4.08935546875,-2.99072265625
0.20999990000000002,9.979032516479492,-0.23942017555236816,0.849941611289978,-2.197265625,-2.960205078125,-3.204345703125
0.2299999,9.892841339111328,-0.17477671802043915,0.7110779285430908,-0.67138671875,1.64794921875,-2.838134765625
0.2499999,9.773131370544434,-0.05267243832349777,0.6177040338516235,-0.06103515625,3.997802734375,-1.3275146484375
0.2699999,9.641449928283691,0.06224924325942993,0.6224924325942993,-2.6702880859375,2.3193359375,0.274658203125
0.28999990000000003,9.5624418258667,0.14365209639072418,0.7110779285430908,-3.96728515625,-0.7171630859375,1.3885498046875
0.3099999,9.536105155944824,0.1628057211637497,0.8355764150619507,-4.45556640625,-6.9427490234375,-1.9378662109375
0.3299999,9.576807022094727,0.12449848651885986,0.9409212470054626,-4.4097900390625,-8.1939697265625,-0.2593994140625
0.34999990000000003,9.653421401977539,0.06224924325942993,0.9888052940368652,-1.3580322265625,0.8087158203125,1.617431640625
0.3699999,9.739612579345703,-0.0071826050989329815,1.015141487121582,-1.03759765625,3.265380859375,0.2899169921875
0.3899999,9.823410034179688,-0.07422025501728058,1.0462661981582642,-1.6021728515625,-0.457763671875,1.40380859375
0.40999990000000003,9.859322547912598,-0.11013327538967133,1.0965443849563599,0.244140625,-1.953125,-0.5035400390625
0.4299999,9.864110946655273,-0.12928688526153564,1.1635819673538208,0.0457763671875,-3.1890869140625,-0.4119873046875
0.4499999,9.837775230407715,-0.0933738648891449,1.2090718746185303,0.6256103515625,-3.387451171875,-1.3580322265625
0.4699999,9.806650161743164,-0.05267243832349777,1.2018892765045166,2.593994140625,-3.7841796875,-2.166748046875
0.4899999,9.782708168029785,-0.031124621629714966,1.1420341730117798,0.335693359375,-7.4005126953125,0.274658203125
0.5099999,9.768342971801758,-0.023942016065120697,1.0199298858642578,0.0152587890625,-7.232666015625,-0.9613037109375
0.5299999,9.765948295593262,-0.0454898327589035,0.8762778043746948,0.213623046875,-4.3792724609375,-1.251220703125
0.5499999,9.782708168029785,-0.05506663769483566,0.730231523513794,0.1983642578125,-4.1656494140625,-0.0457763671875
0.5699999,9.825803756713867,-0.08140286058187485,0.6272808313369751,-0.54931640625,-3.814697265625,0.9613037109375
0.5899998999999999,9.859322547912598,-0.10295066982507706,0.5841852426528931,-1.556396484375,-2.25830078125,0.213623046875
0.6099998999999999,9.871294021606445,-0.12449848651885986,0.5602431893348694,0.762939453125,0.762939453125,-2.01416015625
0.6299999,9.859322547912598,-0.12449848651885986,0.5817909836769104,-0.152587890625,-0.396728515625,-0.3814697265625
0.6499999,9.823410034179688,-0.08619125932455063,0.6248866319656372,-2.13623046875,-0.3662109375,0.5340576171875
0.6699999,9.794678688049316,-0.043095629662275314,0.6871358752250671,0.091552734375,1.8463134765625,-0.2288818359375
0.6899999,9.780313491821289,-0.023942016065120697,0.7541735172271729,0.9765625,1.4801025390625,0.640869140625
0.7099999,9.768342971801758,-0.038307227194309235,0.7948749661445618,0.1678466796875,0.0457763671875,0.457763671875
0.7299998999999999,9.768342971801758,-0.06224924325942993,0.811634361743927,-2.8076171875,-0.8544921875,0.6866455078125
0.7499998999999999,9.765948295593262,-0.07182604819536209,0.8140285611152649,-2.7618408203125,0.5340576171875,0.2899169921875
0.7699999,9.775525093078613,-0.06703764945268631,0.8403648138046265,-1.15966796875,1.2664794921875,0.67138671875
0.7899999,9.775525093078613,-0.05746084079146385,0.8834604024887085,-0.3814697265625,-0.091552734375,0.640869140625
0.8099999,9.773131370544434,-0.05027823522686958,0.9385270476341248,0.0762939453125,-0.579833984375,-0.2288818359375
0.8299999,9.763554573059082,-0.043095629662275314,0.9792284965515137,0.3509521484375,-0.030517578125,-0.5645751953125
0.8499998999999999,9.746794700622559,-0.028730420395731926,1.0079588890075684,-0.2288818359375,-0.6561279296875,-0.5035400390625
0.8699998999999999,9.734824180603027,-0.011971008032560349,1.0223240852355957,-0.5950927734375,-2.777099609375,0.8087158203125
0.8899999,9.749189376831055,-0.019153613597154617,1.0247182846069336,0.5035400390625,-3.082275390625,1.0528564453125
0.9099999,9.780313491821289,-0.043095629662275314,1.0199298858642578,0.7476806640625,-1.9989013671875,-1.068115234375
0.9299999,9.818621635437012,-0.08619125932455063,1.0055646896362305,0.885009765625,-2.2430419921875,-2.5787353515625
0.9499999,9.847352027893066,-0.1173158809542656,0.9624691009521484,0.06103515625,-6.0272216796875,-1.2969970703125
0.9699998999999999,9.861717224121094,-0.13407529890537262,0.8930372595787048,-1.6937255859375,-8.5906982421875,0.396728515625
0.9899998999999999,9.852140426635742,-0.1173158809542656,0.7924807667732239,-1.5716552734375,-4.5166015625,-0.8697509765625
1.0099999,9.832986831665039,-0.08140286058187485,0.6799532771110535,2.5177001953125,2.38037109375,-3.082275390625
1.0299999,9.801861763000488,-0.028730420395731926,0.6105214357376099,2.2735595703125,2.99072265625,-1.52587890625
1.0499999,9.751583099365234,0.026336219161748886,0.5889736413955688,-0.1373291015625,0.6561279296875,0.8697509765625
1.0699999,9.696516990661621,0.06703764945268631,0.6177040338516235,-1.708984375,-0.640869140625,2.2125244140625
1.0899999,9.653421401977539,0.08379705995321274,0.6751648783683777,-2.1514892578125,-0.3204345703125,3.0670166015625
1.1099999,9.646238327026367,0.08140286058187485,0.751779317855835,0.152587890625,1.89208984375,2.044677734375
1.1299999,9.674968719482422,0.05746084079146385,0.8427590131759644,-0.0762939453125,0.9002685546875,2.0599365234375
1.1499999,9.72285270690918,0.014365210197865963,0.933738648891449,0.579833984375,-0.48828125,2.197265625
1.1699998999999999,9.77791976928711,-0.043095629662275314,1.0103530883789062,0.1220703125,-1.52587890625,2.01416015625
1.1899998999999999,9.813833236694336,-0.10055647045373917,1.0606313943862915,-0.30517578125,-2.197265625,1.312255859375
1.2099999,9.852140426635742,-0.15322890877723694,1.072602391242981,0.7171630859375,-2.899169921875,0.518798828125
1.2299999,9.876082420349121,-0.19393034279346466,1.0462661981582642,0.640869140625,-4.2877197265625,0.823974609375
1.2499999,9.9000244140625,-0.22026655077934265,0.9959878921508789,0.6256103515625,-3.875732421875,-0.1220703125
1.2699999,9.9000244140625,-0.22744916379451752,0.9193734526634216,1.2054443359375,-3.41796875,-1.2664794921875
1.2899999,9.8784761428833,-0.21308395266532898,0.8331822156906128,0.6256103515625,-3.4027099609375,-1.5106201171875
1.3099999,9.840168952941895,-0.17717093229293823,0.7541735172271729,-0.9765625,-3.2501220703125,-1.007080078125
1.3299999,9.806650161743164,-0.12928688526153564,0.6967126727104187,-1.28173828125,-2.5177001953125,-0.06103515625
1.3499999,9.787496566772461,-0.09816227108240128,0.6727706789970398,-0.42724609375,-1.2359619140625,0.1220703125
1.3699999,9.787496566772461,-0.08858546614646912,0.6871358752250671,0.3204345703125,-0.9765625,-0.5035400390625
1.3899999,9.797073364257812,-0.0933738648891449,0.730231523513794,0.7781982421875,-1.1138916015625,-1.2969970703125
1.4099999,9.801861763000488,-0.10055647045373917,0.7733271718025208,0.4730224609375,-1.739501953125,-0.762939453125
1.4299998999999999,9.797073364257812,-0.10055647045373917,0.8092401623725891,-0.6561279296875,-3.0517578125,0.701904296875
1.4499999,9.797073364257812,-0.09816227108240128,0.8259995579719543,-0.6866455078125,-3.41796875,0.640869140625
1.4699999,9.78989028930664,-0.0933738648891449,0.8212111592292786,0.9307861328125,-1.739501953125,-1.190185546875
1.4899999,9.792284965515137,-0.0933738648891449,0.7996633648872375,1.190185546875,-1.495361328125,-1.4190673828125
1.5099999,9.78989028930664,-0.09576806426048279,0.7541735172271729,-0.335693359375,-2.9144287109375,0.4730224609375
1.5299999,9.780313491821289,-0.08619125932455063,0.7134721279144287,-1.5716552734375,-2.0904541015625,0.640869140625
1.5499999,9.768342971801758,-0.07422025501728058,0.6751648783683777,-0.8087158203125,-0.518798828125,0.2899169921875
1.5699999,9.758766174316406,-0.06703764945268631,0.6607996821403503,-0.762939453125,-0.946044921875,1.1138916015625
1.5899999,9.75637149810791,-0.06464344263076782,0.6703764796257019,-0.8544921875,-0.9765625,1.2664794921875
1.6099999,9.761159896850586,-0.07182604819536209,0.6991068720817566,-1.5716552734375,-0.640869140625,0.762939453125
1.6299999,9.77791976928711,-0.08858546614646912,0.7469909191131592,-1.922607421875,-0.8087158203125,0.91552734375
1.6499999,9.794678688049316,-0.11013327538967133,0.7876923680305481,-0.7171630859375,-1.129150390625,0.9307861328125
1.6699999,9.816226959228516,-0.1364694982767105,0.8236053586006165,-0.3509521484375,-1.2664794921875,0.5340576171875
1.6899998999999999,9.835380554199219,-0.1604115068912506,0.8379706144332886,-0.7476806640625,-1.007080078125,-0.4730224609375
1.7099999,9.84495735168457,-0.17477671802043915,0.8355764150619507,-1.5716552734375,-1.6326904296875,-0.5340576171875
1.7299999,9.847352027893066,-0.16998831927776337,0.8259995579719543,-2.349853515625,-3.8909912109375,0.54931640625
1.7499999,9.84256362915039,-0.15801730751991272,0.8068459630012512,-0.5645751953125,-2.8533935546875,0.579833984375
1.7699999,9.821015357971191,-0.12210428714752197,0.7876923680305481,0.48828125,-0.6866455078125,-0.762939453125
1.7899999,9.792284965515137,-0.0933738648891449,0.7661445140838623,-0.1983642578125,-0.5950927734375,-0.5035400390625
1.8099999,9.763554573059082,-0.0694318488240242,0.751779317855835,-0.8392333984375,-2.25830078125,0.732421875
1.8299999,9.744400978088379,-0.05506663769483566,0.751779317855835,-1.4801025390625,-3.84521484375,1.6632080078125
1.8499999,9.744400978088379,-0.06224924325942993,0.751779317855835,-0.48828125,-2.8839111328125,0.9765625
1.8699999,9.758766174316406,-0.07900865375995636,0.7589619159698486,0.4425048828125,-1.4801025390625,-0.030517578125
1.8899999,9.780313491821289,-0.10534487664699554,0.7541735172271729,0.06103515625,-1.8768310546875,0.274658203125
1.9099999,9.804255485534668,-0.13407529890537262,0.7469909191131592,-0.7476806640625,-3.0517578125,1.03759765625
1.9299998999999999,9.823410034179688,-0.1628057211637497,0.7350199222564697,-0.4425048828125,-2.38037109375,0.48828125
1.9499999,9.832986831665039,-0.1843535304069519,0.7230489253997803,0,-1.0833740234375,-1.129150390625
1.9699999,9.835380554199219,-0.18914192914962769,0.7158663272857666,-0.4119873046875,-1.922607421875,-0.6866455078125
1.9899999,9.823410034179688,-0.17717093229293823,0.7254431247711182,-0.5950927734375,-2.2735595703125,-0.06103515625
2.0099999,9.806650161743164,-0.15562310814857483,0.7326257228851318,1.1138916015625,-1.0223388671875,-0.9307861328125
2.0299999,9.797073364257812,-0.1388636976480484,0.7493851184844971,-0.946044921875,-2.6092529296875,0.0152587890625
2.0499999,9.78989028930664,-0.12689268589019775,0.751779317855835,-2.01416015625,-4.302978515625,0.457763671875
2.0699999,9.78989028930664,-0.12689268589019775,0.7493851184844971,-0.946044921875,-3.448486328125,-0.18310546875
2.0899999,9.794678688049316,-0.12928688526153564,0.7374141216278076,0.579833984375,-2.4261474609375,-0.0457763671875
2.1099999,9.792284965515137,-0.12928688526153564,0.7206547260284424,1.068115234375,-1.5411376953125,-0.8087158203125
2.1299999,9.797073364257812,-0.12928688526153564,0.6967126727104187,-0.396728515625,-3.1585693359375,0.79345703125
2.1499999,9.797073364257812,-0.12928688526153564,0.6703764796257019,-1.007080078125,-3.3721923828125,0.9918212890625
2.1699999,9.801861763000488,-0.13168109953403473,0.6560112833976746,0.213623046875,-1.2054443359375,-0.30517578125
2.1899999,9.799467086791992,-0.1364694982767105,0.6440402865409851,1.5716552734375,-0.4119873046875,-0.579833984375
2.2099999,9.799467086791992,-0.1412578970193863,0.6440402865409851,0.030517578125,-2.044677734375,-0.0762939453125
2.2299999,9.794678688049316,-0.14604631066322327,0.6392518281936646,-1.46484375,-2.74658203125,1.0833740234375
2.2499999,9.78989028930664,-0.15083470940589905,0.6416460275650024,-1.4801025390625,-1.8463134765625,1.3275146484375
2.2699999,9.797073364257812,-0.15801730751991272,0.6416460275650024,-0.7781982421875,-1.220703125,1.068115234375
2.2899999,9.801861763000488,-0.1604115068912506,0.6512228846549988,0.30517578125,-0.7476806640625,-0.0457763671875
2.3099999,9.81143856048584,-0.17238251864910126,0.6631938815116882,0.7476806640625,-0.152587890625,-0.5645751953125
2.3299999,9.818621635437012,-0.17956513166427612,0.6847416758537292,-0.518798828125,-1.3427734375,0.42724609375
2.3499999,9.816226959228516,-0.17956513166427612,0.6943184733390808,-0.8697509765625,-1.9073486328125,0.30517578125
2.3699999,9.804255485534668,-0.16998831927776337,0.7134721279144287,-0.8697509765625,-2.5634765625,0.7476806640625
2.3899999,9.787496566772461,-0.15322890877723694,0.7182605266571045,0.8392333984375,-1.2969970703125,0.48828125
2.4099999,9.773131370544434,-0.1388636976480484,0.7158663272857666,1.15966796875,-0.7781982421875,-0.274658203125
2.4299999,9.770736694335938,-0.1364694982767105,0.7038952708244324,-0.5950927734375,-2.74658203125,0.518798828125
2.4499999,9.773131370544434,-0.1364694982767105,0.6847416758537292,-1.3275146484375,-2.960205078125,0.8544921875
2.4699999,9.775525093078613,-0.1388636976480484,0.6703764796257019,-0.06103515625,-1.3427734375,0.6103515625
2.4899999,9.77791976928711,-0.1388636976480484,0.667982280254364,0.030517578125,-1.8157958984375,1.2969970703125
2.5099999,9.782708168029785,-0.14604631066322327,0.6775590777397156,0.5950927734375,-2.1514892578125,0.7781982421875
2.5299999,9.785101890563965,-0.1628057211637497,0.689530074596405,1.03759765625,-2.0294189453125,-0.6256103515625
2.5499999,9.797073364257812,-0.181959331035614,0.6967126727104187,-0.091552734375,-3.631591796875,0.5950927734375
2.5699999,9.806650161743164,-0.19871874153614044,0.6943184733390808,-1.2664794921875,-4.3792724609375,2.0599365234375
2.5899999,9.81143856048584,-0.20350714027881622,0.6823474764823914,0.396728515625,-2.2125244140625,0.946044921875
2.6099999,9.818621635437012,-0.20350714027881622,0.6751648783683777,0.885009765625,-1.6937255859375,-0.2899169921875
2.6299999,9.823410034179688,-0.20350714027881622,0.6631938815116882,1.3580322265625,-2.6397705078125,-0.2288818359375
2.6499999,9.825803756713867,-0.2082955539226532,0.6512228846549988,0.091552734375,-3.5858154296875,-0.1678466796875
2.6699999,9.828198432922363,-0.22026655077934265,0.6344634294509888,-0.8392333984375,-3.4942626953125,0.1068115234375
2.6899999,9.823410034179688,-0.2298433631658554,0.6153098344802856,-1.434326171875,-4.119873046875,0.5340576171875
2.7099999,9.816226959228516,-0.2346317619085312,0.5937620401382446,0.18310546875,-2.9296875,0.2288818359375
2.7299999,9.80904483795166,-0.22266076505184174,0.5770025849342346,0.885009765625,-1.8768310546875,-0.518798828125
2.7499999,9.799467086791992,-0.21308395266532898,0.5650315880775452,0.518798828125,-1.373291015625,0.06103515625
2.7699999,9.801861763000488,-0.2082955539226532,0.5626373887062073,0.6256103515625,0.396728515625,2.3956298828125
2.7899999,9.799467086791992,-0.21308395266532898,0.569819986820221,1.8157958984375,2.8076171875,4.21142578125
2.8099999,9.80904483795166,-0.2298433631658554,0.5889736413955688,-0.0457763671875,-2.44140625,1.434326171875
2.8299999,9.813833236694336,-0.24420857429504395,0.6105214357376099,-0.1220703125,-2.8228759765625,-0.091552734375
2.8499999,9.816226959228516,-0.2513911724090576,0.6272808313369751,1.8463134765625,-1.129150390625,-1.251220703125
2.8699999,9.81143856048584,-0.24181437492370605,0.6224924325942993,2.349853515625,-0.9002685546875,-1.5716552734375
2.8899999,9.806650161743164,-0.2322375625371933,0.6105214357376099,0.0457763671875,-1.617431640625,-0.4730224609375
2.9099999,9.797073364257812,-0.22505496442317963,0.5841852426528931,-1.1444091796875,-2.471923828125,0.701904296875
2.9299999,9.797073364257812,-0.22026655077934265,0.5674257874488831,-0.9765625,-2.3345947265625,0.7476806640625
2.9499999,9.801861763000488,-0.2322375625371933,0.5506663918495178,1.1138916015625,-1.0986328125,0.06103515625
2.9699999,9.818621635437012,-0.23942017555236816,0.5386953949928284,1.3427734375,-0.1678466796875,-1.1444091796875
2.9899999,9.830592155456543,-0.2513911724090576,0.5147533416748047,-0.457763671875,-0.1068115234375,-0.579833984375
3.0099999,9.84256362915039,-0.2561795711517334,0.5003881454467773,-2.0904541015625,-0.8392333984375,1.03759765625
3.0299999,9.84256362915039,-0.2561795711517334,0.5003881454467773,-1.007080078125,0.2899169921875,0.6256103515625
3.0499999,9.830592155456543,-0.24899697303771973,0.5195417404174805,0.5035400390625,1.8157958984375,-0.8087158203125
3.0699999,9.816226959228516,-0.24181437492370605,0.545877993106842,-0.48828125,0.640869140625,0.335693359375
3.0899999,9.799467086791992,-0.22744916379451752,0.5770025849342346,-1.7547607421875,0.152587890625,0.6256103515625
3.1099999,9.785101890563965,-0.21787235140800476,0.6105214357376099,-1.556396484375,1.28173828125,0.2899169921875
3.1299999,9.773131370544434,-0.2082955539226532,0.6560112833976746,-0.8087158203125,0.1068115234375,1.03759765625
3.1499999,9.770736694335938,-0.2082955539226532,0.6967126727104187,-0.213623046875,-0.8697509765625,0.6561279296875
3.1699999,9.773131370544434,-0.21547815203666687,0.7422025203704834,-0.2288818359375,-0.4730224609375,-0.1220703125
3.1899999,9.782708168029785,-0.22505496442317963,0.7733271718025208,0.335693359375,-0.3814697265625,-0.5035400390625
3.2099999,9.792284965515137,-0.2322375625371933,0.7924807667732239,0.701904296875,-2.0751953125,0.213623046875
3.2299999,9.806650161743164,-0.23702596127986908,0.7852981686592102,1.495361328125,-3.0059814453125,-0.1220703125
3.2499999,9.813833236694336,-0.2346317619085312,0.7589619159698486,0.6866455078125,-2.1514892578125,-1.434326171875
3.2699999,9.816226959228516,-0.23702596127986908,0.7110779285430908,-0.762939453125,-2.838134765625,-0.06103515625
3.2899999,9.813833236694336,-0.23702596127986908,0.6512228846549988,0.0457763671875,-2.838134765625,0.9002685546875
3.3099999,9.813833236694336,-0.24899697303771973,0.5913678407669067,0.8392333984375,-2.4261474609375,0.5645751953125
3.3299999000000002,9.816226959228516,-0.2561795711517334,0.5410895943641663,0.9918212890625,-0.42724609375,-1.3427734375
3.3499999,9.818621635437012,-0.26096799969673157,0.5099649429321289,0.0762939453125,0.518798828125,-1.2054443359375
3.3699999,9.81143856048584,-0.2537853717803955,0.5003881454467773,-0.9918212890625,-1.0986328125,1.0986328125
3.3899999,9.804255485534668,-0.24660277366638184,0.5195417404174805,-0.9613037109375,-1.251220703125,1.6021728515625
3.4099999,9.799467086791992,-0.24181437492370605,0.5554547905921936,0.0152587890625,0.2899169921875,0.1678466796875
3.4299999,9.794678688049316,-0.23942017555236816,0.6009446382522583,0,0.4119873046875,-0.0457763671875
3.4499999,9.794678688049316,-0.24420857429504395,0.6392518281936646,0.091552734375,-0.3509521484375,0.640869140625
3.4699999,9.78989028930664,-0.23702596127986908,0.6799532771110535,-0.762939453125,-1.5106201171875,0.67138671875
3.4899999,9.782708168029785,-0.2322375625371933,0.7134721279144287,-0.2593994140625,-1.5869140625,0.5950927734375
3.5099999,9.782708168029785,-0.22505496442317963,0.7445967197418213,0.5340576171875,-1.64794921875,0.274658203125
3.5299999,9.78989028930664,-0.2346317619085312,0.7565677165985107,0.8544921875,-2.197265625,0.091552734375
3.5499999,9.806650161743164,-0.2537853717803955,0.7469909191131592,1.3580322265625,-1.7852783203125,-0.9918212890625
3.5699999,9.828198432922363,-0.2849099934101105,0.7158663272857666,0.640869140625,-2.899169921875,-0.48828125
3.5899999,9.84256362915039,-0.30885201692581177,0.6631938815116882,0.9307861328125,-3.11279296875,-0.2288818359375
3.6099999,9.849745750427246,-0.3232172429561615,0.6033388376235962,1.2054443359375,-2.044677734375,-1.0223388671875
3.6299999,9.854534149169922,-0.3256114423274994,0.5434837937355042,0.2288818359375,-1.6021728515625,-0.579833984375
3.6499999,9.847352027893066,-0.31842881441116333,0.49799394607543945,-0.3814697265625,-0.7171630859375,-0.4730224609375
3.6699999,9.84256362915039,-0.3016694188117981,0.47884035110473633,-0.3509521484375,-0.42724609375,-0.1373291015625
3.6899999,9.832986831665039,-0.2849099934101105,0.4884171485900879,-0.4425048828125,-0.6103515625,0.0152587890625
3.7099999,9.816226959228516,-0.26575639843940735,0.5219359993934631,-0.06103515625,0.3662109375,-1.007080078125
3.7299999,9.806650161743164,-0.24420857429504395,0.5674257874488831,-0.091552734375,0.335693359375,-0.885009765625
3.7499999,9.797073364257812,-0.22505496442317963,0.608127236366272,-0.6103515625,-0.30517578125,-0.1068115234375
3.7699999,9.782708168029785,-0.20350714027881622,0.6488286852836609,-0.946044921875,-0.5035400390625,-0.1373291015625
3.7899999,9.773131370544434,-0.19153612852096558,0.6823474764823914,-0.701904296875,-1.007080078125,0.54931640625
3.8099999,9.763554573059082,-0.19153612852096558,0.7134721279144287,0.518798828125,-0.7781982421875,0.18310546875
3.8299999000000002,9.765948295593262,-0.2082955539226532,0.727837324142456,1.0833740234375,-1.007080078125,-0.67138671875
3.8499999,9.780313491821289,-0.2346317619085312,0.730231523513794,0.091552734375,-2.38037109375,-0.3814697265625
3.8699999,9.799467086791992,-0.2561795711517334,0.7015010714530945,-0.732421875,-3.1890869140625,0.274658203125
3.8899999,9.821015357971191,-0.272938996553421,0.667982280254364,-0.8544921875,-2.410888671875,0.457763671875
3.9099999,9.835380554199219,-0.2777273952960968,0.6272808313369751,0.91552734375,-0.7171630859375,-0.5645751953125
3.9299999,9.835380554199219,-0.2753331959247589,0.5961562395095825,2.01416015625,-0.2288818359375,-1.7242431640625
3.9499999,9.832986831665039,-0.27054479718208313,0.5770025849342346,0.54931640625,-1.28173828125,-0.732421875
3.9699999,9.818621635437012,-0.2585737705230713,0.5626373887062073,-0.4425048828125,-1.251220703125,0.244140625
3.9899999,9.80904483795166,-0.24660277366638184,0.5650315880775452,-0.091552734375,0.335693359375,-0.3509521484375
4.0099999,9.799467086791992,-0.2322375625371933,0.5817909836769104,0.7476806640625,0.5035400390625,-0.518798828125
4.029999900000001,9.787496566772461,-0.22266076505184174,0.6153098344802856,0.4425048828125,-0.9765625,0.0152587890625
4.0499999,9.780313491821289,-0.21547815203666687,0.646434485912323,-0.30517578125,-2.01416015625,0.5340576171875
4.069999900000001,9.77791976928711,-0.21308395266532898,0.6703764796257019,-0.79345703125,-2.044677734375,0.640869140625
4.0899999000000005,9.787496566772461,-0.22026655077934265,0.6775590777397156,0.396728515625,-1.2664794921875,0.18310546875
4.1099999,9.799467086791992,-0.22744916379451752,0.6727706789970398,1.434326171875,-0.4425048828125,-0.946044921875
4.1299999000000005,9.80904483795166,-0.23702596127986908,0.6584054827690125,1.312255859375,-0.4119873046875,-1.0528564453125
4.1499999,9.804255485534668,-0.2346317619085312,0.6416460275650024,-0.4425048828125,-1.3885498046875,0.1678466796875
4.1699999000000005,9.797073364257812,-0.23942017555236816,0.6272808313369751,-1.1749267578125,-2.0751953125,1.52587890625
4.1899999,9.78989028930664,-0.24181437492370605,0.6200982332229614,-0.396728515625,-1.6632080078125,0.8697509765625
4.209999900000001,9.799467086791992,-0.2537853717803955,0.6248866319656372,0.8087158203125,-0.91552734375,-0.335693359375
4.2299999,9.806650161743164,-0.26575639843940735,0.6320692300796509,1.007080078125,-0.5340576171875,-1.007080078125
4.249999900000001,9.813833236694336,-0.26096799969673157,0.6440402865409851,-0.213623046875,-1.434326171875,-0.396728515625
4.2699999,9.80904483795166,-0.24660277366638184,0.6512228846549988,-0.732421875,-2.2735595703125,0.6561279296875
4.289999900000001,9.799467086791992,-0.2298433631658554,0.6607996821403503,-0.396728515625,-2.288818359375,0.885009765625
4.3099999,9.794678688049316,-0.22505496442317963,0.6655880808830261,0.9765625,-1.861572265625,-0.0152587890625
4.329999900000001,9.794678688049316,-0.2322375625371933,0.6655880808830261,1.1749267578125,-1.9073486328125,-0.9307861328125
4.3499999,9.804255485534668,-0.24899697303771973,0.646434485912323,0.79345703125,-1.8310546875,-0.152587890625
4.369999900000001,9.806650161743164,-0.26096799969673157,0.6272808313369751,-0.1678466796875,-1.800537109375,0.3204345703125
4.3899999,9.813833236694336,-0.26815059781074524,0.6057330369949341,-0.213623046875,-2.1820068359375,0.4730224609375
4.409999900000001,9.81143856048584,-0.26096799969673157,0.6033388376235962,-0.274658203125,-2.7313232421875,0.5950927734375
4.4299999,9.806650161743164,-0.2561795711517334,0.6033388376235962,1.3885498046875,-1.52587890625,-0.1220703125
4.449999900000001,9.799467086791992,-0.24899697303771973,0.6153098344802856,1.068115234375,-1.4801025390625,-0.213623046875
4.4699999,9.794678688049316,-0.2513911724090576,0.608127236366272,0.9002685546875,-2.1209716796875,0.2593994140625
4.489999900000001,9.78989028930664,-0.2585737705230713,0.5961562395095825,-0.152587890625,-2.227783203125,0.152587890625
4.5099999,9.792284965515137,-0.26575639843940735,0.5746083855628967,-0.6103515625,-2.0294189453125,0.4425048828125
4.529999900000001,9.797073364257812,-0.27054479718208313,0.5602431893348694,-0.3204345703125,-1.4801025390625,0.9765625
4.5499999,9.80904483795166,-0.2753331959247589,0.5506663918495178,0.457763671875,-0.701904296875,0.274658203125
4.569999900000001,9.821015357971191,-0.2825157940387726,0.5578489899635315,0.1373291015625,-0.518798828125,-0.2288818359375
4.5899999000000005,9.835380554199219,-0.29209262132644653,0.5722141861915588,0.5950927734375,-0.4425048828125,-0.579833984375
4.609999900000001,9.84256362915039,-0.3064578175544739,0.586579442024231,-0.1068115234375,-1.3885498046875,-0.2593994140625
4.6299999000000005,9.847352027893066,-0.31364041566848755,0.5961562395095825,-1.2969970703125,-2.4261474609375,0.48828125
4.6499999,9.837775230407715,-0.31364041566848755,0.5937620401382446,-0.91552734375,-1.7547607421875,0.213623046875
4.6699999000000005,9.832986831665039,-0.30885201692581177,0.5913678407669067,-0.579833984375,-0.91552734375,-0.5645751953125
4.6899999,9.821015357971191,-0.2968810200691223,0.586579442024231,-0.1983642578125,-0.579833984375,-1.0833740234375
4.709999900000001,9.813833236694336,-0.28730419278144836,0.5913678407669067,-0.2288818359375,-0.9765625,-0.3509521484375
4.7299999,9.80904483795166,-0.2801215946674347,0.5937620401382446,-0.4730224609375,-1.3275146484375,0.30517578125
4.749999900000001,9.804255485534668,-0.2753331959247589,0.5961562395095825,-0.30517578125,-0.5340576171875,-0.6256103515625
4.7699999,9.80904483795166,-0.2753331959247589,0.6009446382522583,-0.4730224609375,-0.5340576171875,-0.6866455078125
4.789999900000001,9.816226959228516,-0.2753331959247589,0.6033388376235962,-0.18310546875,-1.3275146484375,-0.5340576171875
4.8099999,9.818621635437012,-0.27054479718208313,0.608127236366272,0.79345703125,-0.5035400390625,-0.9918212890625
4.829999900000001,9.821015357971191,-0.26815059781074524,0.6105214357376099,0,-0.9765625,-0.3662109375
4.8499999,9.81143856048584,-0.26336219906806946,0.6009446382522583,-0.1983642578125,-0.701904296875,-0.274658203125
4.869999900000001,9.801861763000488,-0.26096799969673157,0.586579442024231,-0.030517578125,0.1373291015625,-0.6561279296875
4.8899999,9.792284965515137,-0.2561795711517334,0.5722141861915588,-0.6866455078125,-0.8087158203125,-0.457763671875
4.909999900000001,9.78989028930664,-0.2537853717803955,0.5650315880775452,-1.77001953125,-2.0599365234375,0.457763671875
4.9299999,9.797073364257812,-0.2561795711517334,0.5602431893348694,-0.7171630859375,-0.6866455078125,0.5340576171875
4.949999900000001,9.806650161743164,-0.26096799969673157,0.5674257874488831,-0.457763671875,0.6256103515625,-0.732421875
4.9699999,9.816226959228516,-0.27054479718208313,0.5817909836769104,-0.3662109375,0.79345703125,-0.823974609375
4.989999900000001,9.80904483795166,-0.26815059781074524,0.6105214357376099,-0.030517578125,0.030517578125,-0.396728515625
5.0099999,9.794678688049316,-0.2537853717803955,0.646434485912323,-0.762939453125,-1.3885498046875,0.335693359375
5.029999900000001,9.775525093078613,-0.22744916379451752,0.689530074596405,-0.67138671875,-1.312255859375,-0.030517578125
5.0499999,9.765948295593262,-0.20111294090747833,0.7326257228851318,0.3204345703125,-1.3885498046875,-0.1678466796875
5.069999900000001,9.75397777557373,-0.17477671802043915,0.7829039692878723,1.8310546875,-1.8310546875,-0.0152587890625
5.0899999000000005,9.732429504394531,-0.15562310814857483,0.8379706144332886,3.47900390625,-1.9989013671875,-0.67138671875
5.109999900000001,9.684545516967773,-0.12689268589019775,0.9097966551780701,2.899169921875,-5.3253173828125,0
5.1299999000000005,9.612719535827637,-0.08858546614646912,1.0079588890075684,4.7454833984375,-6.683349609375,0.5340576171875
5.1499999,9.548076629638672,-0.033518824726343155,1.115697979927063,8.6517333984375,-7.720947265625,2.9754638671875
5.1699999000000005,9.53849983215332,-0.040701430290937424,1.256955862045288,13.1683349609375,-5.218505859375,12.5732421875
5.1899999,9.667786598205566,-0.08140286058187485,1.3862427473068237,19.256591796875,-4.5623779296875,14.495849609375
5.209999900000001,10.02691650390625,-0.1628057211637497,1.4915876388549805,21.6064453125,-18.280029296875,7.01904296875
5.2299999,10.714052200317383,-0.31603461503982544,1.577778935432434,27.52685546875,-26.458740234375,6.7596435546875
5.249999900000001,11.817779541015625,-0.6536170840263367,1.7070658206939697,49.0264892578125,-19.683837890625,6.0272216796875
5.2699999,13.275848388671875,-1.2976573705673218,1.987187385559082,99.456787109375,10.162353515625,-1.40380859375
5.289999900000001,14.999673843383789,-2.4660277366638184,2.470816135406494,173.370361328125,56.427001953125,-4.5928955078125
5.3099999,16.962919235229492,-4.405331134796143,3.3949780464172363,245.758056640625,94.5587158203125,-18.035888671875
5.329999900000001,18.871097564697266,-7.010222434997559,4.9368438720703125,341.217041015625,143.4173583984375,-59.4024658203125
5.3499999,20.17354393005371,-9.737217903137207,6.955155849456787,465.057373046875,193.2830810546875,-109.2071533203125
5.369999900000001,20.2956485748291,-12.105083465576172,9.244012832641602,498.4283447265625,193.2830810546875,-159.8968505859375
5.3899999,18.63886070251465,-13.26866626739502,10.845733642578125,498.2147216796875,79.376220703125,-182.586669921875
5.409999900000001,15.145719528198242,-12.94305419921875,10.606313705444336,369.659423828125,-174.7894287109375,-180.450439453125
5.4299999,10.146626472473145,-11.042057991027832,7.481880187988281,167.572021484375,-376.3427734375,-196.71630859375
5.449999900000001,3.8977603912353516,-7.3669586181640625,0.9361328482627869,13.885498046875,-436.981201171875,-230.40771484375
5.4699999,-3.4572272300720215,-1.335964560508728,-9.30386734008789,0.2899169921875,-321.1212158203125,-233.2305908203125
5.489999900000001,-11.346121788024902,6.162675380706787,-21.21502113342285,12.664794921875,-110.04638671875,-156.402587890625
5.5099999,-18.725051879882812,13.721169471740723,-31.500511169433594,-150.665283203125,43.212890625,22.125244140625
5.529999900000001,-24.12158203125,18.995595932006836,-36.731842041015625,-296.2493896484375,133.8958740234375,186.0198974609375
5.5499999,-25.598804473876953,19.606117248535156,-35.031959533691406,-223.69384765625,198.7457275390625,318.8323974609375
5.569999900000001,-22.505495071411133,14.961366653442383,-26.06088638305664,-157.318115234375,267.1966552734375,363.7542724609375
5.5899999000000005,-15.267824172973633,5.880159378051758,-11.250353813171387,-182.2967529296875,357.0404052734375,274.1851806640625
5.609999900000001,-4.292803764343262,-6.260837554931641,7.546523571014404,-143.585205078125,338.5467529296875,182.1136474609375
5.6299999000000005,7.644686222076416,-17.824831008911133,27.8924503326416,-104.736328125,138.8702392578125,106.5216064453125
5.6499999,17.43697166442871,-25.491065979003906,41.841068267822266,138.336181640625,-266.66259765625,-0.0762939453125
5.6699999000000005,23.307554244995117,-28.00018882751465,47.51054000854492,141.876220703125,-500,-47.3785400390625
5.6899999,23.537397384643555,-24.7344970703125,41.44123840332031,93.719482421875,-389.2059326171875,-105.5755615234375
5.709999900000001,19.349937438964844,-18.23423957824707,27.684154510498047,165.6341552734375,-142.8985595703125,-170.7305908203125
5.7299999,12.926295280456543,-11.23598861694336,12.057199478149414,174.86572265625,-86.3800048828125,-162.872314453125
5.749999900000001,6.385335922241211,-5.125985622406006,-1.0414776802062988,100.6622314453125,-115.4327392578125,-131.256103515625
5.7699999,1.0630255937576294,-0.3663128614425659,-9.80904483795166,9.21630859375,-138.275146484375,-107.7423095703125
5.789999900000001,-2.698265314102173,3.3494882583618164,-14.403517723083496,-42.724609375,-155.57861328125,-89.41650390625
5.8099999,-5.66228723526001,7.103596210479736,-16.500837326049805,-46.8292236328125,-169.43359375,-78.857421875
5.829999900000001,-8.35336971282959,11.583148002624512,-17.659631729125977,-56.1370849609375,-137.298583984375,-26.2603759765625
5.8499999,-11.396400451660156,16.321273803710938,-18.207904815673828,-152.8472900390625,-60.0128173828125,90.9881591796875
5.869999900000001,-14.362815856933594,20.503942489624023,-18.4257755279541,-119.56787109375,42.78564453125,231.9488525390625
5.8899999,-15.67962646484375,21.81357192993164,-17.515979766845703,-6.5460205078125,133.026123046875,390.4876708984375
5.909999900000001,-13.941436767578125,18.557456970214844,-15.112200736999512,-5.279541015625,144.3023681640625,499.9847412109375
5.9299999,-7.395689010620117,9.421183586120605,-10.108319282531738,5.1727294921875,236.1297607421875,473.5107421875
5.949999900000001,3.421314239501953,-4.256890773773193,-2.1475989818573,120.7733154296875,389.83154296875,257.843017578125
5.9699999,17.118541717529297,-19.73540496826172,9.244012832641602,74.15771484375,267.1356201171875,24.505615234375
5.989999900000001,28.5484619140625,-31.4215030670166,20.377050399780273,-69.2138671875,-116.0736083984375,-150.9857177734375
6.0099999,34.9385871887207,-36.69593048095703,27.82062339782715,45.0439453125,-317.7032470703125,-229.55322265625
6.029999900000001,33.83485794067383,-34.13652801513672,28.682537078857422,142.3797607421875,-226.74560546875,-283.26416015625
6.0499999,26.43916893005371,-26.266786575317383,22.78561782836914,137.603759765625,-177.642822265625,-300.628662109375
6.069999900000001,15.64371395111084,-16.479290008544922,12.99812126159668,102.508544921875,-193.0694580078125,-281.25
6.0899999000000005,4.1156325340271,-6.8043212890625,2.075772762298584,88.0889892578125,-186.9964599609375,-267.913818359375
6.109999900000001,-6.452373504638672,2.63362193107605,-9.023746490478516,118.0419921875,-143.37158203125,-237.8997802734375
6.1299999000000005,-15.358803749084473,11.42752456665039,-19.524715423583984,100.799560546875,-22.9949951171875,-127.5634765625
6.149999900000001,-22.05059814453125,18.9022216796875,-27.837383270263672,-83.740234375,114.2578125,50.994873046875
6.1699999000000005,-26.25960350036621,23.81751823425293,-32.055965423583984,-231.1859130859375,189.7430419921875,206.512451171875
6.1899999,-27.442338943481445,24.260446548461914,-30.411149978637695,-193.66455078125,233.8104248046875,330.87158203125
6.209999900000001,-24.389732360839844,19.055450439453125,-22.49591827392578,-55.5572509765625,286.102294921875,450.439453125
6.2299999,-16.970102310180664,8.595184326171875,-9.006986618041992,37.1551513671875,395.93505859375,406.67724609375
6.249999900000001,-5.614402770996094,-4.855441093444824,8.037335395812988,39.947509765625,390.4571533203125,220.672607421875
6.2699999,7.898471355438232,-18.66280174255371,26.49423599243164,-55.145263671875,98.5107421875,87.6617431640625
6.289999900000001,19.637243270874023,-27.969064712524414,39.18829345703125,132.32421875,-228.302001953125,14.6942138671875
6.3099999,27.372907638549805,-31.88837242126465,44.20893478393555,218.20068359375,-351.6845703125,-37.1246337890625
6.329999900000001,28.749574661254883,-29.867666244506836,38.22582244873047,188.5833740234375,-222.16796875,-154.2816162109375
6.3499999,24.210166931152344,-24.36339569091797,24.219743728637695,170.34912109375,-180.9234619140625,-226.8218994140625
6.369999900000001,15.33725643157959,-16.972496032714844,7.038952827453613,86.6241455078125,-206.1614990234375,-204.5440673828125
6.3899999,4.8051629066467285,-9.191340446472168,-9.619902610778809,5.523681640625,-152.0538330078125,-154.449462890625
6.409999900000001,-5.353435039520264,-1.7190368175506592,-23.484724044799805,-67.7337646484375,-22.4456787109375,-74.188232421875
6.4299999,-12.691662788391113,4.817133903503418,-32.652122497558594,-245.7733154296875,75.6683349609375,22.3236083984375
6.449999900000001,-16.11058235168457,9.210494041442871,-36.06864929199219,-490.9820556640625,65.643310546875,153.01513671875
6.4699999,-15.093047142028809,11.168951034545898,-33.705570220947266,-496.8109130859375,-57.31201171875,327.08740234375
6.489999900000001,-9.93354320526123,9.962273597717285,-26.333824157714844,-495.4071044921875,-122.55859375,470.489501953125
6.5099999,-1.015141487121582,4.90571928024292,-14.915876388549805,-374.3438720703125,16.9525146484375,446.83837890625
6.529999900000001,10.249577522277832,-3.6990416049957275,-1.9943699836730957,-84.3353271484375,147.216796875,247.1466064453125
6.5499999,21.51429557800293,-14.678850173950195,12.279860496520996,-59.2803955078125,144.8516845703125,-18.5546875
6.569999900000001,29.915550231933594,-24.035390853881836,24.952369689941406,-11.749267578125,91.61376953125,-251.28173828125
6.5899999000000005,32.300174713134766,-28.392837524414062,33.78218460083008,217.7886962890625,37.445068359375,-376.9073486328125
6.609999900000001,27.58599281311035,-26.285940170288086,37.25138473510742,338.1805419921875,-34.9273681640625,-361.8316650390625
6.6299999000000005,17.214309692382812,-19.704280853271484,33.873165130615234,430.938720703125,-130.035400390625,-185.546875
6.649999900000001,4.932055473327637,-12.988544464111328,24.444799423217773,499.2218017578125,-246.7803955078125,26.67236328125
6.6699999000000005,-5.061342239379883,-9.478644371032715,10.5344877243042,493.438720703125,-218.8873291015625,110.9161376953125
6.6899999,-10.204087257385254,-10.165780067443848,-5.066130638122559,366.2872314453125,-94.9859619140625,56.060791015625
6.709999900000001,-9.763554573059082,-13.807361602783203,-19.33078384399414,198.05908203125,20.08056640625,15.1824951171875
6.7299999,-5.051765441894531,-17.961301803588867,-29.472623825073242,77.45361328125,98.3428955078125,-13.73291015625
6.749999900000001,1.6950948238372803,-20.372262954711914,-33.89950180053711,-12.4359130859375,200.5767822265625,-72.235107421875
6.7699999,8.070854187011719,-19.658790588378906,-32.99688720703125,-58.2427978515625,218.1549072265625,-137.5885009765625
6.789999900000001,12.483367919921875,-15.121777534484863,-28.411991119384766,-96.649169921875,160.0189208984375,-151.91650390625
6.8099999,13.797784805297852,-7.189787864685059,-22.41451644897461,-95.9320068359375,138.48876953125,-127.99072265625
6.829999900000001,12.231976509094238,2.27209734916687,-16.33563804626465,-169.49462890625,153.411865234375,-90.51513671875
6.8499999,8.667010307312012,11.200075149536133,-10.611102104187012,-300.4913330078125,124.0386962890625,-6.8511962890625
6.869999900000001,4.256890773773193,17.278953552246094,-4.994304656982422,-251.4190673828125,131.561279296875,55.755615234375
6.8899999,0.43335050344467163,19.033903121948242,1.3934253454208374,-70.98388671875,280.7464599609375,89.3402099609375
6.909999900000001,-1.5155296325683594,15.722723007202148,10.316615104675293,-48.431396484375,345.5963134765625,120.78857421875
6.9299999,-1.1516109704971313,8.030152320861816,22.402545928955078,-138.092041015625,160.5682373046875,72.967529296875
6.949999900000001,1.7860745191574097,-1.8842366933822632,34.42143630981445,58.502197265625,-90.5303955078125,7.1868896484375
6.9699999,6.0621185302734375,-11.882423400878906,42.918460845947266,289.4439697265625,-302.8106689453125,-5.6915283203125
6.989999900000001,10.453084945678711,-19.80722999572754,44.132320404052734,272.4456787109375,-383.9111328125,-54.01611328125
7.0099999,13.103466033935547,-24.13355255126953,36.58340072631836,234.4970703125,-332.1685791015625,-185.2874755859375
7.029999900000001,12.840104103088379,-25.127147674560547,23.597251892089844,162.811279296875,-335.5712890625,-255.67626953125
7.0499999,9.131484985351562,-22.931663513183594,8.681375503540039,106.9793701171875,-384.3841552734375,-267.913818359375
7.069999900000001,3.0190882682800293,-17.398664474487305,-6.023811340332031,94.4976806640625,-381.4697265625,-249.08447265625
7.0899999000000005,-4.656722068786621,-8.65982723236084,-20.329166412353516,67.93212890625,-276.67236328125,-210.0830078125
7.109999900000001,-11.892000198364258,1.8842366933822632,-33.288978576660156,-30.548095703125,-72.6470947265625,-120.9564208984375
7.1299999000000005,-17.264589309692383,12.160150527954102,-41.934444427490234,-258.209228515625,121.2158203125,12.5274658203125
7.149999900000001,-20.128053665161133,19.584569931030273,-44.82903289794922,-328.2928466796875,203.338623046875,118.83544921875
7.1699999000000005,-19.86708641052246,21.890186309814453,-39.94007110595703,-275.360107421875,234.710693359375,217.9412841796875
7.1899999,-16.443376541137695,18.693927764892578,-28.43832778930664,-206.1309814453125,285.980224609375,283.38623046875
7.209999900000001,-10.57040023803711,11.063606262207031,-12.258312225341797,-106.719970703125,418.8232421875,254.57763671875
7.2299999,-2.9305028915405273,0.6871358752250671,7.0341644287109375,-34.6832275390625,475.9674072265625,167.5872802734375
7.249999900000001,5.1116204261779785,-10.017339706420898,27.789499282836914,-118.560791015625,145.8740234375,58.8836669921875
7.2699999,11.889605522155762,-17.92538833618164,43.38772201538086,32.5469970703125,-288.909912109375,-7.2021484375
7.289999900000001,16.27817726135254,-22.36184310913086,51.09944534301758,199.7833251953125,-484.80224609375,-36.68212890625
7.3099999,17.116147994995117,-22.436063766479492,47.771507263183594,180.23681640625,-401.5655517578125,-113.128662109375
7.329999900000001,14.417882919311523,-19.464859008789062,35.21870803833008,202.57568359375,-295.34912109375,-191.4215087890625
7.3499999,8.71728801727295,-14.808137893676758,18.334796905517578,204.2236328125,-296.173095703125,-170.7000732421875
7.369999900000001,1.522712230682373,-8.671798706054688,0.7493851184844971,130.6304931640625,-307.830810546875,-150.4058837890625
7.3899999,-5.990292549133301,-1.0965443849563599,-15.574281692504883,22.5830078125,-233.2000732421875,-141.876220703125
7.409999900000001,-12.662932395935059,7.532158374786377,-29.793445587158203,-4.4708251953125,-59.7381591796875,-71.563720703125
7.4299999,-17.415422439575195,15.581464767456055,-39.26251220703125,-87.8143310546875,149.71923828125,84.89990234375
7.449999900000001,-19.80244255065918,20.894197463989258,-42.796356201171875,-169.86083984375,268.7835693359375,221.6339111328125
7.4699999,-19.242198944091797,21.44725799560547,-39.44207763671875,-176.1474609375,282.04345703125,291.07666015625
7.489999900000001,-15.46175479888916,16.53435707092285,-29.41276741027832,-161.5142822265625,286.8804931640625,291.4886474609375
7.5099999,-8.257601737976074,6.4380083084106445,-13.407529830932617,-83.06884765625,395.355224609375,260.833740234375
7.529999900000001,1.2449848651885986,-5.559336185455322,5.659893035888672,52.3223876953125,452.728271484375,135.3302001953125
7.5499999,11.370063781738281,-17.43697166442871,25.972299575805664,-80.2001953125,83.343505859375,-22.9644775390625
7.569999900000001,19.740192413330078,-24.92603302001953,39.949649810791016,0.0152587890625,-374.7711181640625,-116.69921875
7.5899999000000005,23.87737274169922,-27.20531463623047,45.20970916748047,95.6268310546875,-500,-149.7650146484375
7.609999900000001,23.003490447998047,-24.23171615600586,39.329551696777344,96.343994140625,-343.1243896484375,-181.7474365234375
7.6299999000000005,17.61174774169922,-18.114530563354492,25.560497283935547,120.208740234375,-227.8289794921875,-233.7799072265625
7.649999900000001,9.17936897277832,-10.211270332336426,8.190564155578613,124.9542236328125,-199.371337890625,-240.8294677734375
7.6699999000000005,-0.06224924325942993,-0.8858546018600464,-9.287108421325684,98.8006591796875,-143.341064453125,-212.70751953125
7.6899999,-9.069235801696777,8.860940933227539,-24.655488967895508,-35.858154296875,-44.6014404296875,-123.7030029296875
7.709999900000001,-15.91425895690918,17.908628463745117,-35.383907318115234,-181.09130859375,72.5250244140625,48.0499267578125
7.7299999,-19.965248107910156,24.028207778930664,-39.75093078613281,-183.441162109375,191.131591796875,202.3773193359375
7.749999900000001,-20.599712371826172,25.012226104736328,-37.00957107543945,-108.917236328125,272.430419921875,299.37744140625
7.7699999,-17.365144729614258,19.950881958007812,-27.243621826171875,-102.9510498046875,313.4918212890625,346.099853515625
7.789999900000001,-10.910377502441406,9.655815124511719,-11.417947769165039,-23.4375,454.833984375,294.7998046875
7.8099999,-2.33913516998291,-2.5306711196899414,7.386112213134766,119.781494140625,464.9505615234375,139.0533447265625
7.829999900000001,6.358999729156494,-14.381969451904297,27.77513313293457,-48.0194091796875,86.2579345703125,27.3895263671875
7.8499999,12.97657299041748,-21.368249893188477,41.474754333496094,74.9359130859375,-308.9141845703125,-49.6368408203125
7.869999900000001,16.488866806030273,-23.75048065185547,46.284706115722656,237.1673583984375,-477.72216796875,-31.55517578125
7.8899999,16.194379806518555,-21.406557083129883,39.832332611083984,219.696044921875,-311.676025390625,-63.65966796875
7.909999900000001,12.880805015563965,-16.548721313476562,24.995466232299805,216.6748046875,-177.24609375,-130.1116943359375
7.9299999,7.6351094245910645,-10.251971244812012,6.497863292694092,248.6114501953125,-101.318359375,-124.8779296875
7.949999900000001,1.8746598958969116,-3.361459255218506,-11.192893028259277,215.63720703125,11.2457275390625,-87.34130859375
7.9699999,-3.469198226928711,3.469198226928711,-25.419239044189453,57.6171875,109.9700927734375,-42.8924560546875
7.989999900000001,-7.242460250854492,9.399636268615723,-33.995269775390625,-83.2366943359375,158.26416015625,37.7655029296875
8.0099999,-9.157821655273438,12.926295280456543,-35.88908386230469,-75.897216796875,259.521484375,143.402099609375
8.0299999,-8.956708908081055,12.950237274169922,-32.010475158691406,-49.407958984375,302.8106689453125,198.822021484375
8.049999900000001,-6.387730121612549,8.791508674621582,-23.788787841796875,-133.819580078125,275.9552001953125,246.8719482421875
8.069999900000001,-0.9648633003234863,0.7852981686592102,-12.107478141784668,-157.2113037109375,334.04541015625,241.241455078125
8.0899999,6.682217121124268,-9.014169692993164,1.37906014919281,51.8798828125,482.72705078125,158.8287353515625
8.1099999,14.877569198608398,-17.463306427001953,15.375563621520996,167.0379638671875,442.07763671875,-48.614501953125
8.129999900000001,21.44965362548828,-22.038625717163086,26.817453384399414,37.7197265625,83.19091796875,-188.53759765625
8.149999900000001,24.466346740722656,-21.38261604309082,32.81732177734375,-99.761962890625,-275.2838134765625,-185.1959228515625
8.1699999,23.233333587646484,-16.352397918701172,32.393550872802734,-136.5814208984375,-348.297119140625,-172.2259521484375
8.1899999,18.823213577270508,-9.17936897277832,26.992229461669922,-73.5321044921875,-261.077880859375,-183.65478515625
8.2099999,12.717999458312988,-1.8698714971542358,19.3236026763916,18.8751220703125,-176.81884765625,-184.63134765625
8.229999900000001,6.2847795486450195,4.4532151222229,11.57357120513916,45.166015625,-164.886474609375,-171.5087890625
8.2499999,0.36152446269989014,9.619902610778809,4.388571739196777,14.5263671875,-172.0428466796875,-126.15966796875
8.2699999,-4.481945514678955,13.883975982666016,-2.717418909072876,10.68115234375,-177.3834228515625,-27.862548828125
8.2899999,-7.948749542236328,16.979679107666016,-10.093954086303711,53.680419921875,-95.0469970703125,99.30419921875
8.309999900000001,-9.318233489990234,18.143260955810547,-16.792930603027344,58.5174560546875,75.439453125,194.0155029296875
8.3299999,-8.678980827331543,16.450559616088867,-21.155166625976562,-36.8499755859375,184.9212646484375,206.634521484375
8.3499999,-5.595249176025391,11.010933876037598,-20.061016082763672,-128.173828125,239.410400390625,213.7451171875
8.3699999,-0.7876923680305481,2.47560453414917,-11.793837547302246,-74.8138427734375,287.6739501953125,157.3638916015625
8.389999900000001,5.219359874725342,-7.053318023681641,2.03507137298584,45.10498046875,219.3450927734375,44.3267822265625
8.4099999,11.049241065979004,-15.502455711364746,18.265365600585938,-17.7154541015625,-34.3017578125,-20.416259765625
8.4299999,15.251065254211426,-20.42732810974121,30.348899841308594,39.8406982421875,-271.4385986328125,-67.5811767578125
8.4499999,17.07784080505371,-21.344308853149414,35.11336135864258,132.9193115234375,-324.127197265625,-82.45849609375
8.469999900000001,16.014814376831055,-18.741811752319336,31.206024169921875,139.2669677734375,-261.2762451171875,-114.532470703125
8.4899999,12.854469299316406,-14.101847648620605,21.104888916015625,80.6732177734375,-253.875732421875,-148.4222412109375
8.5099999,8.341399192810059,-8.549694061279297,8.166622161865234,35.82763671875,-251.678466796875,-155.609130859375
8.5299999,3.397372245788574,-2.408566951751709,-5.60722017288208,93.536376953125,-191.9708251953125,-137.0849609375
8.549999900000001,-1.3407529592514038,3.8570590019226074,-18.923770904541016,111.083984375,-68.8323974609375,-72.0367431640625
8.569999900000001,-5.233725070953369,9.378087997436523,-29.846118927001953,-95.0927734375,50.47607421875,22.186279296875
8.5899999,-7.613561630249023,13.172897338867188,-36.3248291015625,-349.639892578125,110.6414794921875,100.8453369140625
8.6099999,-8.38449478149414,14.09466552734375,-36.57621765136719,-373.6724853515625,132.99560546875,145.3857421875
8.629999900000001,-6.959944248199463,11.690886497497559,-30.00653076171875,-228.1646728515625,190.5364990234375,186.8743896484375
8.649999900000001,-3.066972494125366,5.760449409484863,-17.113754272460938,-128.3111572265625,298.492431640625,209.320068359375
8.6699999,2.6360161304473877,-2.1499931812286377,-0.2082955539226532,-45.0592041015625,430.6793212890625,127.5634765625
8.6899999,9.41400146484375,-10.740388870239258,18.677167892456055,-89.29443359375,226.837158203125,-28.0609130859375
8.709999900000001,14.999673843383789,-16.982072830200195,34.15568161010742,-22.0489501953125,-158.4320068359375,-90.7745361328125
8.729999900000001,17.946935653686523,-19.601329803466797,42.269630432128906,177.8106689453125,-363.3270263671875,-85.693359375
8.7499999,17.61174774169922,-17.999608993530273,40.53144073486328,194.82421875,-306.671142578125,-96.25244140625
8.7699999,14.446613311767578,-13.687650680541992,30.114269256591797,160.5224609375,-202.33154296875,-146.728515625
8.7899999,9.818621635437012,-8.415618896484375,15.444994926452637,130.8746337890625,-165.6494140625,-155.120849609375
8.809999900000001,4.778826713562012,-3.177105665206909,-0.07661445438861847,148.86474609375,-151.2451171875,-115.05126953125
8.8299999,0.3471592366695404,1.6687586307525635,-14.336480140686035,140.106201171875,-113.5406494140625,-58.7615966796875
8.8499999,-3.0526070594787598,5.736507415771484,-26.058490753173828,-2.86865234375,-26.641845703125,12.542724609375
8.8699999,-4.881777286529541,8.49941635131836,-33.6074104309082,-186.1114501953125,77.33154296875,70.3277587890625
8.889999900000001,-5.2049946784973145,9.528923034667969,-35.82683563232422,-257.293701171875,137.786865234375,87.0208740234375
8.9099999,-4.091690540313721,8.401253700256348,-32.046390533447266,-245.3765869140625,173.52294921875,98.846435546875
8.9299999,-1.41257905960083,5.250484466552734,-22.756887435913086,-210.540771484375,220.977783203125,132.293701171875
8.9499999,2.80361008644104,0.1628057211637497,-9.117119789123535,-149.749755859375,303.955078125,129.2724609375
8.969999900000001,8.061277389526367,-5.674258232116699,7.419631004333496,-140.19775390625,301.4984130859375,33.233642578125
8.9899999,13.08910083770752,-10.84094524383545,23.62358856201172,-117.8741455078125,15.0909423828125,-82.977294921875
9.0099999,16.321273803710938,-13.431471824645996,35.082237243652344,89.7064208984375,-216.796875,-99.700927734375
9.0299999,16.871938705444336,-12.842497825622559,39.06379318237305,200.592041015625,-266.082763671875,-67.81005859375
9.049999900000001,14.693215370178223,-9.801861763000488,34.296939849853516,214.0655517578125,-205.4595947265625,-45.4254150390625
9.069999900000001,11.075576782226562,-6.081272125244141,23.223756790161133,231.62841796875,-160.64453125,-43.0755615234375
9.0899999,7.232883453369141,-3.093308687210083,9.39245319366455,192.779541015625,-159.515380859375,-30.9600830078125
9.1099999,3.885789394378662,-0.8978256583213806,-5.051765441894531,136.9171142578125,-147.216796875,-18.3258056640625
9.129999900000001,1.357512354850769,1.0223240852355957,-18.318037033081055,73.4100341796875,-80.8258056640625,-16.2506103515625
9.149999900000001,-0.35673606395721436,2.8395233154296875,-28.61549949645996,-39.36767578125,45.1812744140625,7.2174072265625
9.1699999,-1.3096283674240112,4.537012100219727,-34.24666213989258,-165.6036376953125,133.056640625,31.280517578125
9.1899999,-1.5945383310317993,5.643133640289307,-33.990482330322266,-235.8245849609375,158.9508056640625,53.6651611328125
9.209999900000001,-0.9768342971801758,5.614402770996094,-27.82780647277832,-214.0960693359375,178.253173828125,81.8328857421875
9.229999900000001,0.9959878921508789,3.866635799407959,-16.46492576599121,-152.9541015625,245.0103759765625,111.785888671875
9.2499999,4.513070106506348,0.45010992884635925,-1.5825673341751099,-126.190185546875,317.8558349609375,98.8616943359375
9.2699999,9.02135181427002,-4.101267337799072,14.923059463500977,-129.5623779296875,150.054931640625,0.335693359375
9.2899999,13.2710599899292,-8.212111473083496,29.003358840942383,-19.012451171875,-99.212646484375,-58.59375
9.309999900000001,15.696386337280273,-10.362105369567871,36.86831283569336,184.1583251953125,-237.518310546875,-73.5015869140625
9.3299999,15.535974502563477,-10.036493301391602,36.33440399169922,221.527099609375,-241.7755126953125,-57.92236328125
9.3499999,12.947842597961426,-7.690176010131836,27.45431137084961,202.5604248046875,-172.4395751953125,-45.0286865234375
9.3699999,9.129091262817383,-4.702212333679199,13.419500350952148,176.483154296875,-139.312744140625,-28.9306640625
9.389999900000001,5.34625244140625,-2.0254945755004883,-1.9177556037902832,110.3363037109375,-98.0987548828125,2.0904541015625
9.4099999,2.449268341064453,0.07661445438861847,-15.538369178771973,29.022216796875,-31.097412109375,14.0838623046875
9.4299999,0.8451532125473022,1.623268723487854,-25.14630126953125,-59.7076416015625,34.1949462890625,11.9171142578125
9.4499999,0.5937620401382446,2.7078421115875244,-29.45586395263672,-132.5836181640625,89.080810546875,29.78515625
9.469999900000001,1.4987702369689941,3.533841609954834,-28.18693733215332,-150.5126953125,146.1334228515625,45.745849609375
9.4899999,3.471592426300049,3.5458126068115234,-21.13840675354004,-155.7159423828125,215.6829833984375,42.9534912109375
9.5099999,6.63433313369751,2.456450939178467,-8.635885238647461,-170.0897216796875,295.5780029296875,23.3612060546875
9.5299999,10.096348762512207,0.7948749661445618,6.866570472717285,-94.8333740234375,206.1614990234375,-35.2630615234375
9.549999900000001,12.97657299041748,-1.0869675874710083,21.55499839782715,28.900146484375,-80.718994140625,-61.5081787109375
9.569999900000001,14.06114673614502,-2.078166961669922,30.79901123046875,147.8424072265625,-254.669189453125,-37.139892578125
9.5899999,12.876016616821289,-2.073378562927246,31.692047119140625,193.90869140625,-254.5318603515625,-7.659912109375
9.6099999,9.986215591430664,-1.5682021379470825,24.44001007080078,186.5692138671875,-173.52294921875,14.1448974609375
9.629999900000001,6.588842868804932,-1.280897855758667,12.394782066345215,153.411865234375,-113.372802734375,20.477294921875
9.649999900000001,3.7708675861358643,-1.4508862495422363,-0.8140285611152649,119.81201171875,-52.8717041015625,19.0887451171875
9.6699999,2.0853497982025146,-1.8555063009262085,-12.33253288269043,64.8193359375,-8.5601806640625,27.9388427734375
9.6899999,1.4963760375976562,-2.008735179901123,-20.616470336914062,-22.2320556640625,33.5235595703125,41.9464111328125
9.709999900000001,1.6974890232086182,-1.6974890232086182,-24.825477600097656,-105.6671142578125,83.4503173828125,45.1507568359375
9.729999900000001,2.3511061668395996,-1.0247182846069336,-24.739286422729492,-152.679443359375,135.0555419921875,50.29296875
9.7499999,3.246537446975708,-0.31124621629714966,-20.458454132080078,-164.1998291015625,187.1490478515625,58.2122802734375
9.7699999,4.256890773773193,0.09576806426048279,-13.113042831420898,-150.421142578125,208.6944580078125,62.591552734375
9.7899999,5.331887245178223,0.026336219161748886,-4.529829502105713,-117.8131103515625,173.004150390625,64.8345947265625
9.809999900000001,6.449979305267334,-0.5363011956214905,3.5434184074401855,-106.26220703125,108.3526611328125,65.73486328125
9.8299999,7.63989782333374,-1.41257905960083,9.550470352172852,-63.5986328125,74.432373046875,60.8978271484375
9.8499999,8.848969459533691,-2.229001760482788,12.689269065856934,16.66259765625,73.1353759765625,40.2984619140625
9.8699999,9.995792388916016,-2.7748796939849854,13.10107135772705,37.841796875,70.098876953125,20.6756591796875
9.889999900000001,10.860098838806152,-2.8131868839263916,11.274295806884766,-0.030517578125,58.9141845703125,16.8609619140625
9.9099999,11.592724800109863,-2.3558945655822754,8.458714485168457,-51.3458251953125,46.234130859375,37.017822265625
9.9299999,12.078747749328613,-1.5155296325683594,5.640739440917969,-55.572509765625,49.98779296875,49.01123046875
9.9499999,12.502521514892578,-0.5003881454467773,3.5745432376861572,-30.8990478515625,81.329345703125,43.6248779296875
9.969999900000001,12.797008514404297,0.49559974670410156,2.406172752380371,-30.9906005859375,78.5980224609375,47.1038818359375
9.9899999,12.801796913146973,1.278503656387329,1.8315643072128296,-47.271728515625,39.3218994140625,50.8575439453125
10.0099999,12.49055004119873,1.6280571222305298,1.7094600200653076,-61.7218017578125,28.6865234375,42.6788330078125
10.0299999,11.906365394592285,1.482010841369629,2.070984363555908,-65.6890869140625,39.2913818359375,38.2080078125
10.049999900000001,11.17852783203125,1.015141487121582,2.741360902786255,-60.0128173828125,26.275634765625,30.76171875
10.069999900000001,10.44350814819336,0.33279404044151306,3.627215623855591,-48.9044189453125,13.641357421875,31.73828125
10.0899999,9.746794700622559,-0.3495534360408783,4.458003520965576,-37.8570556640625,24.9481201171875,33.9508056640625
10.1099999,9.246406555175781,-0.9768342971801758,5.066130638122559,-29.6630859375,49.3927001953125,31.3568115234375
10.129999900000001,8.944737434387207,-1.5873557329177856,5.473145008087158,-50.35400390625,53.802490234375,32.958984375
10.149999900000001,8.860940933227539,-2.22660756111145,5.932831764221191,-85.6781005859375,15.960693359375,17.1661376953125
10.1699999,8.848969459533691,-2.7988216876983643,6.406883716583252,-83.282470703125,-14.2974853515625,-14.09912109375
10.1899999,8.78193187713623,-3.335123062133789,6.763619899749756,-61.7828369140625,-25.6805419921875,-22.39990234375
10.209999900000001,8.700529098510742,-3.7277719974517822,7.038952827453613,-93.475341796875,-46.478271484375,-3.082275390625
10.229999900000001,8.49941635131836,-4.055777549743652,6.9024834632873535,-109.06982421875,-76.4923095703125,-8.0718994140625
10.2499999,8.374917984008789,-4.290409564971924,6.550535678863525,-96.710205078125,-94.7418212890625,-28.8543701171875
10.2699999,8.274360656738281,-4.553771495819092,6.0597243309021,-84.991455078125,-109.100341796875,-37.0025634765625
10.2899999,8.106766700744629,-4.78122091293335,5.410895824432373,-62.5,-106.5216064453125,-48.4619140625
10.309999900000001,7.982268333435059,-5.035006046295166,4.934449672698975,-71.014404296875,-82.1990966796875,-43.792724609375
10.3299999,7.872135162353516,-5.118803024291992,4.60165548324585,-86.2274169921875,-58.6395263671875,-25.8636474609375
10.3499999,7.869740962982178,-5.104437828063965,4.410119533538818,-62.042236328125,-32.3333740234375,-24.9786376953125
10.3699999,8.001421928405762,-4.946420669555664,4.479551315307617,-55.7708740234375,-28.076171875,-38.6810302734375
10.389999900000001,8.259995460510254,-4.67827033996582,4.627991676330566,-60.6842041015625,-69.1070556640625,-47.027587890625
10.4099999,8.44195556640625,-4.431667327880859,4.553771495819092,-29.1595458984375,-112.1978759765625,-36.4532470703125
10.4299999,8.87291145324707,-4.438849925994873,4.414907932281494,11.77978515625,-76.6754150390625,-26.9927978515625
10.4499999,9.217676162719727,-4.410119533538818,4.015076160430908,31.2957763671875,-41.6717529296875,-45.2880859375
10.469999900000001,9.394847869873047,-4.4532151222229,3.4787750244140625,39.3524169921875,-55.7403564453125,-65.7958984375
10.4899999,9.545681953430176,-4.405331134796143,2.9951462745666504,63.751220703125,-56.9610595703125,-60.05859375
10.5099999,9.394847869873047,-4.24970817565918,2.609679937362671,78.9794921875,-82.733154296875,-49.102783203125
10.5299999,9.105149269104004,-4.062960147857666,2.1739351749420166,92.193603515625,-110.53466796875,-58.563232421875
10.549999900000001,8.798690795898438,-3.912125587463379,1.5275006294250488,99.54833984375,-115.264892578125,-64.6209716796875
10.569999900000001,8.406042098999023,-3.7277719974517822,0.646434485912323,95.03173828125,-103.7139892578125,-50.4913330078125
10.5899999,7.999027729034424,-3.514688014984131,-0.3495534360408783,88.2415771484375,-80.4290771484375,-36.1328125
10.6099999,7.864952564239502,-3.378218650817871,-1.2066776752471924,88.104248046875,-63.6749267578125,-21.0723876953125
10.629999900000001,8.042123794555664,-3.3063924312591553,-1.742978811264038,94.8333740234375,-48.583984375,-24.2156982421875
10.649999900000001,8.379706382751465,-3.339911460876465,-2.1164743900299072,104.095458984375,-50.1556396484375,-29.632568359375
10.6699999,8.645462036132812,-3.4141316413879395,-2.387019157409668,104.1717529296875,-44.952392578125,-30.670166015625
10.6899999,8.674192428588867,-3.512293815612793,-2.5713725090026855,99.1363525390625,-16.41845703125,-26.2603759765625
10.709999900000001,8.62391471862793,-3.5386300086975098,-2.674323320388794,99.7467041015625,-1.861572265625,-19.287109375
10.729999900000001,8.705317497253418,-3.6391866207122803,-2.559401512145996,96.3592529296875,-28.961181640625,-12.14599609375
10.7499999,8.96389102935791,-3.6966474056243896,-2.3965959548950195,97.869873046875,-58.563232421875,-16.2353515625
10.7699999,9.311050415039062,-3.883395195007324,-2.300827741622925,117.1112060546875,-35.4156494140625,-19.71435546875
10.7899999,9.47146224975586,-3.9671921730041504,-2.3127987384796143,124.2523193359375,9.2315673828125,-27.6947021484375
10.809999900000001,9.495404243469238,-4.031835556030273,-2.4875755310058594,120.4681396484375,3.7384033203125,-26.8707275390625
10.8299999,9.332598686218262,-3.9815573692321777,-2.7557260990142822,107.391357421875,-32.928466796875,-14.801025390625
10.8499999,9.11233139038086,-3.8522706031799316,-3.045424461364746,92.8192138671875,-23.9410400390625,-7.75146484375
10.8699999,8.887276649475098,-3.758896589279175,-3.3303346633911133,87.554931640625,4.7454833984375,-8.9111328125
10.889999900000001,8.69334602355957,-3.6822822093963623,-3.485957622528076,77.7130126953125,-7.9498291015625,-12.969970703125
10.9099999,8.585607528686523,-3.5936968326568604,-3.5410242080688477,70.5413818359375,-39.00146484375,-23.01025390625
10.9299999,8.49941635131836,-3.4620156288146973,-3.557783842086792,77.0416259765625,-28.0303955078125,-31.494140625
10.9499999,8.571242332458496,-3.2609026432037354,-3.5482068061828613,81.787109375,10.528564453125,-19.622802734375
10.969999900000001,8.724471092224121,-3.0406360626220703,-3.5051112174987793,78.8116455078125,29.8004150390625,-20.69091796875
10.9899999,9.090784072875977,-2.8443117141723633,-3.3494882583618164,66.2841796875,11.6119384765625,-22.8729248046875
11.0099999,9.500192642211914,-2.6671407222747803,-3.112462282180786,61.309814453125,-4.2724609375,-20.3704833984375
11.0299999,9.892841339111328,-2.5258827209472656,-2.779668092727661,56.1065673828125,-6.134033203125,-11.6424560546875
11.049999900000001,10.11789608001709,-2.4803929328918457,-2.432508945465088,58.28857421875,4.1656494140625,-9.0789794921875
11.069999900000001,10.144232749938965,-2.5115175247192383,-2.097320795059204,61.9964599609375,19.5159912109375,-16.2811279296875
11.0899999,9.974244117736816,-2.5689783096313477,-1.7956513166427612,66.2994384765625,22.5830078125,-26.214599609375
11.1099999,9.720458984375,-2.580949544906616,-1.6184803247451782,71.83837890625,29.144287109375,-23.3001708984375
11.129999900000001,9.469067573547363,-2.4899697303771973,-1.580173134803772,68.206787109375,27.1453857421875,-14.617919921875
11.149999900000001,9.282320022583008,-2.363077163696289,-1.7070658206939697,65.00244140625,16.7083740234375,-15.411376953125
11.1699999,9.251194953918457,-2.2673089504241943,-1.9488801956176758,74.70703125,11.8255615234375,-22.88818359375
11.1899999,9.342175483703613,-2.142810583114624,-2.2242133617401123,77.0111083984375,-2.0904541015625,-39.581298828125
11.209999900000001,9.488221168518066,-2.0829553604125977,-2.477998733520508,67.138671875,0.91552734375,-37.2314453125
11.229999900000001,9.651026725769043,-1.9033904075622559,-2.7030537128448486,61.676025390625,8.4381103515625,-34.5916748046875
11.2499999,9.706093788146973,-1.7597382068634033,-2.87064790725708,52.734375,10.833740234375,-32.989501953125
11.2699999,9.57201862335205,-1.6496049165725708,-3.0334534645080566,51.910400390625,19.2413330078125,-34.24072265625
11.2899999,9.265560150146484,-1.4628572463989258,-3.1866824626922607,44.219970703125,27.4810791015625,-33.9202880859375
11.309999900000001,8.937555313110352,-1.335964560508728,-3.3279404640197754,30.1666259765625,28.3355712890625,-23.1781005859375
11.3299999,8.762778282165527,-1.192312479019165,-3.464409828186035,19.83642578125,27.618408203125,-19.4244384765625
11.3499999,8.772355079650879,-1.0869675874710083,-3.598485231399536,0.91552734375,23.7884521484375,-26.79443359375
11.3699999,8.925583839416504,-1.0630255937576294,-3.691859006881714,-22.5067138671875,12.8326416015625,-32.196044921875
11.389999900000001,9.114726066589355,-1.039083480834961,-3.706224203109741,-44.9981689453125,5.79833984375,-27.862548828125
11.4099999,9.248801231384277,-0.9864110946655273,-3.6320040225982666,-52.3223876953125,16.9219970703125,-21.759033203125
11.4299999,9.366117477416992,-0.9361328482627869,-3.450044631958008,-58.9599609375,20.0958251953125,-19.7296142578125
11.4499999,9.502586364746094,-0.8954314589500427,-3.1651346683502197,-71.4111328125,26.7486572265625,-27.099609375
11.469999900000001,9.624691009521484,-0.828393816947937,-2.784456491470337,-75.347900390625,48.5992431640625,-46.600341796875
11.4899999,9.785101890563965,-0.7637503147125244,-2.31758713722229,-70.86181640625,56.610107421875,-54.4281005859375
11.5099999,9.93354320526123,-0.6488286852836609,-1.7956513166427612,-73.4405517578125,48.6297607421875,-51.1627197265625
11.5299999,10.086771965026855,-0.507570743560791,-1.3335703611373901,-88.2568359375,39.1693115234375,-44.219970703125
11.549999900000001,10.271124839782715,-0.3495534360408783,-0.9145850539207458,-112.6708984375,49.3316650390625,-42.1295166015625
11.569999900000001,10.441113471984863,-0.1628057211637497,-0.5434837937355042,-122.0703125,67.0318603515625,-53.28369140625
11.5899999,10.594342231750488,0.05985504388809204,-0.10055647045373917,-122.5433349609375,70.1141357421875,-56.7626953125
11.6099999,10.656591415405273,0.3280056416988373,0.3974374830722809,-119.6746826171875,61.1114501953125,-56.732177734375
11.629999900000001,10.484209060668945,0.6991068720817566,0.8858546018600464,-111.0992431640625,57.2509765625,-57.891845703125
11.649999900000001,10.055646896362305,1.1300631761550903,1.2449848651885986,-97.412109375,57.7545166015625,-47.8363037109375
11.6699999,9.44752025604248,1.5921441316604614,1.4987702369689941,-92.559814453125,63.5223388671875,-16.6168212890625
11.6899999,8.808267593383789,1.965639591217041,1.8124107122421265,-89.53857421875,73.7457275390625,13.12255859375
11.709999900000001,8.4108304977417,2.161964178085327,2.1547815799713135,-61.70654296875,91.7510986328125,21.8505859375
11.729999900000001,8.214506149291992,2.2218191623687744,2.4899697303771973,-50.1556396484375,88.3331298828125,15.7318115234375
11.7499999,8.267178535461426,2.1499931812286377,2.7676970958709717,-96.9390869140625,58.9141845703125,18.7225341796875
11.7699999,8.355764389038086,2.1092917919158936,2.87064790725708,-167.022705078125,19.5465087890625,31.8603515625
11.7899999,8.367734909057617,2.1332337856292725,2.956839084625244,-197.7691650390625,-16.815185546875,39.61181640625
11.809999900000001,8.257601737976074,2.188300371170044,3.0885202884674072,-173.7213134765625,-15.7012939453125,54.7027587890625
11.8299999,8.257601737976074,2.1164743900299072,3.3207578659057617,-144.7296142578125,26.9317626953125,90.9271240234375
11.8499999,8.341399192810059,1.8794482946395874,3.383007049560547,-137.1612548828125,47.515869140625,94.024658203125
11.8699999,8.549694061279297,1.4460978507995605,3.308786630630493,-166.3970947265625,27.984619140625,58.7005615234375
11.889999900000001,8.877699851989746,0.8451532125473022,3.2632968425750732,-199.0203857421875,-7.0343017578125,52.276611328125
11.9099999,9.167398452758789,0.28730419278144836,3.44765043258667,-192.962646484375,-8.9569091796875,69.9005126953125
11.9299999,9.428366661071777,-0.2298433631658554,3.758896589279175,-123.4588623046875,15.0604248046875,77.362060546875
11.9499999,9.59596061706543,-0.5985504388809204,3.998316764831543,-80.230712890625,17.0440673828125,50.78125
11.969999900000001,9.708487510681152,-0.8762778043746948,4.065354347229004,-116.2109375,21.575927734375,37.04833984375
11.9899999,9.658209800720215,-1.1875240802764893,3.97916316986084,-145.6146240234375,10.43701171875,42.144775390625
12.0099999,9.57441234588623,-1.5514427423477173,4.129997730255127,-122.283935546875,2.044677734375,29.78515625
12.0299999,9.41400146484375,-1.9321208000183105,4.520252704620361,-76.6448974609375,20.477294921875,14.7552490234375
12.049999900000001,9.26795482635498,-2.298433542251587,4.929661273956299,-65.3076171875,24.10888671875,19.7906494140625
12.069999900000001,9.153033256530762,-2.693476915359497,5.339069843292236,-92.7276611328125,15.380859375,31.890869140625
12.0899999,9.026140213012695,-3.050212860107422,5.647922039031982,-89.29443359375,27.587890625,18.37158203125
12.1099999,8.944737434387207,-3.4524388313293457,5.827486991882324,-34.423828125,51.1322021484375,3.4637451171875
12.129999900000001,8.927978515625,-3.823540210723877,5.91128396987915,-16.2200927734375,48.1414794921875,8.392333984375
12.149999900000001,8.822632789611816,-4.1156325340271,5.781997203826904,-34.7137451171875,28.62548828125,4.8675537109375
12.1699999,8.71728801727295,-4.405331134796143,5.590460777282715,-33.843994140625,24.993896484375,-6.4849853515625
12.1899999,8.597578048706055,-4.721365928649902,5.453991413116455,-7.293701171875,51.422119140625,-7.26318359375
12.209999900000001,8.489839553833008,-5.049371242523193,5.501875400543213,7.4310302734375,66.741943359375,-11.5203857421875
12.229999900000001,8.367734909057617,-5.250484466552734,5.609614372253418,-0.3814697265625,46.875,-9.5672607421875
12.2499999,8.26239013671875,-5.34625244140625,5.7341132164001465,-2.7313232421875,17.852783203125,-1.7242431640625
12.2699999,8.14028549194336,-5.410895824432373,5.947196960449219,23.86474609375,17.6849365234375,-20.843505859375
12.289999900000002,7.982268333435059,-5.499481201171875,6.248866558074951,56.1065673828125,33.4930419921875,-36.56005859375
12.309999900000001,7.864952564239502,-5.635950565338135,6.584054470062256,56.8084716796875,17.8375244140625,-25.8636474609375
12.3299999,7.814674377441406,-5.729324817657471,6.856993675231934,33.5235595703125,-24.688720703125,-12.0697021484375
12.3499999,7.759607791900635,-5.626373767852783,6.818686485290527,21.881103515625,-53.741455078125,-18.8140869140625
12.3699999,7.690176010131836,-5.276820659637451,6.4595561027526855,18.768310546875,-57.8155517578125,-21.54541015625
12.389999900000001,7.601590633392334,-4.747702121734619,5.853823184967041,9.7503662109375,-51.513671875,-8.056640625
12.4099999,7.479485988616943,-4.158728122711182,5.044582843780518,13.2293701171875,-47.8515625,-10.711669921875
12.4299999,7.462726593017578,-3.663128614425659,4.2951979637146,21.240234375,-47.576904296875,-14.6942138671875
12.4499999,7.465120792388916,-3.308786630630493,3.579331636428833,46.56982421875,-25.3143310546875,-25.7720947265625
12.469999900000001,7.546523571014404,-3.177105665206909,2.9975404739379883,37.109375,-13.214111328125,-26.8096923828125
12.4899999,7.627926826477051,-3.1723172664642334,2.6599581241607666,-7.4005126953125,-30.364990234375,-26.0009765625
12.5099999,7.671022415161133,-3.2752678394317627,2.537853717803955,-7.99560546875,-43.365478515625,-42.7398681640625
12.5299999,7.644686222076416,-3.375824451446533,2.676717519760132,14.9078369140625,-34.4085693359375,-46.9512939453125
12.549999900000001,7.592013359069824,-3.383007049560547,2.8802247047424316,22.9644775390625,-21.3623046875,-40.3594970703125
12.569999900000001,7.522581577301025,-3.3039982318878174,3.141192674636841,-1.77001953125,-44.5404052734375,-29.327392578125
12.5899999,7.544129371643066,-3.3039982318878174,3.2369606494903564,-0.9613037109375,-82.1533203125,-6.6986083984375
12.6099999,7.829039573669434,-3.399766445159912,3.294421434402466,13.7939453125,-72.69287109375,8.880615234375
12.629999900000001,8.259995460510254,-3.6152446269989014,3.3470940589904785,0,-42.5872802734375,-5.279541015625
12.649999900000001,8.860940933227539,-3.909731388092041,3.5458126068115234,-7.6446533203125,-42.8314208984375,-9.9029541015625
12.6699999,9.445125579833984,-4.084507942199707,3.825934410095215,21.3165283203125,-48.88916015625,-11.0931396484375
12.6899999,9.840168952941895,-4.122815132141113,4.1611223220825195,48.187255859375,-35.21728515625,-23.468017578125
12.709999900000001,9.998186111450195,-4.041412353515625,4.388571739196777,43.0908203125,-33.905029296875,-25.054931640625
12.729999900000001,9.907206535339355,-3.864241600036621,4.335899353027344,31.6009521484375,-59.38720703125,-16.1590576171875
12.7499999,9.672574996948242,-3.620033025741577,3.995922565460205,36.651611328125,-76.5533447265625,-15.350341796875
12.7699999,9.38048267364502,-3.3494882583618164,3.4380736351013184,47.0428466796875,-72.509765625,-25.6195068359375
12.789999900000002,9.117119789123535,-3.1004912853240967,2.6791117191314697,44.00634765625,-76.202392578125,-25.238037109375
12.809999900000001,8.956708908081055,-2.913743495941162,1.8602946996688843,36.9110107421875,-68.9697265625,-14.95361328125
12.8299999,8.844181060791016,-2.80361008644104,1.05105459690094,39.5660400390625,-41.656494140625,-12.054443359375
12.8499999,8.772355079650879,-2.779668092727661,0.4644751250743866,40.34423828125,-29.998779296875,-17.6239013671875
12.8699999,8.81784439086914,-2.9041666984558105,0.2537853717803955,27.801513671875,-27.923583984375,-15.0909423828125
12.889999900000001,8.786720275878906,-3.002328872680664,0.4812345504760742,21.6827392578125,-26.2298583984375,-19.6380615234375
12.9099999,8.93037223815918,-3.1459810733795166,1.1013327836990356,31.2652587890625,-18.8751220703125,-25.1617431640625
12.9299999,9.050082206726074,-3.31118106842041,1.7597382068634033,56.793212890625,-25.0244140625,-23.5595703125
12.9499999,9.047688484191895,-3.3255462646484375,2.126051187515259,70.4498291015625,-44.3115234375,-30.21240234375
12.969999900000001,9.002198219299316,-3.2776620388031006,2.0398597717285156,62.6068115234375,-52.79541015625,-22.8424072265625
12.9899999,8.877699851989746,-3.155557870864868,1.5418659448623657,59.5245361328125,-57.403564453125,-16.510009765625
13.0099999,8.884882926940918,-3.064578056335449,1.0007762908935547,65.9332275390625,-38.39111328125,-19.04296875
13.0299999,9.066842079162598,-3.0573954582214355,0.6560112833976746,79.8187255859375,-19.22607421875,-32.1197509765625
13.049999900000001,9.3828763961792,-3.157952070236206,0.5530605912208557,96.4508056640625,-27.099609375,-38.7725830078125
13.069999900000001,9.581595420837402,-3.2824504375457764,0.5530605912208557,105.28564453125,-42.8314208984375,-36.9873046875
13.0899999,9.555258750915527,-3.404554843902588,0.44771572947502136,102.5390625,-54.473876953125,-37.445068359375
13.1099999,9.246406555175781,-3.375824451446533,0.12689268589019775,99.6856689453125,-41.07666015625,-41.778564453125
13.129999900000001,8.827422142028809,-3.2561142444610596,-0.2825157940387726,104.1717529296875,-14.434814453125,-42.5262451171875
13.149999900000001,8.370129585266113,-3.0526070594787598,-0.629675030708313,114.6697998046875,-1.4801025390625,-32.2265625
13.1699999,8.015787124633789,-2.7724854946136475,-0.8523358106613159,120.025634765625,-0.5950927734375,-25.20751953125
13.1899999,7.920019149780273,-2.5498247146606445,-0.912190854549408,107.452392578125,-8.819580078125,-18.0206298828125
13.209999900000001,7.999027729034424,-2.365471363067627,-0.9624691009521484,103.057861328125,-17.2882080078125,-14.5111083984375
13.229999900000001,8.20492935180664,-2.250549554824829,-0.9840168952941895,107.0404052734375,-19.6990966796875,-9.8876953125
13.2499999,8.497021675109863,-2.142810583114624,-1.0342950820922852,110.7635498046875,-6.40869140625,-3.662109375
13.2699999,8.89445972442627,-2.1045033931732178,-1.1348515748977661,110.65673828125,9.3841552734375,1.15966796875
13.289999900000002,9.308655738830566,-2.169146776199341,-1.1803414821624756,104.8583984375,-1.190185546875,5.3863525390625
13.309999900000001,9.68933391571045,-2.343923568725586,-1.2641384601593018,106.50634765625,-7.8125,3.997802734375
13.3299999,10.012551307678223,-2.5043349266052246,-1.2186486721038818,104.705810546875,9.0484619140625,4.6844482421875
13.3499999,10.129867553710938,-2.6671407222747803,-1.0773907899856567,102.72216796875,17.4560546875,0.8697509765625
13.3699999,10.160991668701172,-2.7700912952423096,-0.8044517636299133,102.874755859375,6.4849853515625,5.4931640625
13.389999900000001,9.919178009033203,-2.9281086921691895,-0.5434837937355042,111.9384765625,0.30517578125,0.91552734375
13.4099999,9.773131370544434,-3.0358476638793945,-0.3758896589279175,108.2763671875,-6.1492919921875,14.5111083984375
13.4299999,9.521739959716797,-3.24414324760437,-0.3878606855869293,107.208251953125,-7.8887939453125,9.002685546875
13.4499999,9.473855972290039,-3.3231520652770996,-0.5770025849342346,109.9700927734375,-16.7236328125,-0.335693359375
13.469999900000001,9.466673851013184,-3.4380736351013184,-0.8547300100326538,103.33251953125,-28.3966064453125,-1.9683837890625
13.4899999,9.641449928283691,-3.3446998596191406,-1.2473790645599365,111.2060546875,6.378173828125,3.5400390625
13.5099999,9.835380554199219,-3.1699230670928955,-1.7262194156646729,124.298095703125,44.6319580078125,6.3934326171875
13.5299999,10.108319282531738,-2.7940332889556885,-2.33913516998291,108.062744140625,3.936767578125,-0.7476806640625
13.549999900000001,10.42195987701416,-2.229001760482788,-2.9065608978271484,54.87060546875,-77.545166015625,-16.937255859375
13.569999900000001,10.606313705444336,-1.599326729774475,-3.4380736351013184,53.1768798828125,-46.112060546875,-26.8402099609375
13.5899999,10.618284225463867,-0.8379706144332886,-3.7684733867645264,78.9031982421875,27.2216796875,-20.172119140625
13.6099999,10.47942066192627,-0.10295066982507706,-3.88818359375,76.23291015625,53.2073974609375,-10.2081298828125
13.629999900000001,10.189722061157227,0.6009446382522583,-3.866635799407959,55.9844970703125,33.4014892578125,-13.0767822265625
13.649999900000001,9.883264541625977,1.1803414821624756,-3.7421371936798096,32.745361328125,-1.6937255859375,-12.63427734375
13.6699999,9.612719535827637,1.6496049165725708,-3.6559460163116455,20.416259765625,-14.5721435546875,5.706787109375
13.6899999,9.524134635925293,1.9584569931030273,-3.8283286094665527,20.263671875,-8.4381103515625,22.8118896484375
13.709999900000001,9.696516990661621,2.1787235736846924,-4.311957359313965,3.2958984375,-22.4609375,21.026611328125
13.729999900000001,10.065223693847656,2.315192937850952,-5.116408824920654,-22.0794677734375,-40.130615234375,9.429931640625
13.7499999,10.481815338134766,2.3582887649536133,-6.035782337188721,-39.154052734375,-34.3017578125,15.80810546875
13.7699999,10.72841739654541,2.4133553504943848,-6.890512466430664,-51.6357421875,-22.3388671875,26.5960693359375
13.789999900000002,10.733205795288086,2.454056739807129,-7.465120792388916,-70.4193115234375,-25.0396728515625,37.4908447265625
13.809999900000001,10.520122528076172,2.3511061668395996,-7.706935405731201,-81.817626953125,-28.2135009765625,45.3033447265625
13.8299999,10.137049674987793,2.126051187515259,-7.553706169128418,-83.2061767578125,-11.3372802734375,43.487548828125
13.8499999,9.710882186889648,1.6927006244659424,-7.062894821166992,-78.30810546875,17.547607421875,44.4793701171875
13.8699999,9.32302188873291,1.0654197931289673,-6.27280855178833,-78.5675048828125,30.3497314453125,50.72021484375
13.889999900000001,9.064447402954102,0.24899697303771973,-5.305551052093506,-98.14453125,4.7607421875,63.6138916015625
13.9099999,8.918401718139648,-0.7613561153411865,-4.290409564971924,-107.696533203125,-22.4761962890625,73.8372802734375
13.9299999,8.87291145324707,-1.9081788063049316,-3.227383852005005,-84.5489501953125,45.7305908203125,70.1751708984375
13.9499999,8.877699851989746,-3.1052796840667725,-2.2002713680267334,-56.8695068359375,109.6649169921875,66.253662109375
13.969999900000001,9.081207275390625,-4.4077253341674805,-1.290474772453308,-67.81005859375,71.3043212890625,65.216064453125
13.9899999,9.27034854888916,-5.468356609344482,-0.42377370595932007,-95.3216552734375,32.379150390625,31.55517578125
14.0099999,9.409213066101074,-6.3302693367004395,0.18914192914962769,-87.005615234375,53.28369140625,4.2266845703125
14.0299999,9.3828763961792,-6.756437301635742,0.7637503147125244,-85.845947265625,77.8350830078125,15.960693359375
14.049999900000001,9.2033109664917,-6.787561893463135,1.158793568611145,-84.228515625,63.7359619140625,17.2271728515625
14.069999900000001,8.944737434387207,-6.50025749206543,1.5538369417190552,-83.0230712890625,49.2095947265625,-4.852294921875
14.0899999,8.757989883422852,-6.0190229415893555,1.86508309841156,-68.8323974609375,47.4090576171875,-17.5628662109375
14.1099999,8.542511940002441,-5.4252610206604,2.030282974243164,-53.3294677734375,39.4744873046875,-30.731201171875
14.129999900000001,8.456320762634277,-4.8267107009887695,2.0207061767578125,-69.8699951171875,17.76123046875,-1.6326904296875
14.149999900000001,8.401253700256348,-4.304774761199951,1.6759412288665771,-79.89501953125,1.708984375,12.664794921875
14.1699999,8.432378768920898,-3.8977603912353516,1.1755530834197998,-81.085205078125,10.894775390625,-10.7879638671875
14.1899999,8.544905662536621,-3.620033025741577,0.6129156351089478,-83.0078125,20.7977294921875,-4.2572021484375
14.209999900000001,8.676587104797363,-3.5218706130981445,0.10773907601833344,-74.310302734375,29.754638671875,8.3160400390625
14.229999900000001,8.9064302444458,-3.6367924213409424,-0.19632454216480255,-69.0155029296875,46.4935302734375,5.3558349609375
14.2499999,9.186552047729492,-3.885789394378662,-0.3256114423274994,-73.760986328125,57.0831298828125,-10.894775390625
14.2699999,9.421183586120605,-4.175487995147705,-0.3687070608139038,-79.132080078125,38.5894775390625,-21.759033203125
14.289999900000002,9.500192642211914,-4.424484729766846,-0.3734954595565796,-76.9500732421875,19.53125,-16.78466796875
14.309999900000001,9.390059471130371,-4.5394062995910645,-0.3902548849582672,-78.3233642578125,33.7982177734375,-10.528564453125
14.3299999,9.23682975769043,-4.6255974769592285,-0.3758896589279175,-95.76416015625,42.90771484375,-3.1280517578125
14.3499999,9.126696586608887,-4.752490520477295,-0.3423708379268646,-91.5985107421875,35.58349609375,-3.753662109375
14.3699999,9.097966194152832,-4.881777286529541,-0.16998831927776337,-83.49609375,26.8402099609375,-9.765625
14.389999900000001,9.062053680419922,-5.0014872550964355,0.05027823522686958,-83.8775634765625,12.359619140625,-11.8560791015625
14.4099999,8.935160636901855,-5.0685248374938965,0.23702596127986908,-84.808349609375,7.720947265625,-8.514404296875
14.4299999,8.743624687194824,-5.116408824920654,0.37828385829925537,-78.91845703125,25.3143310546875,-6.77490234375
14.4499999,8.513781547546387,-5.097255229949951,0.5291185975074768,-73.6083984375,41.0614013671875,-11.53564453125
14.469999900000001,8.29830265045166,-5.03021764755249,0.706289529800415,-68.450927734375,36.68212890625,-13.4735107421875
14.4899999,8.192957878112793,-4.970362663269043,0.9624691009521484,-61.9964599609375,27.008056640625,-4.6844482421875
14.5099999,8.197746276855469,-4.910507678985596,1.2665326595306396,-57.0068359375,23.92578125,-0.79345703125
14.5299999,8.259995460510254,-4.8937482833862305,1.5873557329177856,-42.633056640625,41.046142578125,-10.9100341796875
14.549999900000001,8.38449478149414,-4.855441093444824,1.9943699836730957,-30.1361083984375,59.814453125,-25.177001953125
14.569999900000001,8.547300338745117,-4.833893299102783,2.4468741416931152,-18.8446044921875,58.990478515625,-27.130126953125
14.5899999,8.671798706054688,-4.817133903503418,2.913743495941162,-10.772705078125,46.32568359375,-22.94921875
14.6099999,8.664615631103516,-4.745307922363281,3.3255462646484375,-7.2021484375,41.32080078125,-33.0352783203125
14.629999900000001,8.497021675109863,-4.551377296447754,3.5673606395721436,2.3345947265625,55.11474609375,-45.95947265625
14.649999900000001,8.17380428314209,-4.225766181945801,3.6774938106536865,5.584716796875,66.6046142578125,-39.215087890625
14.6699999,7.781155586242676,-3.801992416381836,3.732560396194458,-0.30517578125,55.17578125,-25.3143310546875
14.6899999,7.479485988616943,-3.3518824577331543,3.8139634132385254,-3.2196044921875,42.7093505859375,-26.42822265625
14.709999900000001,7.309497833251953,-2.9688100814819336,3.9408559799194336,4.3487548828125,46.234130859375,-35.7666015625
14.729999900000001,7.230489253997803,-2.585737943649292,4.158728122711182,1.7547607421875,43.1671142578125,-30.9295654296875
14.7499999,7.24485445022583,-2.2146365642547607,4.393360137939453,-9.2010498046875,27.2064208984375,-16.6778564453125
14.7699999,7.364564418792725,-1.922544002532959,4.644751071929932,-23.406982421875,7.75146484375,-6.195068359375
14.789999900000002,7.592013359069824,-1.6615760326385498,4.9583916664123535,-34.4390869140625,4.6539306640625,-5.584716796875
14.809999900000001,7.86734676361084,-1.4389152526855469,5.34625244140625,-28.228759765625,7.537841796875,-10.284423828125
14.8299999,8.135497093200684,-1.2306196689605713,5.700594425201416,-13.9923095703125,-11.871337890625,-4.913330078125
14.8499999,8.415618896484375,-1.0989385843276978,5.944802761077881,-13.5345458984375,-39.337158203125,11.3525390625
14.8699999,8.669404029846191,-0.9600749015808105,6.009446144104004,-21.54541015625,-40.3289794921875,11.871337890625
14.889999900000001,8.911218643188477,-0.8690952062606812,5.856217384338379,-24.47509765625,-29.388427734375,13.1072998046875
14.9099999,9.210494041442871,-0.7589619159698486,5.5976433753967285,-24.6429443359375,-39.97802734375,28.86962890625
14.9299999,9.53849983215332,-0.6727706789970398,5.2480902671813965,-17.578125,-58.6090087890625,32.0281982421875
14.9499999,9.9000244140625,-0.6057330369949341,4.865017890930176,-12.3748779296875,-62.469482421875,22.003173828125
14.969999900000001,10.201693534851074,-0.5267243981361389,4.446032524108887,-20.81298828125,-55.60302734375,10.467529296875
14.9899999,10.431536674499512,-0.4572925269603729,4.019864559173584,-25.69580078125,-59.6771240234375,24.0478515625
15.0099999,10.584765434265137,-0.43095630407333374,3.6343982219696045,-22.64404296875,-57.43408203125,39.1998291015625
15.0299999,10.675745010375977,-0.4812345504760742,3.3255462646484375,-11.3525390625,-40.3289794921875,23.4527587890625
15.049999900000001,10.706870079040527,-0.5410895943641663,3.1100680828094482,-1.312255859375,-22.0947265625,-4.1351318359375
15.069999900000001,10.666168212890625,-0.5003881454467773,2.9712042808532715,-8.60595703125,-22.0184326171875,3.7994384765625
15.0899999,10.615890502929688,-0.3998316824436188,2.9328970909118652,-20.8587646484375,-32.6385498046875,27.7557373046875
15.1099999,10.57040023803711,-0.3064578175544739,2.765302896499634,2.288818359375,-22.0184326171875,21.0723876953125
15.129999900000001,10.508151054382324,-0.3208230137825012,2.5450363159179688,17.8375244140625,-29.8919677734375,1.6326904296875
15.149999900000001,10.400412559509277,-0.4357447028160095,2.070984363555908,18.6004638671875,-32.3028564453125,3.6468505859375
15.1699999,10.180145263671875,-0.5195417404174805,1.455674648284912,9.6435546875,-49.0875244140625,0.7171630859375
15.1899999,9.923966407775879,-0.6344634294509888,0.7948749661445618,-11.0321044921875,-63.8580322265625,7.3699951171875
15.209999900000001,9.742006301879883,-0.7829039692878723,0.24181437492370605,-19.561767578125,-67.0166015625,0.2288818359375
15.229999900000001,9.610325813293457,-0.9361328482627869,-0.09576806426048279,-1.77001953125,-52.9937744140625,-19.500732421875
15.2499999,9.497797966003418,-1.0223240852355957,-0.2561795711517334,32.16552734375,-20.721435546875,-25.4974365234375
15.2699999,9.29189682006836,-0.9457096457481384,-0.2777273952960968,35.5224609375,-9.3231201171875,-13.397216796875
15.289999900000002,9.117119789123535,-0.7757213711738586,-0.22266076505184174,18.0511474609375,-25.08544921875,1.5869140625
15.309999900000001,9.030928611755371,-0.5674257874488831,-0.181959331035614,18.6767578125,-29.571533203125,7.171630859375
15.3299999,9.078812599182129,-0.40222588181495667,-0.10534487664699554,35.2020263671875,-24.627685546875,-2.01416015625
15.3499999,9.308655738830566,-0.33279404044151306,-0.05267243832349777,48.4466552734375,-17.0135498046875,-2.197265625
15.3699999,9.682151794433594,-0.38067805767059326,-0.009576806798577309,51.9866943359375,-11.5203857421875,9.796142578125
15.389999900000001,10.180145263671875,-0.5817909836769104,0.10534487664699554,35.369873046875,-30.3955078125,17.8680419921875
15.4099999,10.687716484069824,-0.8954314589500427,0.2968810200691223,22.88818359375,-69.0155029296875,11.5203857421875
15.4299999,11.075576782226562,-1.3096283674240112,0.3974374830722809,58.624267578125,-69.122314453125,0.30517578125
15.4499999,11.279084205627441,-1.7741034030914307,0.36152446269989014,86.97509765625,-42.2821044921875,3.936767578125
15.469999900000001,11.274295806884766,-2.27209734916687,0.1412578970193863,64.544677734375,-45.745849609375,11.962890625
15.4899999,11.159374237060547,-2.827552318572998,-0.10295066982507706,38.39111328125,-73.79150390625,7.87353515625
15.5099999,10.94150161743164,-3.35667085647583,-0.40462008118629456,66.558837890625,-74.7833251953125,-9.4146728515625
15.5299999,10.594342231750488,-3.794809579849243,-0.751779317855835,86.456298828125,-65.5517578125,-15.31982421875
15.549999900000001,10.089165687561035,-3.998316764831543,-1.3239935636520386,65.277099609375,-77.484130859375,-3.1890869140625
15.569999900000001,9.452308654785156,-3.93367338180542,-2.140416383743286,56.7474365234375,-81.878662109375,12.1612548828125
15.5899999,8.80587387084961,-3.665522813796997,-3.2178070545196533,90.4388427734375,-74.8291015625,40.4815673828125
15.6099999,8.434772491455078,-3.5194764137268066,-4.572925090789795,113.6474609375,-97.35107421875,83.2672119140625
15.629999900000001,8.60236644744873,-3.8067808151245117,-6.229712963104248,117.919921875,-93.4295654296875,80.3680419921875
15.649999900000001,9.153033256530762,-4.3622355461120605,-8.142680168151855,129.9285888671875,-18.310546875,-13.8092041015625
15.6699999,9.971850395202637,-5.0014872550964355,-9.864110946655273,84.4573974609375,19.989013671875,-70.465087890625
15.6899999,10.979808807373047,-5.549759387969971,-10.900800704956055,24.1546630859375,-9.4757080078125,-55.938720703125
15.709999900000001,12.45463752746582,-5.978321552276611,-10.699687004089355,38.2537841796875,34.088134765625,-61.46240234375
15.729999900000001,14.575900077819824,-6.66785192489624,-8.884882926940918,65.4144287109375,119.62890625,-139.495849609375
15.7499999,17.1999454498291,-7.690176010131836,-5.315127849578857,53.7567138671875,143.3563232421875,-247.13134765625
15.7699999,19.783288955688477,-8.918401718139648,-0.5099649429321289,76.629638671875,98.2513427734375,-323.974609375
15.789999900000002,21.066579818725586,-10.160991668701172,4.5154643058776855,120.3460693359375,54.840087890625,-417.3583984375
15.809999900000001,20.068199157714844,-11.111490249633789,8.956708908081055,49.3927001953125,-3.2501220703125,-500
15.8299999,15.931017875671387,-11.456254959106445,12.09311294555664,-22.5067138671875,-144.012451171875,-500
15.8499999,8.267178535461426,-11.049241065979004,12.289437294006348,180.3741455078125,-281.6009521484375,-500
15.869999900000002,-2.9520506858825684,-9.289502143859863,9.363722801208496,375.1373291015625,-299.2706298828125,-500
15.889999900000001,-16.242263793945312,-5.913678169250488,2.190694570541382,337.6007080078125,-196.77734375,-450.86669921875
15.9099999,-28.86688995361328,-2.030282974243164,-6.167463779449463,30.517578125,-2.960205078125,-143.768310546875
15.9299999,-38.26173782348633,1.237802267074585,-13.168108940124512,-152.7099609375,192.6116943359375,170.654296875
15.9499999,-41.168296813964844,2.63362193107605,-15.878345489501953,-81.268310546875,348.2208251953125,418.7469482421875
15.969999900000001,-35.72627639770508,0.4908113479614258,-12.72996997833252,-106.781005859375,499.9847412109375,499.9847412109375
15.9899999,-21.713014602661133,-4.2090067863464355,-4.537012100219727,-148.773193359375,499.9847412109375,499.9847412109375
16.0099999,-1.6615760326385498,-10.08198356628418,7.501033782958984,-83.770751953125,499.9847412109375,499.9847412109375
16.0299999,19.546262741088867,-15.392322540283203,20.870256423950195,60.36376953125,472.4884033203125,222.0458984375
16.0499999,36.55467224121094,-18.622100830078125,31.797391891479492,83.831787109375,-13.2293701171875,26.2603759765625
16.0699999,45.178585052490234,-19.524715423583984,37.107730865478516,26.580810546875,-431.0150146484375,-74.310302734375
16.089999900000002,44.02458190917969,-18.322826385498047,35.01759338378906,-0.06103515625,-313.1866455078125,-184.1583251953125
16.109999900000002,35.13251495361328,-15.7107515335083,25.99863624572754,78.61328125,-214.813232421875,-237.9150390625
16.1299999,22.091299057006836,-11.90157699584961,13.977349281311035,38.1927490234375,-271.026611328125,-321.5789794921875
16.1499999,7.864952564239502,-7.228095054626465,1.8842366933822632,-73.028564453125,-254.7454833984375,-393.9971923828125
16.1699999,-4.764461517333984,-1.8171991109848022,-7.99184513092041,-67.0013427734375,-188.8885498046875,-375.152587890625
16.1899999,-14.803349494934082,3.8594532012939453,-14.044386863708496,-76.8890380859375,-112.9302978515625,-247.7569580078125
16.2099999,-22.335508346557617,9.418789863586426,-16.417041778564453,-137.298583984375,-25.970458984375,-118.46923828125
16.2299999,-27.018566131591797,13.874399185180664,-15.51921558380127,-148.98681640625,53.7261962890625,14.801025390625
16.249999900000002,-28.37368392944336,15.938200950622559,-11.765107154846191,-146.2860107421875,36.5142822265625,230.0872802734375
16.269999900000002,-25.87653160095215,14.571111679077148,-6.655880928039551,-69.27490234375,34.24072265625,442.7490234375
16.2899999,-18.65083122253418,9.421183586120605,-1.4844050407409668,31.280517578125,141.448974609375,499.9847412109375
16.3099999,-6.8162922859191895,1.7405846118927002,3.3518824577331543,-4.180908203125,253.7078857421875,469.268798828125
16.3299999,8.188169479370117,-6.8162922859191895,7.568071365356445,-46.1883544921875,282.135009765625,322.3724365234375
16.3499999,23.556550979614258,-13.864822387695312,11.341333389282227,-5.0506591796875,167.05322265625,137.6495361328125
16.3699999,35.49882888793945,-17.956512451171875,14.49210262298584,18.707275390625,61.1419677734375,-9.0179443359375
16.3899999,40.82114028930664,-18.64604377746582,15.940594673156738,-1.2054443359375,-29.60205078125,-127.288818359375
16.4099999,39.11407470703125,-16.608577728271484,15.291766166687012,-19.683837890625,-209.3963623046875,-203.2623291015625
16.429999900000002,31.744720458984375,-13.03403377532959,12.58152961730957,-21.4385986328125,-238.3575439453125,-242.4163818359375
16.4499999,21.250934600830078,-9.14585018157959,8.80587387084961,-30.120849609375,-169.1741943359375,-291.351318359375
16.4699999,10.247182846069336,-5.370194435119629,4.879383087158203,-24.8565673828125,-12.969970703125,-301.2237548828125
16.4899999,-0.12689268589019775,-1.6759412288665771,1.6711528301239014,-8.72802734375,-46.8597412109375,-311.065673828125
16.5099999,-9.248801231384277,2.8419175148010254,-0.7086837291717529,-37.689208984375,-62.896728515625,-280.517578125
16.5299999,-16.630125045776367,8.085219383239746,-1.5418659448623657,-118.8812255859375,-18.9666748046875,-196.2890625
16.5499999,-21.198261260986328,13.414711952209473,-0.9361328482627869,-131.6070556640625,-28.74755859375,-29.2510986328125
16.5699999,-22.225374221801758,16.94376564025879,0.730231523513794,1.4495849609375,-32.2265625,190.8416748046875
16.589999900000002,-18.461688995361328,17.38669204711914,2.9328970909118652,113.555908203125,-21.17919921875,336.60888671875
16.609999900000002,-9.938331604003906,13.960590362548828,4.49870491027832,135.498046875,-41.900634765625,338.7603759765625
16.6299999,3.1890766620635986,7.625532627105713,4.565742492675781,93.0023193359375,-155.8074951171875,278.4423828125
16.6499999,18.073827743530273,0.14365209639072418,2.9041666984558105,56.7626953125,-214.9658203125,210.1593017578125
16.6699999,30.842105865478516,-6.265625953674316,0.19153612852096558,72.0062255859375,-97.0306396484375,38.7115478515625
16.6899999,37.7110710144043,-10.093954086303711,-2.3343467712402344,72.601318359375,121.4447021484375,-68.6187744140625
16.7099999,38.3622932434082,-10.824186325073242,-3.6822822093963623,67.8863525390625,322.052001953125,-63.90380859375
16.7299999,31.64655876159668,-9.430760383605957,-3.60566782951355,78.4759521484375,-89.6453857421875,-125.2288818359375
16.749999900000002,22.17270278930664,-6.6630635261535645,-2.3942017555236816,-13.12255859375,-355.6976318359375,-251.0833740234375
16.769999900000002,10.99656867980957,-3.7205893993377686,-1.6519991159439087,-0.030517578125,-267.2271728515625,-282.1197509765625
16.7899999,-0.22026655077934265,-0.6727706789970398,-1.6136919260025024,46.56982421875,-156.8145751953125,-284.36279296875
16.8099999,-10.381258964538574,2.96162748336792,-2.6623523235321045,23.2086181640625,-31.9366455078125,-242.2027587890625
16.8299999,-18.993202209472656,6.943184852600098,-3.9647979736328125,-84.0301513671875,31.8450927734375,-154.3731689453125
16.8499999,-24.557327270507812,10.647014617919922,-4.553771495819092,-152.618408203125,96.3134765625,37.139892578125
16.8699999,-25.63471794128418,12.531251907348633,-4.311957359313965,-35.888671875,163.8946533203125,263.763427734375
16.8899999,-20.999542236328125,11.619060516357422,-3.251325845718384,38.87939453125,254.7760009765625,398.86474609375
16.9099999,-10.752359390258789,8.003816604614258,-0.8068459630012512,-46.38671875,368.59130859375,427.3681640625
16.929999900000002,4.491522312164307,2.0207061767578125,2.3080103397369385,-20.8282470703125,456.3140869140625,457.3822021484375
16.9499999,20.803218841552734,-4.417302131652832,6.651092529296875,59.295654296875,309.1888427734375,273.7884521484375
16.9699999,34.61776351928711,-9.797073364257812,11.456254959106445,20.233154296875,-12.20703125,-34.6832275390625
16.9899999,42.152313232421875,-13.019668579101562,15.33725643157959,-15.5487060546875,-200.0579833984375,-156.2957763671875
17.0099999,41.5992546081543,-13.57512378692627,16.922218322753906,49.7894287109375,-280.1361083984375,-235.015869140625
17.0299999,34.01681900024414,-11.887211799621582,15.581464767456055,86.578369140625,-283.721923828125,-242.4774169921875
17.0499999,22.278047561645508,-8.892065048217773,11.927912712097168,-5.462646484375,-272.5677490234375,-272.247314453125
17.0699999,9.445125579833984,-5.66228723526001,6.873753070831299,-81.54296875,-261.474609375,-301.666259765625
17.089999900000002,-2.2649147510528564,-2.6216509342193604,1.4269442558288574,-44.3878173828125,-171.7681884765625,-270.4315185546875
17.109999900000002,-11.889605522155762,0.4884171485900879,-3.265691041946411,-86.883544921875,-33.538818359375,-225.3265380859375
17.1299999,-19.07221031188965,3.7876269817352295,-6.794744491577148,-176.57470703125,17.242431640625,-140.869140625
17.1499999,-23.769634246826172,7.407660007476807,-8.159439086914062,-246.307373046875,18.5394287109375,-76.080322265625
17.1699999,-25.476699829101562,10.953473091125488,-6.722918510437012,-236.87744140625,55.389404296875,60.1959228515625
17.1899999,-23.896526336669922,13.364434242248535,-3.026270866394043,-109.2071533203125,98.846435546875,258.60595703125
17.2099999,-18.684350967407227,13.35964584350586,1.9057846069335938,26.4129638671875,129.7149658203125,402.069091796875
17.2299999,-9.923966407775879,10.5344877243042,7.038952827453613,61.5386962890625,230.804443359375,466.400146484375
17.249999900000002,1.556231141090393,5.099649429321289,11.420342445373535,61.126708984375,262.8326416015625,431.3507080078125
17.269999900000002,15.002067565917969,-2.1045033931732178,14.609418869018555,97.137451171875,152.3284912109375,395.6298828125
17.2899999,28.629863739013672,-9.797073364257812,15.617377281188965,147.2320556640625,-46.7071533203125,347.5494384765625
17.3099999,39.17153549194336,-15.753847122192383,14.48970890045166,102.6153564453125,-153.9306640625,54.3365478515625
17.3299999,44.249637603759766,-19.033903121948242,11.295844078063965,57.9681396484375,-140.8843994140625,-215.4083251953125
17.3499999,42.40610122680664,-18.722658157348633,7.340622425079346,61.09619140625,-101.4862060546875,-267.2576904296875
17.3699999,34.550724029541016,-15.581464767456055,4.1180267333984375,50.3692626953125,-23.8037109375,-286.376953125
17.3899999,23.08010482788086,-11.128249168395996,1.8148049116134644,48.0804443359375,-36.56005859375,-299.468994140625
17.409999900000003,10.764330863952637,-6.732495307922363,0.3423708379268646,4.6539306640625,-219.8944091796875,-356.201171875
17.429999900000002,-0.8427590131759644,-2.808398485183716,-1.1803414821624756,-57.037353515625,-277.0538330078125,-328.5675048828125
17.4499999,-11.35809326171875,0.9385270476341248,-2.9712042808532715,-60.97412109375,-144.6685791015625,-290.1153564453125
17.4699999,-20.10890007019043,4.932055473327637,-4.60165548324585,-94.5892333984375,13.0157470703125,-246.612548828125
17.4899999,-26.779146194458008,8.925583839416504,-5.0900726318359375,-149.0936279296875,80.0323486328125,-123.7640380859375
17.5099999,-30.157363891601562,12.315773963928223,-3.801992416381836,-137.1917724609375,104.98046875,99.5635986328125
17.5299999,-29.032089233398438,13.778631210327148,-0.7589619159698486,-51.727294921875,154.5562744140625,324.64599609375
17.5499999,-21.770475387573242,12.181697845458984,3.2321722507476807,19.775390625,271.453857421875,476.8829345703125
17.5699999,-8.358158111572266,7.623138427734375,7.587224960327148,-1.3885498046875,314.4378662109375,473.175048828125
17.589999900000002,9.583989143371582,0.828393816947937,11.45146656036377,-28.3050537109375,190.3076171875,371.52099609375
17.609999900000002,27.94272804260254,-6.349422931671143,14.211980819702148,19.134521484375,13.00048828125,213.7451171875
17.6299999,41.50109100341797,-11.63342571258545,15.574281692504883,39.9169921875,-106.62841796875,-42.510986328125
17.6499999,46.53849411010742,-13.773842811584473,15.265430450439453,27.862548828125,-158.0352783203125,-230.1788330078125
17.6699999,42.52581024169922,-12.543222427368164,13.4290771484375,88.7908935546875,-144.6533203125,-274.383544921875
17.6899999,31.52445411682129,-9.050082206726074,10.47702693939209,136.9171142578125,-102.294921875,-262.481689453125
17.7099999,18.04030990600586,-4.683058738708496,7.096413612365723,90.179443359375,-197.7996826171875,-251.28173828125
17.7299999,5.078101634979248,-1.158793568611145,3.3446998596191406,38.177490234375,-278.0303955078125,-263.092041015625
17.749999900000002,-5.69580602645874,1.381454348564148,-0.4165911078453064,59.5855712890625,-249.298095703125,-272.15576171875
17.769999900000002,-14.008474349975586,3.0813376903533936,-3.866635799407959,81.8023681640625,-144.012451171875,-285.8428955078125
17.7899999,-20.23579216003418,4.606443881988525,-6.6127848625183105,16.082763671875,8.85009765625,-220.9320068359375
17.8099999,-24.581268310546875,6.320692539215088,-7.659051418304443,-126.922607421875,119.140625,-91.4764404296875
17.8299999,-26.24763298034668,8.26239013671875,-6.572083473205566,-195.220947265625,159.4085693359375,89.90478515625
17.8499999,-24.48550033569336,9.648633003234863,-3.3662476539611816,-153.8238525390625,225.9521484375,293.02978515625
17.8699999,-18.035520553588867,9.730035781860352,1.3096283674240112,-138.1683349609375,280.2886962890625,440.277099609375
17.8899999,-6.988674640655518,8.078036308288574,6.430825710296631,-145.660400390625,265.167236328125,466.339111328125
17.909999900000003,7.556100368499756,4.7189717292785645,11.092336654663086,-95.8404541015625,170.654296875,398.9410400390625
17.929999900000002,22.984336853027344,0.033518824726343155,14.369998931884766,3.662109375,29.9072265625,320.4193115234375
17.9499999,35.34081268310547,-4.264073371887207,15.935806274414062,43.0450439453125,-50.10986328125,116.6534423828125
17.9699999,41.62319564819336,-7.321468830108643,15.70117473602295,12.39013671875,-102.3101806640625,-94.2840576171875
17.9899999,40.931270599365234,-8.221688270568848,13.85763931274414,38.3453369140625,-96.5728759765625,-134.674072265625
18.0099999,33.9354133605957,-7.062894821166992,11.14500904083252,38.5284423828125,-124.755859375,-115.8294677734375
18.0299999,23.788787841796875,-4.776432514190674,8.283937454223633,-6.6986083984375,-223.6785888671875,-165.1153564453125
18.0499999,12.895170211791992,-2.255337953567505,5.288791656494141,-12.14599609375,-211.578369140625,-211.7767333984375
18.0699999,2.8395233154296875,0.019153613597154617,2.207453966140747,35.46142578125,-209.2742919921875,-229.98046875
18.089999900000002,-5.861005783081055,2.183511972427368,-0.6607996821403503,-2.2125244140625,-152.1148681640625,-211.5020751953125
18.109999900000002,-13.33809757232666,4.446032524108887,-3.2585084438323975,-46.20361328125,-40.924072265625,-181.182861328125
18.1299999,-19.244592666625977,6.9695210456848145,-4.819528102874756,-65.00244140625,62.68310546875,-96.37451171875
18.1499999,-23.254880905151367,9.404424667358398,-4.745307922363281,-64.9871826171875,123.260498046875,36.6668701171875
18.1699999,-24.255657196044922,11.092336654663086,-3.050212860107422,-29.8614501953125,190.826416015625,186.859130859375
18.1899999,-21.468807220458984,11.168951034545898,0.023942016065120697,-4.94384765625,265.0909423828125,306.7169189453125
18.2099999,-13.874399185180664,8.813055992126465,3.909731388092041,7.080078125,288.3148193359375,405.3192138671875
18.2299999,-1.3862427473068237,3.9671921730041504,8.039729118347168,27.130126953125,288.7420654296875,434.173583984375
18.249999900000002,14.633360862731934,-2.52109432220459,11.982979774475098,-3.7841796875,149.505615234375,292.999267578125
18.269999900000002,30.411149978637695,-8.89445972442627,14.669273376464844,-3.936767578125,-58.4564208984375,55.17578125
18.2899999,41.604042053222656,-13.175292015075684,15.782577514648438,12.0086669921875,-172.7752685546875,-151.763916015625
18.3099999,44.750022888183594,-14.132972717285156,14.844050407409668,3.0670166015625,-192.93212890625,-241.6534423828125
18.3299999,39.70783615112305,-11.860875129699707,12.287043571472168,-3.8299560546875,-169.25048828125,-231.0791015625
18.3499999,29.214048385620117,-7.63989782333374,8.899248123168945,-19.775390625,-65.0177001953125,-172.9888916015625
18.3699999,16.71631622314453,-2.9712042808532715,5.463568210601807,-3.60107421875,-10.4827880859375,-197.57080078125
18.3899999,5.140350818634033,0.9457096457481384,2.5019407272338867,11.1236572265625,-68.2373046875,-226.348876953125
18.409999900000003,-4.462791919708252,3.957615375518799,0.3208230137825012,-2.2125244140625,-108.0169677734375,-211.395263671875
18.429999900000002,-12.126631736755371,6.1530985832214355,-0.7733271718025208,-40.2679443359375,-73.455810546875,-178.5430908203125
18.4499999,-18.04509735107422,8.006210327148438,-0.7781155705451965,-22.705078125,21.240234375,-141.0064697265625
18.4699999,-22.10566520690918,9.66299819946289,0.5841852426528931,-28.076171875,63.9801025390625,-20.7366943359375
18.4899999,-23.56852149963379,10.776301383972168,2.58813214302063,-6.0577392578125,32.6995849609375,151.5350341796875
18.5099999,-21.63161277770996,10.769119262695312,4.699818134307861,49.530029296875,57.2052001953125,290.7257080078125
18.5299999,-15.210363388061523,9.028534889221191,6.258443355560303,81.512451171875,143.6004638671875,352.8900146484375
18.5499999,-4.240131378173828,5.343858242034912,6.907271862030029,76.23291015625,194.061279296875,372.9248046875
18.5699999,9.751583099365234,0.36152446269989014,6.766014099121094,62.43896484375,145.965576171875,298.8128662109375
18.589999900000002,24.36579132080078,-5.066130638122559,5.774814605712891,60.394287109375,53.7109375,174.072265625
18.609999900000002,36.03752517700195,-9.526528358459473,4.256890773773193,-7.8125,-58.929443359375,58.10546875
18.6299999,41.91768264770508,-11.908759117126465,2.449268341064453,-104.18701171875,-122.0855712890625,-68.5577392578125
18.6499999,40.99831008911133,-11.681309700012207,0.8571242094039917,-141.632080078125,-28.3050537109375,-148.8494873046875
18.6699999,34.349613189697266,-9.124302864074707,-0.1412578970193863,-114.8834228515625,40.1458740234375,-187.0880126953125
18.6899999,24.499866485595703,-5.142745018005371,-0.37828385829925537,-118.133544921875,-41.8853759765625,-197.1893310546875
18.7099999,13.991714477539062,-0.8379706144332886,0.033518824726343155,-133.026123046875,-102.935791015625,-169.4793701171875
18.7299999,4.671087741851807,2.942473888397217,1.2497732639312744,-112.823486328125,-95.3826904296875,-154.693603515625
18.749999900000002,-3.1196448802948,5.92325496673584,3.359065055847168,-65.49072265625,9.3536376953125,-146.087646484375
18.769999900000002,-9.888052940368652,8.451532363891602,7.196970462799072,-90.5914306640625,49.9114990234375,-175.4302978515625
18.7899999,-15.729905128479004,10.630255699157715,11.592724800109863,-40.6646728515625,-5.8441162109375,-106.4605712890625
18.8099999,-19.960458755493164,11.999738693237305,15.325284957885742,104.91943359375,-82.8704833984375,96.13037109375
18.8299999,-21.590911865234375,11.944672584533691,16.970102310180664,175.0030517578125,-34.7137451171875,266.4031982421875
18.8499999,-19.50316619873047,10.031704902648926,15.665261268615723,166.7022705078125,53.4210205078125,304.0771484375
18.8699999,-13.230358123779297,5.8657941818237305,12.385205268859863,143.8751220703125,90.9423828125,305.5877685546875
18.8899999,-2.164358377456665,-0.37828385829925537,8.4108304977417,185.699462890625,121.673583984375,364.898681640625
18.909999900000003,12.191274642944336,-7.362170219421387,4.922478675842285,187.43896484375,127.532958984375,300.750732421875
18.929999900000002,27.085603713989258,-13.982137680053711,1.9249382019042969,119.44580078125,29.1290283203125,75.2716064453125
18.9499999,38.8626823425293,-18.34676742553711,-0.47884035110473633,36.8499755859375,-113.525390625,-116.6534423828125
18.9699999,43.715728759765625,-19.20628547668457,-2.2242133617401123,-65.12451171875,-142.730712890625,-206.9091796875
18.9899999,40.96479034423828,-16.34760856628418,-3.045424461364746,-113.6474609375,-80.4595947265625,-228.5003662109375
19.0099999,32.532413482666016,-10.843339920043945,-2.9065608978271484,-74.1729736328125,6.866455078125,-243.6065673828125
19.0299999,21.464017868041992,-4.314351558685303,-1.9991583824157715,-41.0614013671875,14.678955078125,-258.2550048828125
19.0499999,10.821791648864746,1.8483237028121948,-0.6727706789970398,-73.5015869140625,-45.8221435546875,-246.551513671875
19.0699999,1.9776105880737305,6.7492547035217285,1.0869675874710083,-102.264404296875,-110.9771728515625,-196.1822509765625
19.089999900000002,-4.78122091293335,10.225635528564453,4.271255970001221,-98.175048828125,-45.1202392578125,-156.9671630859375
19.109999900000002,-9.931148529052734,12.306197166442871,10.17296314239502,-86.3189697265625,66.650390625,-96.1151123046875
19.1299999,-13.084312438964844,12.866439819335938,17.415422439575195,37.567138671875,-38.2080078125,24.23095703125
19.1499999,-13.917494773864746,11.54244613647461,23.52063751220703,237.9913330078125,-245.635986328125,170.3338623046875
19.1699999,-11.975796699523926,8.396465301513672,25.63471794128418,316.9403076171875,-307.6629638671875,184.9212646484375
19.1899999,-7.513004779815674,3.952826976776123,21.380220413208008,332.70263671875,-259.6588134765625,122.283935546875
19.2099999,-1.886630892753601,-0.7637503147125244,11.671732902526855,333.55712890625,-231.3995361328125,72.7081298828125
19.2299999,3.576937437057495,-4.707000732421875,-1.3479355573654175,285.5682373046875,-177.0782470703125,43.243408203125
19.249999900000002,7.829039573669434,-7.110779285430908,-15.502455711364746,195.6787109375,-90.8966064453125,28.74755859375
19.269999900000002,10.122684478759766,-8.008605003356934,-27.878084182739258,2.0904541015625,-9.063720703125,-9.796142578125
19.2899999,10.050858497619629,-7.297526836395264,-36.257789611816406,-152.52685546875,110.992431640625,-69.2596435546875
19.3099999,7.908048152923584,-5.540182590484619,-38.77409744262695,-225.6927490234375,235.076904296875,-93.26171875
19.3299999,4.527435302734375,-3.2848446369171143,-35.06547927856445,-286.407470703125,241.973876953125,-51.81884765625
19.3499999,1.3958195447921753,-1.259350061416626,-26.508602142333984,-316.1773681640625,201.7364501953125,13.519287109375
19.3699999,-0.7445967197418213,-0.014365210197865963,-14.590265274047852,-326.11083984375,191.5130615234375,38.26904296875
19.3899999,-1.7501614093780518,0.22744916379451752,-0.10773907601833344,-298.2635498046875,232.5592041015625,42.3736572265625
19.409999900000003,-2.1140801906585693,-0.545877993106842,16.565481185913086,-234.588623046875,222.22900390625,61.431884765625
19.429999900000002,-1.5753847360610962,-1.3623007535934448,31.986534118652344,-55.48095703125,-16.6473388671875,72.8759765625
19.4499999,-0.1628057211637497,-2.494758129119873,42.23611068725586,251.2054443359375,-268.402099609375,99.090576171875
19.4699999,2.3511061668395996,-3.270479440689087,44.27836608886719,337.0819091796875,-289.2303466796875,81.8939208984375
19.4899999,5.250484466552734,-3.907337188720703,37.24659729003906,262.908935546875,-244.62890625,3.692626953125
19.5099999,7.582436561584473,-4.675876140594482,24.401702880859375,256.7901611328125,-205.108642578125,-20.1263427734375
19.5299999,8.719682693481445,-5.461174011230469,9.428366661071777,283.843994140625,-190.0787353515625,-27.4810791015625
19.5499999,8.561665534973145,-5.736507415771484,-5.66228723526001,233.45947265625,-185.5621337890625,-49.13330078125
19.5699999,7.709329605102539,-5.432443618774414,-19.898210525512695,99.395751953125,-121.185302734375,-44.2047119140625
19.589999900000002,6.277596950531006,-4.266467571258545,-32.300174713134766,-40.802001953125,-18.829345703125,-35.186767578125
19.609999900000002,4.697423934936523,-2.477998733520508,-40.40215301513672,-207.763671875,117.919921875,-39.6881103515625
19.6299999,3.0885202884674072,-0.6272808313369751,-42.48271560668945,-309.14306640625,247.6654052734375,-40.8782958984375
19.6499999,1.9632453918457031,0.9002198576927185,-37.691917419433594,-337.890625,272.9339599609375,-4.791259765625
19.6699999,1.5059528350830078,1.7717092037200928,-27.238832473754883,-315.9942626953125,256.2103271484375,37.0941162109375
19.6899999,1.723825216293335,2.032677173614502,-13.230358123779297,-277.83203125,280.6243896484375,46.0357666015625
19.7099999,1.8794482946395874,1.6208745241165161,2.9089550971984863,-281.951904296875,279.754638671875,32.5469970703125
19.7299999,1.577778935432434,0.811634361743927,20.307619094848633,-258.3160400390625,152.587890625,36.6668701171875
19.749999900000002,1.1875240802764893,-0.028730420395731926,35.441368103027344,-36.4837646484375,-96.038818359375,75.775146484375
19.769999900000002,1.2210428714752197,-1.0582371950149536,45.18337631225586,242.2027587890625,-279.0069580078125,118.9727783203125
19.7899999,2.145204782485962,-2.1787235736846924,46.85452651977539,299.3927001953125,-328.6590576171875,106.6131591796875
19.8099999,3.778050184249878,-3.4979286193847656,39.942466735839844,274.59716796875,-327.117919921875,43.975830078125
19.8299999,4.972756862640381,-5.195417881011963,27.53571319580078,286.7279052734375,-323.3642578125,-11.6119384765625
19.8499999,5.30076265335083,-6.828263282775879,13.625401496887207,261.4288330078125,-317.44384765625,-24.322509765625
19.8699999,4.584896087646484,-8.159439086914062,0.5841852426528931,230.16357421875,-292.938232421875,-47.149658203125
19.8899999,3.44765043258667,-8.87291145324707,-11.075576782226562,256.500244140625,-227.508544921875,-59.0057373046875
19.909999900000003,2.2601263523101807,-8.767566680908203,-21.729774475097656,201.904296875,-173.9044189453125,-41.7022705078125
19.929999900000002,0.9648633003234863,-7.73087739944458,-31.29939842224121,-8.1939697265625,-131.134033203125,-39.276123046875
19.9499999,-0.5315127968788147,-5.882553577423096,-38.03428649902344,-221.6796875,15.80810546875,-65.4449462890625
19.9699999,-2.4444799423217773,-3.3279404640197754,-40.4859504699707,-273.5595703125,209.2742919921875,-77.6214599609375
19.9899999,-4.299986362457275,-0.3902548849582672,-37.19871139526367,-279.72412109375,273.4222412109375,-36.6363525390625
20.0099999,-5.413290023803711,2.1954829692840576,-28.96984100341797,-309.0972900390625,255.55419921875,49.8046875
20.0299999,-4.754884719848633,3.5960910320281982,-18.40183448791504,-248.0316162109375,278.564453125,139.984130859375
20.0499999,-2.032677173614502,3.445256233215332,-6.97430944442749,-227.05078125,326.2481689453125,158.02001953125
