# Time (seconds),Accel_X,Accel_Y,Accel_Z,Gyro_X,Gyro_Y,Gyro_Z
0.0099999,-0.3734954595565796,-6.8593878746032715,7.2113356590271,0.0457763671875,-1.3275146484375,-0.1068115234375
0.029999900000000003,-0.3687070608139038,-6.854599475860596,7.220912456512451,0.0152587890625,-1.3885498046875,-0.152587890625
0.0499999,-0.3687070608139038,-6.847416877746582,7.225700855255127,0.030517578125,-1.1749267578125,-0.3204345703125
0.0699999,-0.37828385829925537,-6.847416877746582,7.225700855255127,0,-1.3580322265625,0
0.08999990000000001,-0.3878606855869293,-6.847416877746582,7.223306655883789,-0.1068115234375,-1.3427734375,-0.152587890625
0.10999990000000001,-0.3902548849582672,-6.852205276489258,7.218518257141113,0.2899169921875,-1.1749267578125,-0.244140625
0.1299999,-0.38546648621559143,-6.854599475860596,7.2113356590271,0.0457763671875,-1.312255859375,-0.0762939453125
0.14999990000000002,-0.3734954595565796,-6.856993675231934,7.208941459655762,0,-1.434326171875,-0.030517578125
0.1699999,-0.3663128614425659,-6.8593878746032715,7.208941459655762,0.152587890625,-1.28173828125,-0.1373291015625
0.1899999,-0.363918662071228,-6.8593878746032715,7.208941459655762,0.1068115234375,-1.312255859375,-0.274658203125
0.20999990000000002,-0.3711012601852417,-6.861782073974609,7.2113356590271,0.1373291015625,-1.40380859375,-0.152587890625
0.2299999,-0.38067805767059326,-6.8593878746032715,7.2137298583984375,0.152587890625,-1.2969970703125,-0.152587890625
0.2499999,-0.38307225704193115,-6.856993675231934,7.218518257141113,0.1678466796875,-1.2359619140625,-0.1678466796875
0.2699999,-0.38067805767059326,-6.854599475860596,7.225700855255127,-0.091552734375,-1.2969970703125,-0.091552734375
0.28999990000000003,-0.3711012601852417,-6.84981107711792,7.230489253997803,0.0152587890625,-1.2054443359375,-0.1220703125
0.3099999,-0.3663128614425659,-6.84981107711792,7.230489253997803,0.06103515625,-1.28173828125,-0.1373291015625
0.3299999,-0.3687070608139038,-6.84981107711792,7.223306655883789,-0.0152587890625,-1.4190673828125,-0.06103515625
0.34999990000000003,-0.3758896589279175,-6.852205276489258,7.218518257141113,0.1220703125,-1.312255859375,-0.152587890625
0.3699999,-0.38546648621559143,-6.852205276489258,7.218518257141113,0.213623046875,-1.15966796875,-0.274658203125
0.3899999,-0.3902548849582672,-6.852205276489258,7.216124057769775,-0.030517578125,-1.312255859375,-0.1373291015625
0.40999990000000003,-0.3878606855869293,-6.852205276489258,7.218518257141113,-0.1983642578125,-1.40380859375,-0.0457763671875
0.4299999,-0.3758896589279175,-6.854599475860596,7.218518257141113,0.0762939453125,-1.2969970703125,-0.1678466796875
0.4499999,-0.3663128614425659,-6.8593878746032715,7.2137298583984375,0.1068115234375,-1.251220703125,-0.152587890625
0.4699999,-0.363918662071228,-6.864176273345947,7.2113356590271,0.091552734375,-1.3885498046875,-0.091552734375
0.4899999,-0.3687070608139038,-6.864176273345947,7.208941459655762,0.2899169921875,-1.28173828125,-0.2288818359375
0.5099999,-0.38067805767059326,-6.8593878746032715,7.2113356590271,0.213623046875,-1.2359619140625,-0.213623046875
0.5299999,-0.3878606855869293,-6.852205276489258,7.218518257141113,-0.0152587890625,-1.373291015625,-0.1068115234375
0.5499999,-0.3902548849582672,-6.845022678375244,7.225700855255127,0.091552734375,-1.3427734375,-0.1983642578125
0.5699999,-0.38546648621559143,-6.840234279632568,7.232883453369141,0.06103515625,-1.3427734375,-0.1983642578125
0.5899998999999999,-0.37828385829925537,-6.840234279632568,7.230489253997803,-0.1220703125,-1.4495849609375,-0.1220703125
0.6099998999999999,-0.3711012601852417,-6.845022678375244,7.225700855255127,0.030517578125,-1.3885498046875,-0.213623046875
0.6299999,-0.3687070608139038,-6.84981107711792,7.220912456512451,0.1068115234375,-1.2359619140625,-0.2593994140625
0.6499999,-0.3711012601852417,-6.8593878746032715,7.2137298583984375,0,-1.3427734375,-0.1220703125
0.6699999,-0.3734954595565796,-6.861782073974609,7.2137298583984375,-0.0457763671875,-1.312255859375,-0.18310546875
0.6899999,-0.3758896589279175,-6.864176273345947,7.2137298583984375,0.1373291015625,-1.2359619140625,-0.1983642578125
0.7099999,-0.37828385829925537,-6.864176273345947,7.2137298583984375,0.0457763671875,-1.40380859375,-0.091552734375
0.7299998999999999,-0.38067805767059326,-6.861782073974609,7.216124057769775,0.0457763671875,-1.312255859375,-0.18310546875
0.7499998999999999,-0.38067805767059326,-6.856993675231934,7.218518257141113,0.1678466796875,-1.220703125,-0.244140625
0.7699999,-0.37828385829925537,-6.852205276489258,7.223306655883789,0.1220703125,-1.28173828125,-0.1220703125
0.7899999,-0.3734954595565796,-6.847416877746582,7.228095054626465,0.0762939453125,-1.3275146484375,-0.1373291015625
0.8099999,-0.3711012601852417,-6.847416877746582,7.230489253997803,-0.030517578125,-1.3580322265625,-0.1373291015625
0.8299999,-0.3687070608139038,-6.84981107711792,7.230489253997803,-0.1220703125,-1.28173828125,-0.1220703125
0.8499998999999999,-0.3711012601852417,-6.856993675231934,7.223306655883789,-0.0762939453125,-1.3580322265625,-0.0762939453125
0.8699998999999999,-0.3711012601852417,-6.861782073974609,7.2137298583984375,0.06103515625,-1.2664794921875,-0.18310546875
0.8899999,-0.3734954595565796,-6.868964672088623,7.206547260284424,0.1983642578125,-1.2359619140625,-0.1373291015625
0.9099999,-0.3734954595565796,-6.866570472717285,7.201758861541748,0.1983642578125,-1.3275146484375,-0.152587890625
0.9299999,-0.3734954595565796,-6.861782073974609,7.206547260284424,0.2899169921875,-1.2359619140625,-0.18310546875
0.9499999,-0.3758896589279175,-6.852205276489258,7.218518257141113,0.1220703125,-1.2969970703125,-0.1373291015625
0.9699998999999999,-0.37828385829925537,-6.845022678375244,7.228095054626465,-0.152587890625,-1.3427734375,-0.0457763671875
0.9899998999999999,-0.38067805767059326,-6.840234279632568,7.2352776527404785,-0.1373291015625,-1.3885498046875,-0.1220703125
1.0099999,-0.37828385829925537,-6.842628479003906,7.2352776527404785,0.0762939453125,-1.251220703125,-0.1068115234375
1.0299999,-0.3758896589279175,-6.84981107711792,7.228095054626465,-0.091552734375,-1.2359619140625,-0.1678466796875
1.0499999,-0.3711012601852417,-6.856993675231934,7.218518257141113,0.0152587890625,-1.312255859375,-0.1678466796875
1.0699999,-0.3663128614425659,-6.861782073974609,7.2137298583984375,0.18310546875,-1.220703125,-0.213623046875
1.0899999,-0.3687070608139038,-6.864176273345947,7.208941459655762,0.0762939453125,-1.28173828125,-0.2288818359375
1.1099999,-0.3711012601852417,-6.866570472717285,7.206547260284424,0.1220703125,-1.373291015625,-0.091552734375
1.1299999,-0.3758896589279175,-6.861782073974609,7.2113356590271,0.1983642578125,-1.220703125,-0.213623046875
1.1499999,-0.37828385829925537,-6.861782073974609,7.218518257141113,0.1373291015625,-1.2969970703125,-0.1220703125
1.1699998999999999,-0.3758896589279175,-6.854599475860596,7.225700855255127,0.0152587890625,-1.3580322265625,-0.06103515625
1.1899998999999999,-0.3711012601852417,-6.847416877746582,7.2352776527404785,0.1068115234375,-1.220703125,-0.152587890625
1.2099999,-0.3663128614425659,-6.842628479003906,7.240066051483154,-0.06103515625,-1.40380859375,-0.152587890625
1.2299999,-0.3687070608139038,-6.840234279632568,7.237671852111816,-0.1373291015625,-1.40380859375,-0.1373291015625
1.2499999,-0.3734954595565796,-6.845022678375244,7.228095054626465,-0.06103515625,-1.3580322265625,-0.06103515625
1.2699999,-0.38067805767059326,-6.852205276489258,7.216124057769775,0.1678466796875,-1.28173828125,-0.1678466796875
1.2899999,-0.38546648621559143,-6.861782073974609,7.204153060913086,0.1983642578125,-1.2969970703125,-0.1678466796875
1.3099999,-0.38307225704193115,-6.864176273345947,7.201758861541748,0.1678466796875,-1.2054443359375,-0.18310546875
1.3299999,-0.37828385829925537,-6.864176273345947,7.204153060913086,0.2288818359375,-1.251220703125,-0.1678466796875
1.3499999,-0.3734954595565796,-6.8593878746032715,7.2113356590271,0.091552734375,-1.373291015625,-0.091552734375
1.3699999,-0.3711012601852417,-6.852205276489258,7.220912456512451,-0.030517578125,-1.373291015625,-0.091552734375
1.3899999,-0.3758896589279175,-6.847416877746582,7.225700855255127,0.06103515625,-1.28173828125,-0.152587890625
1.4099999,-0.38067805767059326,-6.847416877746582,7.228095054626465,-0.091552734375,-1.2359619140625,-0.152587890625
1.4299998999999999,-0.38307225704193115,-6.847416877746582,7.228095054626465,-0.0457763671875,-1.3275146484375,-0.1068115234375
1.4499999,-0.38307225704193115,-6.84981107711792,7.225700855255127,0.06103515625,-1.3275146484375,-0.1678466796875
1.4699999,-0.38067805767059326,-6.854599475860596,7.220912456512451,0.06103515625,-1.3275146484375,-0.0762939453125
1.4899999,-0.4884171485900879,-6.143521785736084,8.152256965637207,6.2713623046875,13.671875,-2.2125244140625
1.5099999,-0.5147533416748047,-6.5912370681762695,8.221688270568848,-52.9327392578125,-23.6968994140625,23.6968994140625
1.5299999,-0.8954314589500427,-6.794744491577148,8.248024940490723,-194.5953369140625,-66.8487548828125,-3.1890869140625
1.5499999,-1.0630255937576294,-8.422801971435547,8.494627952575684,33.2489013671875,70.6787109375,-60.821533203125
1.5699999,-1.2880805730819702,-11.08754825592041,8.60236644744873,5.67626953125,44.49462890625,-65.3076171875
1.5899999,-1.4269442558288574,-12.665327072143555,8.925583839416504,-32.562255859375,-52.5360107421875,-118.2708740234375
1.6099999,-1.1420341730117798,-14.911087989807129,10.000580787658691,127.288818359375,-33.599853515625,-60.36376953125
1.6299999,-1.1779472827911377,-15.88074016571045,10.47702693939209,97.7935791015625,-21.1334228515625,-10.6353759765625
1.6499999,-0.9720458984375,-17.42978858947754,10.369287490844727,39.8101806640625,-15.899658203125,-38.177490234375
1.6699999,-0.9983820915222168,-18.435352325439453,10.642226219177246,-15.472412109375,18.8751220703125,-142.1051025390625
1.6899998999999999,-1.192312479019165,-19.37388038635254,10.366893768310547,73.2879638671875,-66.802978515625,-198.089599609375
1.7099999,-1.3718775510787964,-18.365921020507812,9.847352027893066,189.9871826171875,-119.110107421875,-164.24560546875
1.7299999,-1.7381904125213623,-15.816096305847168,8.760383605957031,300.78125,-24.5513916015625,-4.8980712890625
1.7499999,-1.8195933103561401,-11.389217376708984,6.794744491577148,401.0772705078125,106.7657470703125,149.5819091796875
1.7699999,-1.2114660739898682,-5.729324817657471,4.098873138427734,444.5037841796875,187.5,268.1121826171875
1.7899999,0.8188169598579407,0.35673606395721436,0.9888052940368652,408.4625244140625,213.6993408203125,341.766357421875
1.8099999,4.651933670043945,6.552929878234863,-1.2545616626739502,290.6494140625,253.7841796875,350.6622314453125
1.8299999,9.248801231384277,11.975796699523926,-2.9664158821105957,266.7083740234375,177.8106689453125,319.0460205078125
1.8499999,13.412318229675293,16.553510665893555,-3.1507694721221924,164.55078125,66.6046142578125,201.507568359375
1.8699999,15.24627685546875,18.727445602416992,-2.719813108444214,-39.7491455078125,55.5572509765625,8.23974609375
1.8899999,12.339715957641602,15.705963134765625,-1.656787633895874,-309.539794921875,20.4925537109375,-247.100830078125
1.9099999,4.977545261383057,6.155492782592773,0.7326257228851318,-500,-1.9989013671875,-426.513671875
1.9299998999999999,-5.329493045806885,-7.2352776527404785,3.1962592601776123,-500,45.1202392578125,-333.7249755859375
1.9499999,-14.822503089904785,-20.810401916503906,4.869806289672852,17.6544189453125,19.7906494140625,120.1324462890625
1.9699999,-19.50556182861328,-28.682537078857422,6.0597243309021,98.08349609375,-54.8553466796875,421.7529296875
1.9899999,-17.549497604370117,-28.723237991333008,6.428431510925293,74.76806640625,-177.9022216796875,319.549560546875
2.0099999,-9.5408935546875,-22.143972396850586,7.4986395835876465,159.637451171875,-233.6578369140625,172.821044921875
2.0299999,1.7357962131500244,-11.961431503295898,9.797073364257812,222.5799560546875,-160.0494384765625,148.193359375
2.0499999,12.641385078430176,-0.9911994934082031,12.167332649230957,231.689453125,-10.7879638671875,153.8238525390625
2.0699999,20.563798904418945,8.528146743774414,13.19205093383789,193.8629150390625,59.7381591796875,60.4400634765625
2.0899999,23.609222412109375,15.219940185546875,12.05959415435791,57.7545166015625,100.799560546875,-68.6492919921875
2.1099999,21.504718780517578,17.786523818969727,8.638279914855957,-87.677001953125,169.403076171875,-185.577392578125
2.1299999,14.439430236816406,15.919047355651855,4.1874589920043945,-211.0443115234375,263.824462890625,-213.8519287109375
2.1499999,3.555389642715454,9.102754592895508,-0.6129156351089478,-263.427734375,241.0125732421875,-278.50341796875
2.1699999,-8.700529098510742,-1.455674648284912,-4.036623954772949,-282.257080078125,47.8363037109375,-370.8343505859375
2.1899999,-19.484012603759766,-12.531251907348633,-5.449203014373779,-177.8411865234375,-120.269775390625,-199.3255615234375
2.2099999,-25.419239044189453,-21.169530868530273,-4.93923807144165,-3.082275390625,-149.3377685546875,172.91259765625
2.2299999,-24.162282943725586,-24.463953018188477,-2.097320795059204,61.370849609375,-195.7855224609375,354.43115234375
2.2499999,-16.505626678466797,-22.139183044433594,2.492363929748535,41.015625,-300.6744384765625,231.109619140625
2.2699999,-4.367023944854736,-15.849615097045898,7.869740962982178,79.986572265625,-328.948974609375,110.626220703125
2.2899999,8.415618896484375,-7.752425193786621,13.127408027648926,119.0338134765625,-217.193603515625,94.268798828125
2.3099999,18.9453182220459,0.15083470940589905,16.488866806030273,131.6680908203125,-22.369384765625,100.982666015625
2.3299999,25.268404006958008,6.44279670715332,16.83363151550293,89.019775390625,58.77685546875,19.439697265625
2.3499999,26.1087703704834,10.259154319763184,14.79616641998291,-57.281494140625,235.7330322265625,-91.85791015625
2.3699999,22.033838272094727,10.931924819946289,10.654197692871094,-148.895263671875,406.6925048828125,-126.2664794921875
2.3899999,12.682085990905762,7.795520782470703,5.374982833862305,-109.86328125,430.267333984375,-200.0732421875
2.4099999,-0.8259995579719543,0.17717093229293823,-0.26336219906806946,-164.0777587890625,288.0706787109375,-428.4515380859375
2.4299999,-15.047557830810547,-9.605537414550781,-4.752490520477295,-234.2071533203125,-12.87841796875,-390.4876708984375
2.4499999,-26.204538345336914,-19.38345718383789,-7.252037048339844,-136.077880859375,-218.048095703125,27.069091796875
2.4699999,-30.336929321289062,-25.280376434326172,-6.485892295837402,12.2528076171875,-190.36865234375,309.356689453125
2.4899999,-25.27558708190918,-25.526979446411133,-2.7317841053009033,84.5489501953125,-241.8670654296875,340.7440185546875
2.5099999,-13.390769958496094,-20.52549171447754,3.3016040325164795,90.75927734375,-268.06640625,254.5623779296875
2.5299999,2.027888774871826,-12.653355598449707,9.48343276977539,130.2947998046875,-209.564208984375,223.9227294921875
2.5499999,16.21592903137207,-3.9240965843200684,14.939818382263184,155.09033203125,-33.233642578125,201.568603515625
2.5699999,25.541343688964844,3.931279182434082,17.42978858947754,176.81884765625,139.8773193359375,29.3731689453125
2.5899999,29.120676040649414,9.232041358947754,15.887922286987305,234.5733642578125,4.241943359375,-120.8953857421875
2.6099999,25.730485916137695,11.623848915100098,12.09550666809082,17.242431640625,107.6202392578125,-215.6829833984375
2.6299999,16.745046615600586,9.579200744628906,6.100425720214844,-213.6993408203125,350.1739501953125,-315.7806396484375
2.6499999,2.6408045291900635,2.806004285812378,0.3016694188117981,-285.8734130859375,324.676513671875,-356.0943603515625
2.6699999,-13.15853214263916,-7.673416614532471,-4.271255970001221,-355.1788330078125,86.8377685546875,-394.04296875
2.6899999,-26.85336685180664,-18.392257690429688,-6.797138690948486,-246.3531494140625,-177.0172119140625,-230.8807373046875
2.7099999,-34.35200500488281,-26.338613510131836,-7.4316020011901855,-66.375732421875,-235.748291015625,89.3402099609375
2.7299999,-32.905906677246094,-28.239608764648438,-5.834669589996338,63.1561279296875,-177.764892578125,280.8685302734375
2.7499999,-23.494300842285156,-24.72013282775879,-2.851494312286377,111.297607421875,-241.63818359375,285.064697265625
2.7699999,-9.047688484191895,-17.84638023376465,1.3766659498214722,58.53271484375,-330.8258056640625,211.42578125
2.7899999,7.094019412994385,-10.261548042297363,6.801927089691162,0.457763671875,-292.5872802734375,154.7088623046875
2.8099999,21.39698028564453,-3.598485231399536,12.473791122436523,38.787841796875,-97.0611572265625,121.76513671875
2.8299999,31.131805419921875,1.3024457693099976,16.95334243774414,120.4376220703125,130.2337646484375,33.599853515625
2.8499999,33.95935821533203,4.623203277587891,18.6053409576416,137.8021240234375,198.54736328125,-164.73388671875
2.8699999,30.8085880279541,5.736507415771484,16.395492553710938,144.287109375,43.548583984375,-246.3226318359375
2.8899999,21.238964080810547,4.1874589920043945,11.348516464233398,48.736572265625,122.9095458984375,-184.722900390625
2.9099999,6.818686485290527,-0.7230489253997803,4.7189717292785645,-218.6279296875,416.3360595703125,-285.2325439453125
2.9299999,-9.911994934082031,-8.810662269592285,-1.501164436340332,-263.8397216796875,231.292724609375,-313.1561279296875
2.9499999,-25.52458381652832,-17.525556564331055,-5.8442463874816895,-175.0640869140625,-29.4189453125,-187.6373291015625
2.9699999,-35.67599868774414,-23.9420166015625,-8.142680168151855,-7.598876953125,-139.404296875,126.4190673828125
2.9899999,-36.68874740600586,-25.63471794128418,-8.238448143005371,119.56787109375,-147.15576171875,344.6044921875
3.0099999,-28.38565444946289,-22.503101348876953,-6.27280855178833,96.61865234375,-222.4578857421875,314.239501953125
3.0299999,-13.24472427368164,-16.4816837310791,-2.2888567447662354,35.7818603515625,-357.36083984375,185.60791015625
3.0499999,4.630385875701904,-10.034099578857422,3.8163576126098633,46.966552734375,-366.0736083984375,112.2589111328125
3.0699999,21.38261604309082,-4.7189717292785645,10.685321807861328,118.255615234375,-116.69921875,115.7073974609375
3.0899999,33.53079605102539,-0.9840168952941895,16.28775405883789,205.108642578125,165.6036376953125,13.2293701171875
3.1099999,38.77409744262695,1.2042834758758545,18.52633285522461,211.9598388671875,239.013671875,-175.9033203125
3.1299999,36.48044967651367,2.0853497982025146,16.76420021057129,90.972900390625,282.9437255859375,-284.637451171875
3.1499999,26.84857749938965,1.455674648284912,11.621455192565918,-51.0406494140625,375.2593994140625,-289.154052734375
3.1699999,10.96544361114502,-1.3910311460494995,4.548983097076416,-110.9466552734375,363.525390625,-280.45654296875
3.1899999,-8.42040729522705,-6.967126846313477,-2.674323320388794,-104.5379638671875,116.4703369140625,-300.9490966796875
3.2099999,-26.884490966796875,-13.7666597366333,-7.95832633972168,-109.527587890625,-60.516357421875,-168.670654296875
3.2299999,-39.995140075683594,-19.517532348632812,-10.51054573059082,-55.4351806640625,-63.3697509765625,86.7156982421875
3.2499999,-43.8162841796875,-22.321142196655273,-10.376470565795898,197.32666015625,-122.13134765625,335.1898193359375
3.2699999,-37.646427154541016,-20.980388641357422,-7.960720539093018,282.6385498046875,-221.3897705078125,356.0638427734375
3.2899999,-23.973140716552734,-17.341203689575195,-4.1180267333984375,113.7847900390625,-292.572021484375,309.7381591796875
3.3099999,-6.435614109039307,-12.634202003479004,0.38546648621559143,-9.58251953125,-349.9603271484375,198.4405517578125
3.3299999000000002,11.439496040344238,-8.38449478149414,5.7341132164001465,22.52197265625,-311.95068359375,132.14111328125
3.3499999,26.86773109436035,-4.668693542480469,11.243170738220215,-0.8392333984375,-68.4051513671875,142.7764892578125
3.3699999,37.4572868347168,-1.6041151285171509,15.377957344055176,31.1431884765625,141.05224609375,55.0384521484375
3.3899999,41.762062072753906,0.7086837291717529,17.144878387451172,117.5689697265625,184.2498779296875,-139.556884765625
3.4099999,39.60009765625,2.279279947280884,16.079458236694336,109.588623046875,204.28466796875,-275.9552001953125
3.4299999,31.747114181518555,3.045424461364746,12.322956085205078,4.974365234375,264.6331787109375,-322.052001953125
3.4499999,19.043479919433594,1.8698714971542358,6.71334171295166,-153.5797119140625,344.0093994140625,-331.2225341796875
3.4699999,2.3511061668395996,-2.9089550971984863,0.24420857429504395,-348.3123779296875,283.2183837890625,-390.8843994140625
3.4899999,-15.002067565917969,-10.36449909210205,-4.817133903503418,-271.8963623046875,-5.706787109375,-410.919189453125
3.5099999,-29.747955322265625,-18.629283905029297,-7.204153060913086,-128.7384033203125,-104.248046875,-166.6717529296875
3.5299999,-37.586570739746094,-23.87497901916504,-6.672640323638916,31.5093994140625,29.144287109375,148.681640625
3.5499999,-36.21229934692383,-24.159889221191406,-3.670311212539673,270.2178955078125,-35.0341796875,311.6912841796875
3.5699999,-27.3537540435791,-19.615694046020508,0.07900865375995636,263.4735107421875,-109.283447265625,229.5989990234375
3.5899999,-15.049951553344727,-12.801796913146973,3.529053211212158,57.92236328125,-82.305908203125,62.0269775390625
3.6099999,-3.44765043258667,-6.222530364990234,6.191405773162842,-23.9715576171875,-23.74267578125,-10.25390625
3.6299999,4.584896087646484,-1.3623007535934448,8.226476669311523,-1.40380859375,38.9251708984375,16.9525146484375
3.6499999,8.26239013671875,1.403002142906189,9.586383819580078,-3.5552978515625,81.97021484375,60.5010986328125
3.6699999,8.293514251708984,2.0590133666992188,10.086771965026855,4.5166015625,75.042724609375,50.384521484375
3.6899999,6.078877925872803,1.2066776752471924,9.981427192687988,8.72802734375,47.79052734375,-7.965087890625
3.7099999,2.983175277709961,-0.47644615173339844,9.63187313079834,-19.7906494140625,24.505615234375,-43.701171875
3.7299999,-0.10295066982507706,-2.367865562438965,9.222464561462402,-38.6505126953125,5.8135986328125,-40.5120849609375
3.7499999,-2.631227731704712,-3.9624037742614746,8.944737434387207,-35.6597900390625,3.9215087890625,-18.61572265625
3.7699999,-4.388571739196777,-4.946420669555664,8.796297073364258,-22.6898193359375,12.0849609375,-7.3394775390625
3.7899999,-5.317522048950195,-5.260061264038086,8.712499618530273,-12.7105712890625,13.7939453125,-6.2713623046875
3.8099999,-5.664681434631348,-5.130774021148682,8.583212852478027,-11.444091796875,13.0767822265625,-7.7667236328125
3.8299999000000002,-5.669469833374023,-4.754884719848633,8.377311706542969,-16.1285400390625,18.8751220703125,-9.6893310546875
3.8499999,-5.547365188598633,-4.350264549255371,8.090007781982422,-15.533447265625,19.9737548828125,-0.6256103515625
3.8699999,-5.480327606201172,-3.998316764831543,7.711723804473877,-14.9078369140625,19.561767578125,5.55419921875
3.8899999,-5.497087001800537,-3.7493197917938232,7.2568254470825195,-22.979736328125,22.9034423828125,6.8206787109375
3.9099999,-5.626373767852783,-3.6798880100250244,6.787561893463135,-35.4156494140625,29.052734375,9.58251953125
3.9299999,-5.8203043937683105,-3.8379054069519043,6.380547523498535,-36.6363525390625,38.6505126953125,18.463134765625
3.9499999,-5.983109951019287,-4.180276393890381,6.18182897567749,-25.390625,41.3360595703125,31.494140625
3.9699999,-6.028599739074707,-4.584896087646484,6.2201361656188965,-10.4522705078125,29.7393798828125,27.130126953125
3.9899999,-5.918466567993164,-4.917690277099609,6.476315498352051,-3.814697265625,19.4549560546875,12.237548828125
4.0099999,-5.66228723526001,-5.128379821777344,6.885724067687988,-7.171630859375,15.2130126953125,2.6092529296875
4.029999900000001,-5.360617637634277,-5.219359874725342,7.364564418792725,-6.7901611328125,12.1002197265625,-4.3487548828125
4.0499999,-5.106832027435303,-5.22175407409668,7.7428483963012695,6.7596435546875,5.18798828125,-8.6212158203125
4.069999900000001,-4.970362663269043,-5.152322292327881,7.960720539093018,12.1917724609375,4.6844482421875,-5.9814453125
4.0899999000000005,-4.982333660125732,-5.032611846923828,7.939172744750977,5.3558349609375,9.674072265625,-1.2969970703125
4.1099999,-5.130774021148682,-4.912901878356934,7.718906402587891,0.0152587890625,8.1634521484375,-2.044677734375
4.1299999000000005,-5.339069843292236,-4.824316501617432,7.429207801818848,-0.9918212890625,1.0223388671875,-6.317138671875
4.1499999,-5.5545477867126465,-4.788403511047363,7.1251444816589355,4.7607421875,-3.72314453125,-7.99560546875
4.1699999000000005,-5.714959621429443,-4.790797710418701,6.897695064544678,5.18798828125,-4.7607421875,-6.683349609375
4.1899999,-5.7987565994262695,-4.795586109161377,6.739677906036377,2.38037109375,-6.683349609375,-7.354736328125
4.209999900000001,-5.803544998168945,-4.807557106018066,6.660669326782227,2.25830078125,-8.5906982421875,-8.9874267578125
4.2299999,-5.7556610107421875,-4.8051629066467285,6.6391215324401855,3.875732421875,-6.89697265625,-8.72802734375
4.249999900000001,-5.671864032745361,-4.797980308532715,6.665457725524902,3.5858154296875,-3.9825439453125,-4.9285888671875
4.2699999,-5.590460777282715,-4.774038314819336,6.71334171295166,-0.457763671875,-3.143310546875,-2.5787353515625
4.289999900000001,-5.523423194885254,-4.745307922363281,6.7492547035217285,-0.48828125,-4.1351318359375,-1.9989013671875
4.3099999,-5.4875102043151855,-4.73573112487793,6.787561893463135,0.48828125,-3.021240234375,-2.9754638671875
4.329999900000001,-5.485116004943848,-4.759673118591309,6.813898086547852,0.8087158203125,-2.13623046875,-4.57763671875
4.3499999,-5.504269599914551,-4.800374507904053,6.842628479003906,1.9683837890625,-4.3792724609375,-4.33349609375
4.369999900000001,-5.523423194885254,-4.843470096588135,6.845022678375244,8.8958740234375,-8.23974609375,-1.40380859375
4.3899999,-5.509057998657227,-4.841075897216797,6.84981107711792,10.8489990234375,-9.3231201171875,-0.396728515625
4.409999900000001,-5.449203014373779,-4.809951305389404,6.856993675231934,2.9754638671875,-3.6773681640625,0.823974609375
4.4299999,-5.363011837005615,-4.757278919219971,6.868964672088623,-2.1820068359375,0.8544921875,0.518798828125
4.449999900000001,-5.279214859008789,-4.716577529907227,6.890512466430664,-0.3662109375,-2.044677734375,-2.3956298828125
4.4699999,-5.219359874725342,-4.687847137451172,6.92881965637207,2.8228759765625,-6.28662109375,-4.6844482421875
4.489999900000001,-5.1810526847839355,-4.6734819412231445,6.957550048828125,5.2490234375,-7.7362060546875,-4.669189453125
4.5099999,-5.1595048904418945,-4.659116744995117,6.988674640655518,2.1514892578125,-4.6844482421875,-3.8299560546875
4.529999900000001,-5.161899089813232,-4.661510944366455,7.000645637512207,-0.823974609375,-1.52587890625,-2.532958984375
4.5499999,-5.17626428604126,-4.697423934936523,7.0126166343688965,0.274658203125,-2.166748046875,-2.3956298828125
4.569999900000001,-5.219359874725342,-4.752490520477295,7.024587631225586,2.1209716796875,-4.2572021484375,-3.7078857421875
4.5899999000000005,-5.2480902671813965,-4.795586109161377,7.01979923248291,3.936767578125,-4.3487548828125,-2.105712890625
4.609999900000001,-5.272032260894775,-4.807557106018066,7.010222434997559,0.579833984375,0.030517578125,0.9002685546875
4.6299999000000005,-5.272032260894775,-4.786009311676025,6.979097843170166,-0.5340576171875,-0.152587890625,-0.1220703125
4.6499999,-5.257667064666748,-4.745307922363281,6.955155849456787,1.1138916015625,-3.1280517578125,-2.3651123046875
4.6699999000000005,-5.236119270324707,-4.711789131164551,6.933608055114746,2.7923583984375,-4.302978515625,-3.204345703125
4.6899999,-5.214571475982666,-4.69024133682251,6.931213855743408,0.213623046875,-1.7242431640625,-2.3345947265625
4.709999900000001,-5.202600479125977,-4.685452938079834,6.92881965637207,-1.678466796875,-0.67138671875,-1.6632080078125
4.7299999,-5.200206279754639,-4.704606533050537,6.950367450714111,0.54931640625,-3.4942626953125,-2.960205078125
4.749999900000001,-5.202600479125977,-4.730942726135254,6.967126846313477,5.1116943359375,-5.3253173828125,-2.3345947265625
4.7699999,-5.20978307723999,-4.752490520477295,6.967126846313477,6.2408447265625,-1.7852783203125,1.1138916015625
4.789999900000001,-5.22175407409668,-4.747702121734619,6.957550048828125,0.0457763671875,1.495361328125,2.62451171875
4.8099999,-5.233725070953369,-4.709394931793213,6.897695064544678,-0.6256103515625,-0.54931640625,1.2664794921875
4.829999900000001,-5.245696067810059,-4.656722068786621,6.840234279632568,-1.2359619140625,-0.8697509765625,1.0223388671875
4.8499999,-5.252878665924072,-4.611232280731201,6.789956092834473,-2.74658203125,-1.708984375,-0.9307861328125
4.869999900000001,-5.236119270324707,-4.599261283874512,6.801927089691162,-3.6163330078125,-2.5787353515625,-1.5716552734375
4.8899999,-5.214571475982666,-4.620809078216553,6.856993675231934,-3.0059814453125,-1.9683837890625,-2.105712890625
4.909999900000001,-5.188235282897949,-4.680664539337158,6.964732646942139,-2.3956298828125,-0.9918212890625,-1.1138916015625
4.9299999,-5.169081687927246,-4.747702121734619,7.0772600173950195,-1.5106201171875,-1.9073486328125,-0.335693359375
4.949999900000001,-5.166687488555908,-4.809951305389404,7.163451671600342,-0.762939453125,-2.8533935546875,-0.5035400390625
4.9699999,-5.166687488555908,-4.8482584953308105,7.208941459655762,-0.8544921875,-2.0294189453125,0.4425048828125
4.989999900000001,-5.1810526847839355,-4.862623691558838,7.2113356590271,-1.068115234375,-0.7171630859375,0.9307861328125
5.0099999,-5.188235282897949,-4.862623691558838,7.184999465942383,-0.9765625,-1.2054443359375,0.946044921875
5.029999900000001,-5.188235282897949,-4.843470096588135,7.1490864753723145,-0.2593994140625,-1.953125,0.8697509765625
5.0499999,-5.169081687927246,-4.817133903503418,7.113173484802246,1.3580322265625,-2.471923828125,0.579833984375
5.069999900000001,-5.137956619262695,-4.778826713562012,7.094019412994385,1.5106201171875,-1.9378662109375,-0.5340576171875
5.0899999000000005,-5.102043628692627,-4.745307922363281,7.082048416137695,0.2899169921875,-0.091552734375,-0.457763671875
5.109999900000001,-5.082890033721924,-4.721365928649902,7.074865818023682,-0.18310546875,0.5645751953125,0.244140625
5.1299999000000005,-5.082890033721924,-4.707000732421875,7.0772600173950195,0.457763671875,-0.7781982421875,-0.335693359375
5.1499999,-5.0876784324646,-4.675876140594482,7.0772600173950195,2.197265625,-0.9918212890625,1.190185546875
5.1699999000000005,-5.066130638122559,-4.6255974769592285,7.117961883544922,0.5645751953125,1.4495849609375,3.814697265625
5.1899999,-4.994304656982422,-4.558559894561768,7.304709434509277,-0.4730224609375,0.244140625,5.8135986328125
5.209999900000001,-4.884171485900879,-4.438849925994873,7.6566572189331055,7.4615478515625,0.3509521484375,9.94873046875
5.2299999,-4.750096321105957,-4.240131378173828,8.159439086914062,13.7176513671875,13.8397216796875,23.101806640625
5.249999900000001,-4.709394931793213,-3.928884983062744,8.695740699768066,10.162353515625,35.09521484375,41.93115234375
5.2699999,-4.821922302246094,-3.2992098331451416,9.114726066589355,7.5531005859375,69.2596435546875,87.5701904296875
5.289999900000001,-5.1331682205200195,-2.030282974243164,9.148244857788086,19.4244384765625,144.6533203125,191.253662109375
5.3099999,-5.509057998657227,0.021547814831137657,8.377311706542969,-35.09521484375,319.9310302734375,325.653076171875
5.329999900000001,-5.827486991882324,2.868253707885742,6.265625953674316,-192.840576171875,499.9847412109375,477.2186279296875
5.3499999,-5.643133640289307,5.791574001312256,1.5490485429763794,-306.549072265625,499.9847412109375,495.086669921875
5.369999900000001,-5.279214859008789,7.843404769897461,-6.078877925872803,-306.732177734375,499.9847412109375,345.703125
5.3899999,-5.011064052581787,8.990227699279785,-16.02678680419922,-184.417724609375,499.9847412109375,167.3583984375
5.409999900000001,-4.812345504760742,8.20732307434082,-25.675418853759766,-250.6256103515625,499.9847412109375,-84.77783203125
5.4299999,-4.917690277099609,4.972756862640381,-32.11103439331055,-500,410.7818603515625,-304.9163818359375
5.449999900000001,-5.2696380615234375,-0.7158663272857666,-34.191593170166016,-428.0242919921875,229.4158935546875,-492.6605224609375
5.4699999,-6.246472358703613,-9.133879661560059,-31.505300521850586,-292.4041748046875,89.0045166015625,-500
5.489999900000001,-8.030152320861816,-17.882291793823242,-25.175031661987305,-307.3577880859375,-79.6051025390625,-500
5.5099999,-10.216058731079102,-25.668235778808594,-17.164031982421875,-61.8133544921875,-222.6715087890625,-500
5.529999900000001,-12.593501091003418,-30.772674560546875,-8.334216117858887,278.4423828125,-348.69384765625,-500
5.5499999,-14.836868286132812,-32.93224334716797,-0.21308395266532898,343.1549072265625,-299.5147705078125,-484.4207763671875
5.569999900000001,-16.4625301361084,-32.11821746826172,5.652710437774658,293.8079833984375,-203.0487060546875,-236.4349365234375
5.5899999000000005,-17.50161361694336,-28.55324935913086,8.547300338745117,283.172607421875,-185.05859375,5.035400390625
5.609999900000001,-17.475278854370117,-22.737733840942383,8.80587387084961,234.0545654296875,-136.9171142578125,197.296142578125
5.6299999000000005,-15.665261268615723,-15.28218936920166,7.132327079772949,265.045166015625,-36.7889404296875,315.3839111328125
5.6499999,-12.986149787902832,-7.814674377441406,3.272873640060425,499.9847412109375,-66.46728515625,298.8739013671875
5.6699999000000005,-9.464279174804688,-1.094150185585022,-2.406172752380371,499.9847412109375,-98.9227294921875,325.836181640625
5.6899999,-5.834669589996338,4.541800498962402,-9.509769439697266,499.9847412109375,-16.387939453125,422.6226806640625
5.709999900000001,-1.968033790588379,8.765172004699707,-16.82884407043457,210.8612060546875,46.6461181640625,470.5047607421875
5.7299999,1.9321208000183105,11.63342571258545,-21.964406967163086,-75.592041015625,84.4268798828125,406.4483642578125
5.749999900000001,5.726930618286133,12.722787857055664,-23.542184829711914,-245.5291748046875,167.755126953125,304.19921875
5.7699999,8.810662269592285,11.681309700012207,-21.459230422973633,-385.9710693359375,294.8150634765625,169.6319580078125
5.789999900000001,10.307038307189941,8.293514251708984,-17.367538452148438,-472.8851318359375,414.2913818359375,-55.4046630859375
5.8099999,10.254365921020508,3.24414324760437,-13.15853214263916,-479.156494140625,470.5657958984375,-188.65966796875
5.829999900000001,8.633491516113281,-2.9927520751953125,-10.333374977111816,-493.927001953125,462.2039794921875,-311.2640380859375
5.8499999,5.003881454467773,-10.931924819946289,-9.651026725769043,-436.7523193359375,418.548583984375,-449.920654296875
5.869999900000001,-0.8547300100326538,-19.639636993408203,-9.406818389892578,-294.9371337890625,244.2169189453125,-500
5.8899999,-7.026981830596924,-27.377696990966797,-9.215282440185547,-130.2642822265625,-46.478271484375,-500
5.909999900000001,-12.868834495544434,-33.17166519165039,-8.123526573181152,1.434326171875,-76.4923095703125,-203.4912109375
5.9299999,-15.98369026184082,-34.42143630981445,-6.165069580078125,16.0980224609375,-60.302734375,-62.957763671875
5.949999900000001,-16.268600463867188,-31.806968688964844,-4.182670593261719,3.2501220703125,-123.077392578125,-62.469482421875
5.9699999,-15.176844596862793,-27.09039306640625,-1.9512743949890137,-59.722900390625,-46.966552734375,-20.8892822265625
5.989999900000001,-15.401899337768555,-21.98834800720215,0.6033388376235962,-41.5191650390625,96.13037109375,28.9306640625
6.0099999,-17.906234741210938,-17.298107147216797,3.272873640060425,114.3798828125,120.758056640625,53.070068359375
6.029999900000001,-21.890186309814453,-13.081917762756348,5.183446884155273,297.7294921875,109.954833984375,278.900146484375
6.0499999,-24.404098510742188,-8.35336971282959,4.955997467041016,499.9847412109375,224.9755859375,499.9847412109375
6.069999900000001,-22.278047561645508,-3.375824451446533,0.5602431893348694,499.9847412109375,298.4466552734375,499.9847412109375
6.0899999000000005,-15.804125785827637,2.248155355453491,-8.216899871826172,499.9847412109375,352.081298828125,499.9847412109375
6.109999900000001,-7.259219646453857,8.073247909545898,-19.98200798034668,488.128662109375,232.1929931640625,415.374755859375
6.1299999000000005,0.5027823448181152,11.856086730957031,-30.403966903686523,-163.787841796875,16.66259765625,149.3072509765625
6.149999900000001,4.6040496826171875,13.187262535095215,-36.01837158203125,-499.0081787109375,-53.375244140625,101.806640625
6.1699999000000005,6.1770405769348145,11.535264015197754,-35.12533187866211,-484.68017578125,-34.698486328125,110.4736328125
6.1899999,6.045359134674072,6.6630635261535645,-28.965051651000977,-380.31005859375,-34.5001220703125,-2.0599365234375
6.209999900000001,5.236119270324707,0.29209262132644653,-20.848709106445312,-416.412353515625,14.8468017578125,-144.8974609375
6.2299999,3.9695863723754883,-6.63433313369751,-13.129801750183105,-466.9952392578125,-2.25830078125,-290.4205322265625
6.249999900000001,2.6815059185028076,-13.153743743896484,-6.885724067687988,-427.9632568359375,-116.2872314453125,-324.64599609375
6.2699999,1.8291701078414917,-18.45690155029297,-2.542642116546631,-353.0120849609375,-228.5919189453125,-282.1807861328125
6.289999900000001,1.9105730056762695,-22.033838272094727,-0.10295066982507706,-378.8909912109375,-209.5794677734375,-266.9525146484375
6.3099999,2.561795711517334,-24.377761840820312,0.790086567401886,-411.92626953125,-109.19189453125,-314.9261474609375
6.329999900000001,1.3215993642807007,-26.48465919494629,2.212242364883423,-362.0147705078125,-14.6026611328125,-389.16015625
6.3499999,-2.0638017654418945,-27.875690460205078,4.529829502105713,-315.3533935546875,38.421630859375,-432.8460693359375
6.369999900000001,-8.037335395812988,-28.950687408447266,7.666234016418457,-44.9066162109375,197.3724365234375,-198.79150390625
6.3899999,-15.047557830810547,-28.167783737182617,9.744400978088379,340.51513671875,304.840087890625,-123.6572265625
6.409999900000001,-21.418527603149414,-26.13510513305664,8.868123054504395,497.161865234375,376.8310546875,-289.215087890625
6.4299999,-25.783157348632812,-23.740903854370117,4.623203277587891,495.269775390625,330.352783203125,-484.2529296875
6.449999900000001,-28.103139877319336,-21.610065460205078,-1.2018892765045166,495.1019287109375,272.5830078125,-500
6.4699999,-28.287492752075195,-20.444087982177734,-6.763619899749756,495.1019287109375,273.651123046875,-500
6.489999900000001,-26.61155128479004,-19.821596145629883,-10.735600471496582,495.880126953125,275.909423828125,-420.4864501953125
6.5099999,-23.44402313232422,-19.44091796875,-13.074735641479492,497.9705810546875,317.1234130859375,-207.7178955078125
6.529999900000001,-19.551050186157227,-19.048269271850586,-14.573505401611328,499.9847412109375,375.0762939453125,13.4429931640625
6.5499999,-15.64610767364502,-18.550273895263672,-16.292543411254883,499.9847412109375,371.7498779296875,213.4857177734375
6.569999900000001,-11.08994197845459,-17.240646362304688,-18.157625198364258,499.9847412109375,319.305419921875,476.531982421875
6.5899999000000005,-6.423643112182617,-14.92066478729248,-19.3978214263916,198.4405517578125,295.654296875,499.9847412109375
6.609999900000001,-1.05105459690094,-11.27190113067627,-18.868703842163086,-78.948974609375,240.5853271484375,499.9847412109375
6.6299999000000005,4.1611223220825195,-6.5481414794921875,-16.09861183166504,-126.800537109375,124.6490478515625,496.9329833984375
6.649999900000001,8.578424453735352,-2.054224967956543,-11.769895553588867,-204.5745849609375,22.003173828125,313.7969970703125
6.6699999000000005,11.66694450378418,1.2042834758758545,-6.648698329925537,-442.108154296875,68.1915283203125,278.2440185546875
6.6899999,13.333309173583984,2.1308395862579346,-0.9026140570640564,-498.3367919921875,124.81689453125,171.8597412109375
6.709999900000001,13.06755256652832,0.7015010714530945,4.69024133682251,-500,222.747802734375,-36.7279052734375
6.7299999,11.456254959106445,-2.5953147411346436,9.533711433410645,-500,315.643310546875,-47.7142333984375
6.749999900000001,8.329427719116211,-6.698976516723633,12.90953540802002,-499.0692138671875,396.1639404296875,96.1151123046875
6.7699999,4.1156325340271,-10.582371711730957,14.123395919799805,-498.7030029296875,449.0509033203125,133.1634521484375
6.789999900000001,-0.15083470940589905,-13.414711952209473,13.256694793701172,-468.07861328125,363.433837890625,83.55712890625
6.8099999,-4.338293552398682,-14.937424659729004,11.23598861694336,-379.2724609375,265.1214599609375,74.4171142578125
6.829999900000001,-8.094796180725098,-14.94221305847168,8.65982723236084,-408.2794189453125,253.814697265625,126.5411376953125
6.8499999,-11.6430025100708,-13.57512378692627,6.028599739074707,-361.4959716796875,245.17822265625,220.0469970703125
6.869999900000001,-15.023615837097168,-10.795455932617188,4.086902141571045,-268.0511474609375,255.584716796875,314.117431640625
6.8899999,-17.81525421142578,-6.732495307922363,2.980781078338623,-135.528564453125,306.427001953125,402.3284912109375
6.909999900000001,-18.504785537719727,-1.3551181554794312,1.8842366933822632,169.0216064453125,347.59521484375,499.9847412109375
6.9299999,-16.16086196899414,4.388571739196777,-0.9576807022094727,499.9847412109375,349.609375,499.9847412109375
6.949999900000001,-11.592724800109863,9.938331604003906,-8.202534675598145,499.9847412109375,192.68798828125,434.7991943359375
6.9699999,-5.279214859008789,13.66610336303711,-18.875886917114258,499.9847412109375,-19.6380615234375,202.9571533203125
6.989999900000001,0.12210428714752197,15.569493293762207,-28.6657772064209,11.9171142578125,-116.5618896484375,138.153076171875
7.0099999,3.581725835800171,14.683638572692871,-35.23067855834961,-222.442626953125,-153.3660888671875,186.859130859375
7.029999900000001,5.5760955810546875,12.310985565185547,-34.656070709228516,-161.9415283203125,-193.756103515625,183.5784912109375
7.0499999,6.258443355560303,8.731653213500977,-28.826189041137695,-133.544921875,-201.7822265625,61.8896484375
7.069999900000001,6.212953567504883,4.934449672698975,-20.755334854125977,-189.697265625,-198.79150390625,-84.9456787109375
7.0899999000000005,5.336675643920898,0.5913678407669067,-13.527239799499512,-180.8319091796875,-224.42626953125,-231.109619140625
7.109999900000001,4.4077253341674805,-2.456450939178467,-5.57370138168335,142.333984375,-272.430419921875,-335.9375
7.1299999000000005,2.9017724990844727,-5.810727596282959,0.06224924325942993,-86.0748291015625,-424.31640625,-240.3564453125
7.149999900000001,1.5969325304031372,-7.783549785614014,5.846640586853027,27.557373046875,-500,-139.95361328125
7.1699999000000005,0.4836287498474121,-8.786720275878906,10.314221382141113,239.410400390625,-500,-127.4566650390625
7.1899999,0.1628057211637497,-8.71489429473877,13.79060173034668,277.0843505859375,-500,-117.889404296875
7.209999900000001,0.5650315880775452,-7.536946773529053,17.111358642578125,182.7239990234375,-500,-154.4647216796875
7.2299999,1.8267759084701538,-5.719748020172119,20.264522552490234,186.676025390625,-471.49658203125,-244.140625
7.249999900000001,3.3925838470458984,-4.0294413566589355,22.883779525756836,286.4532470703125,-306.6558837890625,-301.3153076171875
7.2699999,4.611232280731201,-3.095702886581421,24.2580509185791,255.9661865234375,-159.60693359375,-285.888671875
7.289999900000001,4.960785865783691,-3.28963303565979,23.925256729125977,129.8065185546875,-41.9464111328125,-303.3599853515625
7.3099999,3.928884983062744,-4.321534156799316,22.285228729248047,67.1234130859375,8.48388671875,-355.7586669921875
7.329999900000001,1.2617442607879639,-5.738901615142822,20.099323272705078,89.996337890625,26.092529296875,-373.046875
7.3499999,-2.626439332962036,-6.7708024978637695,17.755399703979492,128.6773681640625,74.9664306640625,-332.275390625
7.369999900000001,-7.161057472229004,-7.333439826965332,15.22472858428955,172.0123291015625,162.17041015625,-230.987548828125
7.3899999,-11.683704376220703,-7.249642848968506,12.270283699035645,167.9840087890625,262.0849609375,-175.140380859375
7.409999900000001,-15.258247375488281,-6.710947513580322,8.762778282165527,49.8809814453125,413.1317138671875,-169.49462890625
7.4299999,-17.537527084350586,-6.088454723358154,4.6471452713012695,-23.98681640625,499.9847412109375,-71.6705322265625
7.449999900000001,-17.946935653686523,-5.578489780426025,-0.5386953949928284,-46.6156005859375,499.9847412109375,32.9132080078125
7.4699999,-16.203956604003906,-4.764461517333984,-7.1921820640563965,75.6072998046875,499.9847412109375,-40.985107421875
7.489999900000001,-13.680468559265137,-4.28322696685791,-14.702792167663574,104.30908203125,499.9847412109375,-234.954833984375
7.5099999,-11.073183059692383,-4.352658748626709,-22.143972396850586,-262.3291015625,499.9847412109375,-203.61328125
7.529999900000001,-8.96149730682373,-4.9368438720703125,-28.11989974975586,-499.6795654296875,499.9847412109375,33.5540771484375
7.5499999,-6.8378400802612305,-6.00226354598999,-30.346506118774414,-498.8555908203125,434.478759765625,117.3553466796875
7.569999900000001,-4.422090530395508,-7.687781810760498,-28.462270736694336,-500,46.0205078125,-66.650390625
7.5899999000000005,-2.140416383743286,-9.84495735168457,-22.395362854003906,-455.718994140625,-259.521484375,-264.9078369140625
7.609999900000001,-0.5027823448181152,-12.325350761413574,-13.953407287597656,-234.0240478515625,-328.7506103515625,-241.7144775390625
7.6299999000000005,-0.545877993106842,-14.836868286132812,-4.989516258239746,-227.020263671875,-215.6219482421875,-181.7626953125
7.649999900000001,-1.678335428237915,-16.6612491607666,2.075772762298584,-239.013671875,-170.83740234375,-185.4400634765625
7.6699999000000005,-3.002328872680664,-17.877504348754883,7.010222434997559,-207.9010009765625,-258.270263671875,-218.0633544921875
7.6899999,-4.534617900848389,-18.65801429748535,10.529699325561523,-152.4810791015625,-364.471435546875,-235.626220703125
7.709999900000001,-5.564124584197998,-18.47126579284668,12.94305419921875,56.121826171875,-497.2991943359375,-186.7828369140625
7.7299999,-5.556941986083984,-17.25501251220703,14.623784065246582,364.349365234375,-500,-111.9537353515625
7.749999900000001,-4.821922302246094,-14.393940925598145,15.85919189453125,371.7041015625,-500,-216.461181640625
7.7699999,-3.404554843902588,-10.891223907470703,16.15367889404297,241.76025390625,-314.422607421875,-394.8211669921875
7.789999900000001,-2.2840683460235596,-7.924807548522949,15.919047355651855,180.72509765625,-136.1846923828125,-419.9981689453125
7.8099999,-2.1978771686553955,-6.423643112182617,15.306131362915039,172.271728515625,-40.1763916015625,-369.110107421875
7.829999900000001,-3.3925838470458984,-6.36378812789917,14.03720474243164,193.817138671875,7.62939453125,-314.5294189453125
7.8499999,-5.612008571624756,-7.247248649597168,12.255918502807617,181.6253662109375,35.94970703125,-264.495849609375
7.869999900000001,-8.336610794067383,-8.121131896972656,10.213664054870605,157.65380859375,69.51904296875,-216.8731689453125
7.8899999,-11.1474027633667,-8.585607528686523,8.11634349822998,158.1878662109375,172.2259521484375,-152.83203125
7.909999900000001,-13.479355812072754,-8.243236541748047,5.889736175537109,188.17138671875,305.572509765625,-47.8668212890625
7.9299999,-14.513650894165039,-7.132327079772949,3.0382418632507324,210.5712890625,414.1693115234375,87.9669189453125
7.949999900000001,-13.694833755493164,-5.87776517868042,-1.1180921792984009,249.32861328125,486.5570068359375,106.1248779296875
7.9699999,-11.73398208618164,-4.812345504760742,-6.411672115325928,262.9547119140625,439.63623046875,-32.470703125
7.989999900000001,-9.682151794433594,-4.532223701477051,-12.351686477661133,137.115478515625,282.2723388671875,-129.1046142578125
8.0099999,-8.17141056060791,-5.037400245666504,-16.747440338134766,-136.6729736328125,202.4688720703125,-56.182861328125
8.0299999,-7.718906402587891,-5.882553577423096,-18.250999450683594,-349.273681640625,181.2591552734375,38.2080078125
8.049999900000001,-7.7763671875,-6.687005519866943,-16.045940399169922,-390.7318115234375,89.6453857421875,57.06787109375
8.069999900000001,-7.833827972412109,-7.086836814880371,-10.625467300415039,-283.4625244140625,-21.0113525390625,9.002685546875
8.0899999,-7.9846625328063965,-6.885724067687988,-4.003105163574219,-137.451171875,-98.9227294921875,1.495361328125
8.1099999,-8.422801971435547,-6.258443355560303,1.941697597503662,-56.33544921875,-65.4296875,40.008544921875
8.129999900000001,-9.0859956741333,-5.315127849578857,6.045359134674072,-68.1610107421875,4.7454833984375,54.8248291015625
8.149999900000001,-9.780313491821289,-4.256890773773193,8.04691219329834,-96.588134765625,70.7244873046875,54.779052734375
8.1699999,-10.45547866821289,-3.397372245788574,8.300697326660156,-72.81494140625,94.9554443359375,45.7305908203125
8.1899999,-11.025299072265625,-2.8850131034851074,7.536946773529053,-13.1988525390625,76.5380859375,38.39111328125
8.2099999,-11.422736167907715,-2.674323320388794,6.098031520843506,40.7867431640625,42.2821044921875,36.041259765625
8.229999900000001,-11.523292541503906,-2.5546131134033203,4.364629745483398,54.1534423828125,26.1993408203125,19.927978515625
8.2499999,-11.314997673034668,-2.3127987384796143,2.4803929328918457,38.482666015625,30.517578125,6.5155029296875
8.2699999,-10.984597206115723,-2.030282974243164,0.6727706789970398,24.8260498046875,35.7513427734375,3.9520263671875
8.2899999,-10.745177268981934,-1.8818424940109253,-0.8690952062606812,19.10400390625,33.203125,1.0528564453125
8.309999900000001,-10.682928085327148,-1.920149803161621,-2.054224967956543,8.1024169921875,31.585693359375,1.0528564453125
8.3299999,-10.733205795288086,-2.0901381969451904,-2.8179752826690674,-1.2969970703125,29.9072265625,5.0201416015625
8.3499999,-10.773907661437988,-2.231395959854126,-3.201047658920288,0.1220703125,15.5181884765625,3.936767578125
8.3699999,-10.699687004089355,-2.2409727573394775,-3.2130186557769775,-1.28173828125,-4.5166015625,-2.5634765625
8.389999900000001,-10.527304649353027,-2.161964178085327,-2.9257144927978516,-11.7950439453125,-14.5263671875,-7.4005126953125
8.4099999,-10.304644584655762,-2.073378562927246,-2.4229321479797363,-16.876220703125,-17.5323486328125,-5.767822265625
8.4299999,-10.098742485046387,-2.051830768585205,-1.8124107122421265,-10.223388671875,-18.8140869140625,0.823974609375
8.4499999,-9.945513725280762,-2.0877439975738525,-1.2210428714752197,0.091552734375,-14.678955078125,5.096435546875
8.469999900000001,-9.86650562286377,-2.145204782485962,-0.8212111592292786,10.2081298828125,-7.965087890625,3.7689208984375
8.4899999,-9.849745750427246,-2.169146776199341,-0.6847416758537292,15.1214599609375,-3.0975341796875,1.8310546875
8.5099999,-9.864110946655273,-2.1140801906585693,-0.828393816947937,16.5252685546875,-1.46484375,4.2724609375
8.5299999,-9.852140426635742,-1.9943699836730957,-1.170764684677124,12.3291015625,-1.7852783203125,7.3394775390625
8.549999900000001,-9.785101890563965,-1.8076223134994507,-1.5729905366897583,4.1961669921875,-5.6304931640625,5.5084228515625
8.569999900000001,-9.653421401977539,-1.625662922859192,-1.9129672050476074,-1.15966796875,-12.7105712890625,1.4495849609375
8.5899999,-9.548076629638672,-1.5682021379470825,-2.0877439975738525,-5.859375,-13.6260986328125,-3.662109375
8.6099999,-9.466673851013184,-1.580173134803772,-2.078166961669922,-6.3934326171875,-6.622314453125,0.1068115234375
8.629999900000001,-9.435548782348633,-1.6855180263519287,-1.9584569931030273,-0.701904296875,-3.021240234375,6.89697265625
8.649999900000001,-9.433155059814453,-1.7908629179000854,-1.7717092037200928,-2.62451171875,-4.57763671875,2.86865234375
8.6699999,-9.418789863586426,-1.8555063009262085,-1.6065093278884888,-6.2103271484375,-5.06591796875,1.3275146484375
8.6899999,-9.411606788635254,-1.8914192914962769,-1.4700398445129395,-6.134033203125,-4.608154296875,-1.373291015625
8.709999900000001,-9.404424667358398,-1.920149803161621,-1.3694833517074585,-0.701904296875,-5.4168701171875,-1.861572265625
8.729999900000001,-9.406818389892578,-1.941697597503662,-1.3287819623947144,4.39453125,-5.2032470703125,-2.166748046875
8.7499999,-9.409213066101074,-1.9488801956176758,-1.335964560508728,1.953125,-3.6773681640625,-2.3651123046875
8.7699999,-9.430760383605957,-1.9728221893310547,-1.3982137441635132,-0.8544921875,-3.814697265625,-2.838134765625
8.7899999,-9.469067573547363,-2.0039467811584473,-1.4676456451416016,-0.30517578125,-4.0740966796875,-0.885009765625
8.809999900000001,-9.521739959716797,-2.0446481704711914,-1.522712230682373,2.0751953125,-4.3487548828125,3.4637451171875
8.8299999,-9.579200744628906,-2.073378562927246,-1.5418659448623657,2.5177001953125,-4.1961669921875,4.3182373046875
8.8499999,-9.603142738342285,-2.0470423698425293,-1.5418659448623657,1.3580322265625,-3.7994384765625,3.3111572265625
8.8699999,-9.607931137084961,-2.006340980529785,-1.5275006294250488,-0.9002685546875,-3.7841796875,0.54931640625
8.889999900000001,-9.59596061706543,-1.9488801956176758,-1.4963760375976562,-1.3427734375,-4.3487548828125,-1.4190673828125
8.9099999,-9.59835433959961,-1.941697597503662,-1.4628572463989258,0.7781982421875,-4.5166015625,-0.1373291015625
8.9299999,-9.612719535827637,-1.946485996246338,-1.414973258972168,1.3427734375,-3.7841796875,0.5035400390625
8.9499999,-9.622296333312988,-1.9632453918457031,-1.3742717504501343,1.617431640625,-4.6234130859375,3.082275390625
8.969999900000001,-9.627084732055664,-1.965639591217041,-1.3335703611373901,-0.946044921875,-4.486083984375,2.50244140625
8.9899999,-9.607931137084961,-1.9632453918457031,-1.290474772453308,-2.227783203125,-3.509521484375,2.3040771484375
9.0099999,-9.576807022094727,-1.941697597503662,-1.2497732639312744,0.335693359375,-2.410888671875,2.9144287109375
9.0299999,-9.536105155944824,-1.9249382019042969,-1.2210428714752197,3.4637451171875,-2.7008056640625,3.570556640625
9.049999900000001,-9.490615844726562,-1.8962076902389526,-1.213860273361206,3.3721923828125,-2.6092529296875,3.204345703125
9.069999900000001,-9.445125579833984,-1.8626888990402222,-1.235408067703247,1.800537109375,-1.9073486328125,2.044677734375
9.0899999,-9.41400146484375,-1.8483237028121948,-1.2761094570159912,1.495361328125,-1.953125,0.0152587890625
9.1099999,-9.397241592407227,-1.845929503440857,-1.3120225667953491,2.8228759765625,-1.220703125,-0.3509521484375
9.129999900000001,-9.38048267364502,-1.843535304069519,-1.3551181554794312,5.1727294921875,-0.3204345703125,0.5035400390625
9.149999900000001,-9.387664794921875,-1.86508309841156,-1.3934253454208374,2.9296875,0.457763671875,-1.220703125
9.1699999,-9.385271072387695,-1.8483237028121948,-1.4317326545715332,0.8697509765625,1.6021728515625,0.030517578125
9.1899999,-9.41400146484375,-1.8579005002975464,-1.4724340438842773,1.4495849609375,-0.3814697265625,-0.152587890625
9.209999900000001,-9.457097053527832,-1.867477297782898,-1.4844050407409668,0.823974609375,-1.6326904296875,-3.3416748046875
9.229999900000001,-9.502586364746094,-1.8818424940109253,-1.4772224426269531,2.2735595703125,-1.6632080078125,-2.410888671875
9.2499999,-9.557653427124023,-1.9033904075622559,-1.4413094520568848,3.6468505859375,-2.38037109375,-3.4027099609375
9.2699999,-9.588777542114258,-1.9129672050476074,-1.3934253454208374,2.9754638671875,-1.9073486328125,-2.7618408203125
9.2899999,-9.619902610778809,-1.922544002532959,-1.338358759880066,2.2430419921875,-1.8768310546875,-2.166748046875
9.309999900000001,-9.641449928283691,-1.9273324012756348,-1.2952631711959839,2.3651123046875,-1.983642578125,-1.312255859375
9.3299999,-9.658209800720215,-1.9273324012756348,-1.2665326595306396,2.2735595703125,-1.6937255859375,-0.579833984375
9.3499999,-9.674968719482422,-1.9321208000183105,-1.2497732639312744,1.3885498046875,-1.6937255859375,-1.5716552734375
9.3699999,-9.674968719482422,-1.9249382019042969,-1.2521674633026123,1.861572265625,-1.922607421875,-1.556396484375
9.389999900000001,-9.66539192199707,-1.9249382019042969,-1.2641384601593018,2.9449462890625,-1.77001953125,-0.732421875
9.4099999,-9.653421401977539,-1.9249382019042969,-1.2856862545013428,2.838134765625,-1.220703125,-0.762939453125
9.4299999,-9.63187313079834,-1.920149803161621,-1.3239935636520386,2.288818359375,0.1678466796875,0.213623046875
9.4499999,-9.62947940826416,-1.9369091987609863,-1.3670891523361206,0,-0.0457763671875,-1.3427734375
9.469999900000001,-9.612719535827637,-1.9393033981323242,-1.41257905960083,-0.8544921875,-1.1749267578125,-0.8392333984375
9.4899999,-9.610325813293457,-1.968033790588379,-1.4197616577148438,-1.2664794921875,-2.655029296875,-0.3509521484375
9.5099999,-9.59835433959961,-1.9776105880737305,-1.3910311460494995,-0.2593994140625,-3.326416015625,0.4119873046875
9.5299999,-9.588777542114258,-1.9823989868164062,-1.3287819623947144,1.46484375,-2.8533935546875,0.518798828125
9.549999900000001,-9.57201862335205,-1.9800047874450684,-1.2617442607879639,1.1444091796875,-3.204345703125,-1.2969970703125
9.569999900000001,-9.552865028381348,-1.9608511924743652,-1.216254472732544,0.274658203125,-2.74658203125,-2.288818359375
9.5899999,-9.5408935546875,-1.968033790588379,-1.2018892765045166,-0.4730224609375,-2.716064453125,-2.9296875
9.6099999,-9.524134635925293,-1.9823989868164062,-1.2066776752471924,-0.54931640625,-2.50244140625,-1.9989013671875
9.629999900000001,-9.512163162231445,-2.006340980529785,-1.2234370708465576,0.2593994140625,-2.44140625,-0.396728515625
9.649999900000001,-9.488221168518066,-2.013523578643799,-1.2401964664459229,0.2288818359375,-1.739501953125,0.1373291015625
9.6699999,-9.461885452270508,-2.008735179901123,-1.256955862045288,-1.4801025390625,-0.8697509765625,-1.495361328125
9.6899999,-9.44991397857666,-2.013523578643799,-1.2761094570159912,-2.86865234375,0.54931640625,-2.8228759765625
9.709999900000001,-9.466673851013184,-2.0470423698425293,-1.292868971824646,-2.0904541015625,1.556396484375,-1.9073486328125
9.729999900000001,-9.519346237182617,-2.1164743900299072,-1.3096283674240112,0.4730224609375,1.2359619140625,0.5950927734375
9.7499999,-9.57441234588623,-2.1787235736846924,-1.3120225667953491,1.5869140625,0.1678466796875,1.4801025390625
9.7699999,-9.600749015808105,-2.190694570541382,-1.314416766166687,2.5482177734375,-0.7781982421875,2.3345947265625
9.7899999,-9.59596061706543,-2.1523873805999756,-1.3120225667953491,0.579833984375,-0.1678466796875,1.251220703125
9.809999900000001,-9.557653427124023,-2.075772762298584,-1.3072341680526733,-1.312255859375,-0.1220703125,-0.457763671875
9.8299999,-9.516951560974121,-2.0015525817871094,-1.3000515699386597,0.2593994140625,-1.617431640625,-0.8392333984375
9.8499999,-9.493009567260742,-1.9488801956176758,-1.2713210582733154,0.8544921875,-2.0599365234375,-1.6937255859375
9.8699999,-9.48343276977539,-1.9249382019042969,-1.2258312702178955,1.0223388671875,-2.0751953125,-2.1209716796875
9.889999900000001,-9.488221168518066,-1.920149803161621,-1.1659762859344482,1.0833740234375,-1.861572265625,-1.7852783203125
9.9099999,-9.514557838439941,-1.944091796875,-1.115697979927063,0.9765625,-1.1749267578125,-1.068115234375
9.9299999,-9.552865028381348,-1.9823989868164062,-1.0893617868423462,1.46484375,-0.640869140625,-0.54931640625
9.9499999,-9.593565940856934,-2.0231003761291504,-1.094150185585022,2.4566650390625,-0.8697509765625,0.7476806640625
9.969999900000001,-9.619902610778809,-2.0470423698425293,-1.1300631761550903,3.1280517578125,-1.52587890625,0.91552734375
9.9899999,-9.619902610778809,-2.0446481704711914,-1.194706678390503,2.471923828125,-1.5106201171875,0.946044921875
10.0099999,-9.600749015808105,-2.0207061767578125,-1.278503656387329,1.7852783203125,-1.678466796875,0.335693359375
10.0299999,-9.576807022094727,-1.987187385559082,-1.3670891523361206,2.50244140625,-2.9144287109375,-0.79345703125
10.049999900000001,-9.560047149658203,-1.9608511924743652,-1.4293384552001953,2.2430419921875,-3.753662109375,-1.3427734375
10.069999900000001,-9.552865028381348,-1.9488801956176758,-1.4532804489135742,1.251220703125,-3.11279296875,-0.946044921875
10.0899999,-9.552865028381348,-1.9488801956176758,-1.4245500564575195,0.1373291015625,-2.8839111328125,-0.335693359375
10.1099999,-9.552865028381348,-1.965639591217041,-1.3670891523361206,0.4425048828125,-2.86865234375,0.732421875
10.129999900000001,-9.550470352172852,-1.9800047874450684,-1.2952631711959839,-0.1373291015625,-1.251220703125,0.1068115234375
10.149999900000001,-9.536105155944824,-1.9823989868164062,-1.235408067703247,0.5340576171875,-1.46484375,-0.5340576171875
10.1699999,-9.502586364746094,-1.9584569931030273,-1.2042834758758545,2.0599365234375,-2.9144287109375,-1.4495849609375
10.1899999,-9.473855972290039,-1.9345149993896484,-1.1875240802764893,0.701904296875,-3.662109375,-3.9215087890625
10.209999900000001,-9.44752025604248,-1.9105730056762695,-1.192312479019165,-0.213623046875,-3.4332275390625,-4.8828125
10.229999900000001,-9.44752025604248,-1.900996208190918,-1.1971008777618408,-0.946044921875,-4.608154296875,-6.103515625
10.2499999,-9.509769439697266,-1.900996208190918,-1.1324573755264282,-3.3416748046875,-9.429931640625,-8.7432861328125
10.2699999,-9.703699111938477,-1.8914192914962769,-0.8595184087753296,-6.8359375,-25.543212890625,-11.9781494140625
10.2899999,-10.074800491333008,-1.886630892753601,-0.3447650372982025,-8.9111328125,-60.7452392578125,-16.11328125
10.309999900000001,-10.6925048828125,-1.9608511924743652,0.40462008118629456,-29.8919677734375,-91.0491943359375,-28.8238525390625
10.3299999,-11.532869338989258,-2.0039467811584473,1.4221558570861816,-83.9996337890625,-125.518798828125,-54.6112060546875
10.3499999,-12.646173477172852,-2.145204782485962,2.631227731704712,-106.75048828125,-184.9212646484375,-96.466064453125
10.3699999,-13.919888496398926,-2.8802247047424316,3.7660791873931885,-73.455810546875,-266.54052734375,-200.4852294921875
10.389999900000001,-15.088258743286133,-4.367023944854736,4.223371982574463,-72.4639892578125,-236.75537109375,-340.8050537109375
10.4099999,-15.899893760681152,-7.38132381439209,3.8498764038085938,-107.0098876953125,-55.4656982421875,-424.224853515625
10.4299999,-16.989255905151367,-12.081141471862793,2.0685901641845703,176.3916015625,-30.0445556640625,-496.1090087890625
10.4499999,-17.97087860107422,-17.990032196044922,-1.7836803197860718,495.819091796875,-176.605224609375,-427.764892578125
10.469999900000001,-18.562246322631836,-23.03461456298828,-6.6391215324401855,499.2523193359375,-26.7791748046875,-75.042724609375
10.4899999,-16.850391387939453,-26.144681930541992,-12.052411079406738,499.9847412109375,203.643798828125,427.581787109375
10.5099999,-11.432312965393066,-25.179819107055664,-16.87433433532715,499.9847412109375,234.283447265625,499.9847412109375
10.5299999,-2.911349296569824,-20.16875457763672,-18.65083122253418,158.4014892578125,266.9830322265625,499.9847412109375
10.549999900000001,6.744466304779053,-12.820950508117676,-16.984466552734375,-155.57861328125,100.40283203125,499.9847412109375
10.569999900000001,15.662867546081543,-4.501099109649658,-11.398794174194336,-252.99072265625,-216.5679931640625,499.9847412109375
10.5899999,23.4655704498291,4.086902141571045,-0.7852981686592102,-280.1513671875,-467.34619140625,420.501708984375
10.6099999,27.439945220947266,10.881647109985352,11.305420875549316,-61.70654296875,-427.9632568359375,-113.7237548828125
10.629999900000001,29.424739837646484,16.316484451293945,22.215797424316406,265.106201171875,-281.0516357421875,-257.7056884765625
10.649999900000001,26.41522789001465,19.773712158203125,29.4774112701416,48.431396484375,36.5142822265625,-171.7529296875
10.6699999,19.486408233642578,20.084957122802734,30.50931167602539,-110.9466552734375,280.8685302734375,-246.368408203125
10.6899999,9.837775230407715,17.590200424194336,26.6785888671875,-145.477294921875,414.5965576171875,-328.155517578125
10.709999900000001,0.26815059781074524,11.87763500213623,19.02193260192871,-136.2152099609375,499.9847412109375,-419.73876953125
10.729999900000001,-8.130708694458008,2.3487119674682617,9.126696586608887,34.423828125,454.4677734375,-493.0572509765625
10.7499999,-16.211139678955078,-9.730035781860352,-1.482010841369629,483.001708984375,30.181884765625,-500
10.7699999,-21.09291648864746,-21.44725799560547,-11.554417610168457,497.9095458984375,-353.9581298828125,-212.6922607421875
10.7899999,-23.281217575073242,-29.697677612304688,-18.789695739746094,417.236328125,-201.4617919921875,193.695068359375
10.809999900000001,-21.279664993286133,-31.747114181518555,-22.254104614257812,20.965576171875,54.87060546875,280.76171875
10.8299999,-14.31014347076416,-27.40163803100586,-21.420923233032227,-202.8961181640625,118.804931640625,312.835693359375
10.8499999,-4.960785865783691,-19.057846069335938,-16.486473083496094,-283.782958984375,-66.131591796875,319.76318359375
10.8699999,4.156333923339844,-9.773131370544434,-8.307879447937012,-298.6297607421875,-224.456787109375,257.7362060546875
10.889999900000001,12.033257484436035,-1.2521674633026123,2.1045033931732178,-251.1444091796875,-334.5184326171875,215.0726318359375
10.9099999,17.006013870239258,5.39174222946167,12.770671844482422,-166.6412353515625,-257.6141357421875,120.8343505859375
10.9299999,19.211074829101562,10.065223693847656,22.002714157104492,-83.0078125,-115.4632568359375,44.525146484375
10.9499999,18.248605728149414,13.18008041381836,27.789499282836914,-35.8428955078125,11.627197265625,13.73291015625
10.969999900000001,14.913482666015625,14.652514457702637,29.384037017822266,-34.3017578125,109.0087890625,40.1153564453125
10.9899999,9.804255485534668,14.657302856445312,27.629087448120117,-124.3133544921875,221.0693359375,-32.16552734375
11.0099999,3.9863457679748535,13.230358123779297,23.726539611816406,-207.855224609375,364.8223876953125,-150.5889892578125
11.0299999,-1.766920804977417,10.266336441040039,18.971654891967773,-167.0379638671875,475.0518798828125,-179.5501708984375
11.049999900000001,-6.744466304779053,6.098031520843506,13.656526565551758,-51.1627197265625,499.9847412109375,-156.646728515625
11.069999900000001,-9.715670585632324,0.5434837937355042,7.237671852111816,91.949462890625,499.9847412109375,-177.8411865234375
11.0899999,-11.118672370910645,-6.071695327758789,-0.8307880163192749,290.3900146484375,499.9847412109375,-325.1953125
11.1099999,-13.309367179870605,-13.855245590209961,-10.764330863952637,496.5057373046875,242.5384521484375,-357.5286865234375
11.129999900000001,-13.745112419128418,-20.590133666992188,-19.974824905395508,312.8204345703125,-45.5169677734375,21.209716796875
11.149999900000001,-14.312538146972656,-24.96673583984375,-26.36016082763672,-87.3260498046875,-50.96435546875,312.1185302734375
11.1699999,-12.160150527954102,-25.069686889648438,-27.834989547729492,-225.2044677734375,-76.0345458984375,297.515869140625
11.1899999,-7.259219646453857,-21.39698028564453,-23.173479080200195,-265.7012939453125,-207.09228515625,216.1102294921875
11.209999900000001,-1.6950948238372803,-15.770606994628906,-13.445837020874023,-266.2200927734375,-387.5885009765625,137.9241943359375
11.229999900000001,3.181894063949585,-9.792284965515137,-1.137245774269104,-57.3272705078125,-500,205.0323486328125
11.2499999,7.134721279144287,-3.9839515686035156,11.355698585510254,287.017822265625,-500,365.509033203125
11.2699999,10.163386344909668,1.6208745241165161,20.760122299194336,401.031494140625,-500,300.2471923828125
11.2899999,13.467384338378906,7.338228225708008,26.226085662841797,97.6104736328125,-264.2974853515625,203.9031982421875
11.309999900000001,15.837644577026367,12.442666053771973,27.923574447631836,-196.22802734375,125.1068115234375,50.4150390625
11.3299999,16.572664260864258,15.837644577026367,26.67380142211914,-102.935791015625,268.768310546875,-130.2337646484375
11.3499999,14.72673511505127,17.01080322265625,23.848642349243164,58.7615966796875,278.99169921875,-218.5516357421875
11.3699999,10.228029251098633,15.861586570739746,19.665973663330078,27.6336669921875,382.26318359375,-223.388671875
11.389999900000001,3.9193081855773926,12.7946138381958,14.161703109741211,-76.6754150390625,499.9847412109375,-233.2000732421875
11.4099999,-1.941697597503662,7.881711959838867,7.122750282287598,-61.1114501953125,499.9847412109375,-313.232421875
11.4299999,-6.428431510925293,1.2449848651885986,-1.5634137392044067,151.85546875,499.9847412109375,-484.8480224609375
11.4499999,-12.009315490722656,-7.8314337730407715,-12.236764907836914,469.207763671875,153.6712646484375,-500
11.469999900000001,-16.52717399597168,-17.357961654663086,-22.53662109375,377.197265625,-228.1646728515625,-169.0673828125
11.4899999,-19.74258804321289,-25.366567611694336,-29.28587532043457,-147.64404296875,1.861572265625,276.1688232421875
11.5099999,-20.307619094848633,-28.85970687866211,-30.49973487854004,-158.02001953125,122.74169921875,303.9398193359375
11.5299999,-15.873557090759277,-27.255592346191406,-25.318683624267578,-91.00341796875,-71.5179443359375,192.352294921875
11.549999900000001,-8.75080680847168,-21.789628982543945,-15.217546463012695,-101.6387939453125,-303.3599853515625,153.411865234375
11.569999900000001,-1.802833914756775,-15.114595413208008,-3.5649664402008057,53.22265625,-416.2445068359375,241.912841796875
11.5899999,3.8355112075805664,-9.040505409240723,6.6846113204956055,277.9388427734375,-446.6705322265625,443.2373046875
11.6099999,8.729259490966797,-3.663128614425659,13.852850914001465,370.697021484375,-470.3369140625,499.9847412109375
11.629999900000001,13.594277381896973,2.3918075561523438,18.179174423217773,215.576171875,-495.91064453125,499.9847412109375
11.649999900000001,18.674774169921875,8.418013572692871,18.84476089477539,151.2603759765625,-356.2164306640625,328.3233642578125
11.6699999,23.348255157470703,14.597447395324707,17.817649841308594,42.4957275390625,0.274658203125,104.8583984375
11.6899999,25.41205596923828,19.416975021362305,15.600618362426758,-167.816162109375,272.94921875,-57.586669921875
11.709999900000001,24.260446548461914,21.38740348815918,12.030863761901855,-115.3717041015625,259.246826171875,-198.211669921875
11.729999900000001,19.68273162841797,20.96123504638672,8.597578048706055,-98.08349609375,258.7432861328125,-285.4156494140625
11.7499999,12.63899040222168,18.60773468017578,5.6455278396606445,-155.9906005859375,311.9354248046875,-329.315185546875
11.7699999,4.393360137939453,14.599842071533203,3.315969467163086,-150.665283203125,352.8289794921875,-442.5201416015625
11.7899999,-3.5242648124694824,8.655038833618164,1.2952631711959839,-144.073486328125,399.9176025390625,-500
11.809999900000001,-9.785101890563965,1.2880805730819702,-1.7693150043487549,9.0789794921875,356.7047119140625,-500
11.8299999,-15.43062973022461,-8.719682693481445,-6.734889507293701,210.3271484375,82.000732421875,-500
11.8499999,-20.700267791748047,-19.354726791381836,-12.263101577758789,180.0689697265625,-258.6822509765625,-292.66357421875
11.8699999,-23.26924705505371,-27.937938690185547,-16.89827537536621,2.9449462890625,-89.1876220703125,112.1063232421875
11.889999900000001,-23.846248626708984,-32.32890701293945,-18.45929527282715,-58.2427978515625,141.8609619140625,303.03955078125
11.9099999,-19.886240005493164,-31.122228622436523,-16.261417388916016,-38.4674072265625,21.9573974609375,266.9525146484375
11.9299999,-12.60547161102295,-25.926809310913086,-11.350910186767578,-59.87548828125,-216.5679931640625,296.69189453125
11.9499999,-4.410119533538818,-19.053056716918945,-5.04218864440918,-29.327392578125,-319.03076171875,374.298095703125
11.969999900000001,3.576937437057495,-12.737153053283691,1.5059528350830078,60.5316162109375,-327.8656005859375,499.9847412109375
11.9899999,11.08754825592041,-6.54574728012085,7.86734676361084,229.5989990234375,-314.51416015625,499.9847412109375
12.0099999,16.862361907958984,0.06703764945268631,13.82412052154541,414.3218994140625,-310.272216796875,397.9644775390625
12.0299999,21.44965362548828,7.01979923248291,16.34521484375,436.9354248046875,-278.4271240234375,308.3953857421875
12.049999900000001,23.965959548950195,13.804966926574707,16.299724578857422,107.0404052734375,58.4716796875,247.4365234375
12.069999900000001,24.19101333618164,18.727445602416992,13.00051498413086,-210.1898193359375,302.6123046875,37.841796875
12.0899999,22.639572143554688,21.241357803344727,8.868123054504395,151.824951171875,240.325927734375,-218.6737060546875
12.1099999,19.187131881713867,21.243751525878906,5.4444146156311035,334.89990234375,25.543212890625,-345.5047607421875
12.129999900000001,13.651738166809082,19.45049476623535,4.094084739685059,-118.22509765625,-82.794189453125,-299.0570068359375
12.149999900000001,6.5481414794921875,16.40985870361328,3.7277719974517822,-332.58056640625,-87.371826171875,-334.1064453125
12.1699999,-1.3311761617660522,12.701239585876465,4.110844135284424,-261.8560791015625,8.941650390625,-454.2694091796875
12.1899999,-8.324639320373535,8.212111473083496,4.261679172515869,-340.3778076171875,70.587158203125,-500
12.209999900000001,-13.364434242248535,1.7573440074920654,2.4420857429504395,-500,6.2713623046875,-500
12.229999900000001,-16.546327590942383,-6.026205539703369,0.12210428714752197,-385.1776123046875,14.83154296875,-500
12.2499999,-18.880674362182617,-15.567099571228027,-3.3016040325164795,52.0782470703125,-273.681640625,-441.71142578125
12.2699999,-20.113689422607422,-24.102428436279297,-5.583278179168701,254.1351318359375,-376.46484375,27.4200439453125
12.289999900000002,-20.384233474731445,-29.692890167236328,-6.528987884521484,128.173828125,-141.845703125,273.7274169921875
12.309999900000001,-18.04030990600586,-31.05040168762207,-5.8203043937683105,-91.6900634765625,62.103271484375,329.437255859375
12.3299999,-12.509703636169434,-28.646623611450195,-4.398148536682129,-108.917236328125,23.6053466796875,329.2694091796875
12.3499999,-4.572925090789795,-25.526979446411133,-3.756502389907837,322.418212890625,-42.2515869140625,160.0341796875
12.3699999,2.9233202934265137,-18.971654891967773,-1.3263877630233765,497.1923828125,134.002685546875,-287.0635986328125
12.389999900000001,8.255207061767578,-10.08198356628418,-0.2059013396501541,330.841064453125,105.65185546875,-500
12.4099999,8.899248123168945,3.134010076522827,2.051830768585205,-17.059326171875,139.0533447265625,-446.2432861328125
12.4299999,5.432443618774414,17.00840950012207,2.808398485183716,53.619384765625,153.01513671875,-46.417236328125
12.4499999,-0.3495534360408783,28.723237991333008,2.896984100341797,-126.40380859375,128.997802734375,111.0382080078125
12.469999900000001,-6.722918510437012,33.49488067626953,2.382230758666992,-204.4830322265625,163.9556884765625,93.1854248046875
12.4899999,-11.856086730957031,32.14694595336914,1.7190368175506592,-283.905029296875,94.8486328125,52.2003173828125
12.5099999,-14.925453186035156,27.167007446289062,1.7860745191574097,-309.8602294921875,66.2689208984375,22.03369140625
12.5299999,-16.8408145904541,20.34353256225586,1.7046716213226318,-176.3458251953125,74.89013671875,130.43212890625
12.549999900000001,-17.91581153869629,12.246341705322266,2.2673089504241943,-75.408935546875,48.33984375,209.4879150390625
12.569999900000001,-19.01714324951172,5.374982833862305,2.3271639347076416,-55.023193359375,-59.356689453125,66.22314453125
12.5899999,-20.092140197753906,-0.6512228846549988,3.0861260890960693,-80.810546875,-83.2672119140625,-103.3172607421875
12.6099999,-21.112070083618164,-5.590460777282715,3.9408559799194336,-86.578369140625,-119.140625,-87.3870849609375
12.629999900000001,-20.697874069213867,-8.959102630615234,5.262455463409424,-106.964111328125,-103.9276123046875,-100.1434326171875
12.649999900000001,-18.938135147094727,-13.79060173034668,5.389348030090332,-208.221435546875,-67.9931640625,-108.978271484375
12.6699999,-16.089035034179688,-18.77532958984375,3.318363666534424,-385.5438232421875,69.2901611328125,-120.9259033203125
12.6899999,-12.533645629882812,-23.93004608154297,-1.1252747774124146,-133.0413818359375,242.6300048828125,22.064208984375
12.709999900000001,-8.377311706542969,-27.013778686523438,-6.291962146759033,106.5673828125,297.3785400390625,138.3514404296875
12.729999900000001,-4.0078935623168945,-26.388891220092773,-9.57201862335205,171.8902587890625,220.5352783203125,116.3482666015625
12.7499999,0.7134721279144287,-23.056161880493164,-9.210494041442871,434.5703125,162.200927734375,138.641357421875
12.7699999,4.613626480102539,-16.235082626342773,-5.149928092956543,454.1473388671875,129.45556640625,204.77294921875
12.789999900000002,7.3885064125061035,-8.506598472595215,0.7038952708244324,499.5269775390625,197.6165771484375,225.494384765625
12.809999900000001,8.789113998413086,1.1061211824417114,7.261613845825195,347.442626953125,201.9500732421875,168.182373046875
12.8299999,8.090007781982422,11.279084205627441,9.17697525024414,21.0723876953125,-40.6494140625,116.943359375
12.8499999,6.038176536560059,20.463241577148438,8.741230010986328,-115.17333984375,-40.252685546875,192.8863525390625
12.8699999,2.6024973392486572,27.925968170166016,3.8498764038085938,-252.62451171875,102.1270751953125,162.139892578125
12.889999900000001,-1.434126853942871,31.83330535888672,-2.2888567447662354,-400.299072265625,-5.2490234375,113.5101318359375
12.9099999,-4.9799394607543945,32.29059982299805,-7.5201873779296875,-357.97119140625,-145.6298828125,168.9300537109375
12.9299999,-8.497021675109863,30.6290225982666,-10.45547866821289,-240.05126953125,-155.731201171875,235.931396484375
12.9499999,-11.801020622253418,28.095956802368164,-10.54645824432373,-33.63037109375,-132.3699951171875,253.4637451171875
12.969999900000001,-15.528792381286621,25.81428337097168,-7.12035608291626,218.1243896484375,-161.163330078125,241.1346435546875
12.9899999,-19.596540451049805,23.6451358795166,-0.790086567401886,312.4237060546875,-240.875244140625,291.717529296875
13.0099999,-23.223756790161133,21.44007682800293,7.017405033111572,225.830078125,-276.7181396484375,317.1234130859375
13.0299999,-25.83104133605957,18.679561614990234,13.924676895141602,56.2591552734375,-363.8763427734375,269.1192626953125
13.049999900000001,-26.707319259643555,15.342044830322266,19.065027236938477,6.500244140625,-427.2308349609375,244.4000244140625
13.069999900000001,-26.24284553527832,11.027692794799805,22.6539363861084,-241.851806640625,-457.6568603515625,297.943115234375
13.0899999,-24.207773208618164,7.390900611877441,20.190303802490234,-499.1302490234375,-500,89.5538330078125
13.1099999,-21.179107666015625,1.6615760326385498,19.254169464111328,-298.4771728515625,-333.6639404296875,-140.472412109375
13.129999900000001,-18.131288528442383,-3.134010076522827,13.668497085571289,454.864501953125,-115.0665283203125,-105.926513671875
13.149999900000001,-14.856021881103516,-8.360552787780762,9.564835548400879,322.8759765625,29.5867919921875,-133.6669921875
13.1699999,-11.932701110839844,-12.136208534240723,5.772420406341553,309.844970703125,157.7911376953125,-85.6781005859375
13.1899999,-9.20091724395752,-13.735535621643066,2.2649147510528564,248.3367919921875,210.2508544921875,8.4686279296875
13.209999900000001,-6.48828649520874,-13.15853214263916,-0.6943184733390808,188.4613037109375,207.5347900390625,60.089111328125
13.229999900000001,-3.7205893993377686,-11.08994197845459,-2.736572504043579,198.8525390625,173.40087890625,80.6121826171875
13.2499999,-1.0103530883789062,-8.161833763122559,-3.627215623855591,279.1290283203125,162.7349853515625,78.826904296875
13.2699999,1.6831238269805908,-5.556941986083984,-3.4524388313293457,376.0223388671875,206.268310546875,84.2132568359375
13.289999900000002,4.347870349884033,-3.7660791873931885,-2.80361008644104,348.114013671875,270.111083984375,89.4317626953125
13.309999900000001,6.907271862030029,-3.136404275894165,-2.2864625453948975,250.3814697265625,325.0274658203125,54.229736328125
13.3299999,9.126696586608887,-3.071760892868042,-2.0829553604125977,203.2012939453125,361.8316650390625,14.2822265625
13.3499999,10.843339920043945,-2.674323320388794,-2.2816741466522217,278.7628173828125,395.56884765625,-21.8505859375
13.3699999,11.73398208618164,-1.2545616626739502,-2.5953147411346436,328.887939453125,364.8834228515625,-99.090576171875
13.389999900000001,11.93748950958252,1.3718775510787964,-2.183511972427368,458.6181640625,276.9927978515625,-184.14306640625
13.4099999,11.379640579223633,4.596867084503174,-1.7908629179000854,211.24267578125,75.1190185546875,-277.984619140625
13.4299999,10.309432983398438,7.637503623962402,-0.40701428055763245,58.9141845703125,-160.186767578125,-321.8536376953125
13.4499999,8.678980827331543,10.070012092590332,-0.6057330369949341,73.54736328125,-325.68359375,-255.2490234375
13.469999900000001,6.75883150100708,11.978191375732422,-1.0630255937576294,-258.026123046875,-312.9119873046875,-147.857666015625
13.4899999,4.517858505249023,13.773842811584473,-3.708618402481079,-252.0904541015625,-263.336181640625,-80.6427001953125
13.5099999,1.4700398445129395,15.990873336791992,-6.936002254486084,-9.857177734375,-170.3033447265625,-1.2664794921875
13.5299999,-1.9177556037902832,19.01953887939453,-9.926360130310059,154.7698974609375,-90.8355712890625,52.093505859375
13.549999900000001,-5.348646640777588,22.749704360961914,-11.379640579223633,271.881103515625,-0.7476806640625,104.4921875
13.569999900000001,-8.054094314575195,26.568456649780273,-12.02846908569336,370.9869384765625,-4.33349609375,231.3079833984375
13.5899999,-10.295066833496094,29.90118408203125,-11.726799964904785,303.2989501953125,52.06298828125,353.302001953125
13.6099999,-11.66694450378418,31.7614803314209,-12.114660263061523,243.2403564453125,86.9903564453125,422.149658203125
13.629999900000001,-12.883199691772461,31.756690979003906,-13.041216850280762,289.6575927734375,39.306640625,375.2288818359375
13.649999900000001,-13.752294540405273,29.879636764526367,-13.704410552978516,307.4493408203125,-46.6461181640625,238.8458251953125
13.6699999,-13.833697319030762,26.228479385375977,-13.424288749694824,276.30615234375,-173.5076904296875,93.3074951171875
13.6899999,-13.299790382385254,21.222204208374023,-11.736376762390137,219.8638916015625,-248.3062744140625,-11.4593505859375
13.709999900000001,-12.083536148071289,15.626954078674316,-9.095572471618652,212.677001953125,-248.3673095703125,-85.113525390625
13.729999900000001,-11.080365180969238,10.247182846069336,-5.954379558563232,245.9259033203125,-179.3670654296875,-89.7064208984375
13.7499999,-10.17296314239502,5.894524574279785,-2.5067291259765625,345.733642578125,-50.750732421875,-18.4783935546875
13.7699999,-9.674968719482422,3.1220390796661377,1.0773907899856567,411.92626953125,20.8282470703125,13.9007568359375
13.789999900000002,-9.14345645904541,1.802833914756775,4.917690277099609,357.84912109375,17.181396484375,-4.1351318359375
13.809999900000001,-8.38688850402832,1.1252747774124146,8.650250434875488,191.375732421875,-51.8341064453125,-58.89892578125
13.8299999,-6.734889507293701,0.7350199222564697,11.769895553588867,68.7255859375,-133.23974609375,-172.576904296875
13.8499999,-4.235342979431152,-0.07900865375995636,13.646949768066406,-14.4195556640625,-95.550537109375,-244.7509765625
13.8699999,-0.646434485912323,-1.1300631761550903,13.594277381896973,-109.0545654296875,11.9171142578125,-199.21875
13.889999900000001,3.579331636428833,-1.8124107122421265,11.166556358337402,-239.501953125,94.9554443359375,-88.165283203125
13.9099999,8.034940719604492,-1.5753847360610962,6.6630635261535645,-354.0802001953125,146.3470458984375,-13.3056640625
13.9299999,11.511322021484375,-0.43335050344467163,1.1875240802764893,-452.178955078125,136.71875,11.53564453125
13.9499999,13.488932609558105,1.7357962131500244,-3.8307228088378906,-500,66.3604736328125,-53.2379150390625
13.969999900000001,13.414711952209473,4.211400985717773,-6.971915245056152,-500,-16.4947509765625,-158.8592529296875
13.9899999,11.57357120513916,6.485892295837402,-7.862558364868164,-500,-118.743896484375,-256.683349609375
14.0099999,8.374917984008789,8.317456245422363,-6.962338447570801,-500,-256.317138671875,-340.9881591796875
14.0299999,4.857835292816162,9.27034854888916,-4.853046894073486,-500,-345.184326171875,-446.014404296875
14.049999900000001,1.1085153818130493,8.927978515625,-2.0590133666992188,-500,-395.0347900390625,-500
14.069999900000001,-2.612074136734009,7.920019149780273,0.9409212470054626,-496.3531494140625,-394.83642578125,-500
14.0899999,-6.967126846313477,6.165069580078125,4.314351558685303,-308.8226318359375,-320.7855224609375,-348.236083984375
14.1099999,-12.449849128723145,4.120420932769775,7.692570209503174,-61.2335205078125,-204.6661376953125,-74.615478515625
14.129999900000001,-19.096153259277344,2.80361008644104,10.848128318786621,-79.254150390625,-160.1409912109375,-76.263427734375
14.149999900000001,-26.396074295043945,2.2864625453948975,13.292608261108398,-284.5611572265625,-121.2310791015625,-165.2069091796875
14.1699999,-32.61381530761719,2.9712042808532715,14.65011978149414,-286.2701416015625,3.265380859375,-160.2630615234375
14.1899999,-36.65522766113281,4.702212333679199,14.733917236328125,-194.3359375,100.4791259765625,-84.4268798828125
14.209999900000001,-37.332786560058594,6.670246124267578,13.862427711486816,-112.945556640625,149.932861328125,-17.4102783203125
14.229999900000001,-34.5794563293457,8.037335395812988,12.342109680175781,-30.7159423828125,212.70751953125,0.335693359375
14.2499999,-29.4151611328125,8.310274124145508,10.654197692871094,-35.0799560546875,230.0567626953125,-48.736572265625
14.2699999,-22.809558868408203,7.642292022705078,8.616731643676758,-122.2381591796875,160.5682373046875,-87.677001953125
14.289999900000002,-16.28296661376953,6.270414352416992,6.5265936851501465,-63.1866455078125,103.8665771484375,-69.15283203125
14.309999900000001,-10.558429718017578,4.565742492675781,4.874594688415527,40.8782958984375,96.3287353515625,-66.7877197265625
14.3299999,-5.66228723526001,2.853888511657715,3.485957622528076,8.4686279296875,195.73974609375,-160.33935546875
14.3499999,-1.6352397203445435,2.049436569213867,2.030282974243164,-110.809326171875,270.660400390625,-193.3135986328125
14.3699999,1.7381904125213623,2.0398597717285156,0.6272808313369751,-10.80322265625,204.4677734375,-132.14111328125
14.389999900000001,4.620809078216553,3.2992098331451416,-0.8236053586006165,227.47802734375,131.3323974609375,-63.17138671875
14.4099999,6.866570472717285,4.865017890930176,-1.4245500564575195,287.384033203125,110.4736328125,34.8968505859375
14.4299999,8.523358345031738,6.160281181335449,-1.235408067703247,50.750732421875,53.77197265625,13.6260986328125
14.4499999,9.684545516967773,6.988674640655518,0.028730420395731926,-94.4976806640625,-45.83740234375,-125.54931640625
14.469999900000001,9.86889934539795,7.127538681030273,1.5705963373184204,3.0975341796875,-145.0347900390625,-114.9139404296875
14.4899999,9.265560150146484,6.421248912811279,3.1507694721221924,119.2779541015625,-176.7120361328125,-50.0335693359375
14.5099999,7.771578788757324,4.520252704620361,4.81473970413208,131.1492919921875,-174.25537109375,-147.5677490234375
14.5299999,5.815515995025635,1.3455413579940796,5.781997203826904,72.113037109375,-205.413818359375,-302.001953125
14.549999900000001,4.039018154144287,-2.9017724990844727,6.110002517700195,94.1314697265625,-213.897705078125,-338.1805419921875
14.569999900000001,2.4588451385498047,-7.331045627593994,5.935225963592529,172.9888916015625,-243.1793212890625,-254.547119140625
14.5899999,1.3958195447921753,-11.353304862976074,5.95677375793457,229.3701171875,-267.181396484375,-174.4232177734375
14.6099999,0.8667010068893433,-14.678850173950195,6.540958881378174,155.8685302734375,-303.7109375,-173.6297607421875
14.629999900000001,1.3239935636520386,-17.937358856201172,8.403648376464844,85.99853515625,-370.9716796875,-217.620849609375
14.649999900000001,2.0590133666992188,-20.17354393005371,10.745177268981934,10.7269287109375,-471.7254638671875,-373.687744140625
14.6699999,1.764526605606079,-21.818359375,13.579912185668945,38.3758544921875,-401.18408203125,-390.7623291015625
14.6899999,2.425326347351074,-24.327484130859375,17.92299461364746,209.6405029296875,-265.7470703125,-204.7271728515625
14.709999900000001,0.5027823448181152,-23.74808692932129,22.507890701293945,52.1087646484375,-331.8634033203125,-500
14.729999900000001,0.6344634294509888,-22.701820373535156,25.99624252319336,11.1541748046875,-420.6695556640625,-500
14.7499999,0.6392518281936646,-17.66442108154297,28.807035446166992,92.22412109375,-317.2760009765625,-500
14.7699999,1.920149803161621,-11.137825965881348,28.888437271118164,253.47900390625,-158.233642578125,-298.248291015625
14.789999900000002,2.8227639198303223,-3.8738183975219727,27.617116928100586,412.506103515625,-57.12890625,-71.6094970703125
14.809999900000001,2.8826189041137695,2.585737943649292,25.787946701049805,213.6077880859375,-11.260986328125,21.9573974609375
14.8299999,1.6352397203445435,5.592854976654053,22.017078399658203,-85.845947265625,-113.09814453125,243.6370849609375
14.8499999,-0.22026655077934265,6.868964672088623,17.20233917236328,10.2386474609375,-151.3824462890625,333.953857421875
14.8699999,-1.968033790588379,5.571307182312012,11.17852783203125,110.687255859375,-55.9844970703125,314.75830078125
14.889999900000001,-3.1483752727508545,2.449268341064453,4.6255974769592285,137.8326416015625,37.9180908203125,358.612060546875
14.9099999,-4.084507942199707,-0.6033388376235962,-0.9026140570640564,209.442138671875,133.4381103515625,351.8829345703125
14.9299999,-5.039794445037842,-2.9448680877685547,-3.7828385829925537,155.5023193359375,283.050537109375,278.839111328125
14.9499999,-5.928043365478516,-4.151545524597168,-4.630385875701904,74.5849609375,296.4935302734375,323.699951171875
14.969999900000001,-6.586448669433594,-3.93367338180542,-3.3638534545898438,76.5228271484375,193.4661865234375,416.3818359375
14.9899999,-7.68538761138916,-3.3710360527038574,0.8451532125473022,154.8614501953125,204.7271728515625,462.2955322265625
15.0099999,-8.858546257019043,-1.9488801956176758,4.378994941711426,89.935302734375,172.7294921875,451.11083984375
15.0299999,-8.968679428100586,-2.1092917919158936,7.5632829666137695,-351.318359375,-24.2767333984375,216.00341796875
15.049999900000001,-7.869740962982178,-5.070919036865234,7.572859764099121,-500,-70.7550048828125,-18.768310546875
15.069999900000001,-4.151545524597168,-5.092466831207275,5.360617637634277,-500,194.2291259765625,-500
15.0899999,0.7134721279144287,-8.688557624816895,1.403002142906189,-286.9720458984375,197.7386474609375,-177.4139404296875
15.1099999,5.370194435119629,-9.351752281188965,-0.6009446382522583,9.613037109375,136.4288330078125,-124.2218017578125
15.129999900000001,8.339004516601562,-10.098742485046387,-0.8978256583213806,-108.9630126953125,-224.2279052734375,-308.7921142578125
15.149999900000001,9.708487510681152,-11.587936401367188,0.849941611289978,-161.407470703125,-434.6160888671875,-386.9171142578125
15.1699999,10.295066833496094,-13.385981559753418,3.066972494125366,-216.827392578125,-443.756103515625,-383.3160400390625
15.1899999,10.797849655151367,-14.599842071533203,3.9600095748901367,-293.792724609375,-316.9097900390625,-403.50341796875
15.209999900000001,12.320562362670898,-14.870387077331543,5.566518783569336,39.8406982421875,-218.1396484375,-333.2061767578125
15.229999900000001,12.09311294555664,-14.877569198608398,5.9974751472473145,81.085205078125,-391.4794921875,-94.9554443359375
15.2499999,11.152191162109375,-13.905523300170898,7.16584587097168,147.39990234375,-490.570068359375,-14.404296875
15.2699999,7.91283655166626,-12.90714168548584,7.927201747894287,363.525390625,-497.4517822265625,4.0435791015625
15.289999900000002,3.3949780464172363,-11.997344970703125,7.292738437652588,499.9847412109375,-500,65.5975341796875
15.309999900000001,-1.0223240852355957,-11.712434768676758,5.461174011230469,499.9847412109375,-455.535888671875,139.312744140625
15.3299999,-4.790797710418701,-11.887211799621582,2.011129379272461,255.31005859375,-238.9678955078125,119.903564453125
15.3499999,-7.8098859786987305,-14.137761116027832,-2.6408045291900635,-66.162109375,-63.5223388671875,-6.6070556640625
15.3699999,-9.514557838439941,-16.079458236694336,-6.698976516723633,219.29931640625,50.0335693359375,-157.28759765625
15.389999900000001,-10.192116737365723,-18.741811752319336,-10.000580787658691,394.4854736328125,80.8868408203125,-204.65087890625
15.4099999,-10.26394271850586,-19.943700790405273,-11.8225679397583,272.918701171875,-52.18505859375,-223.0987548828125
15.4299999,-10.029311180114746,-20.381839752197266,-12.677297592163086,322.0062255859375,-372.3907470703125,-233.551025390625
15.4499999,-8.271966934204102,-18.746599197387695,-14.286201477050781,-172.607421875,-392.5323486328125,-344.085693359375
15.469999900000001,-5.980715751647949,-15.090653419494629,-16.045940399169922,-500,-201.019287109375,-483.8104248046875
15.4899999,-2.3774423599243164,-7.570465564727783,-17.547103881835938,-232.9864501953125,60.577392578125,-500
15.5099999,1.946485996246338,3.890577793121338,-15.938200950622559,-136.4593505859375,288.75732421875,-500
15.5299999,5.556941986083984,16.09861183166504,-11.355698585510254,-176.7578125,150.2227783203125,-166.1834716796875
15.549999900000001,9.232041358947754,27.609933853149414,-2.4851813316345215,-93.505859375,96.4508056640625,119.720458984375
15.569999900000001,10.867281913757324,32.6162109375,6.301538944244385,-0.4730224609375,-47.79052734375,394.6685791015625
15.5899999,11.15697956085205,31.65134620666504,13.139378547668457,-61.981201171875,-194.244384765625,482.4981689453125
15.6099999,8.707711219787598,24.73210334777832,15.667655944824219,-48.9349365234375,-238.1439208984375,499.32861328125
15.629999900000001,4.946420669555664,12.837709426879883,16.94137191772461,130.7220458984375,-160.6903076171875,499.9847412109375
15.649999900000001,0.18914192914962769,1.556231141090393,14.190433502197266,-53.6651611328125,-268.12744140625,461.7156982421875
15.6699999,-2.7724854946136475,-9.96945571899414,11.008539199829102,-216.1865234375,-321.0296630859375,300.7965087890625
15.6899999,-5.353435039520264,-16.553510665893555,7.3669586181640625,-498.59619140625,-137.420654296875,145.08056640625
15.709999900000001,-6.387730121612549,-19.19910430908203,0.8906430602073669,-500,-230.52978515625,-4.0130615234375
15.729999900000001,-7.833827972412109,-17.535133361816406,-5.990292549133301,-500,-199.1729736328125,-46.5240478515625
15.7499999,-9.519346237182617,-12.904747009277344,-14.65011978149414,-408.721923828125,-51.7578125,-87.1734619140625
15.7699999,-11.425130844116211,-7.419631004333496,-24.72252655029297,-176.4373779296875,37.6434326171875,-143.768310546875
15.789999900000002,-12.804190635681152,-1.9704279899597168,-33.36320114135742,63.232421875,246.368408203125,-194.3206787109375
15.809999900000001,-13.129801750183105,2.432508945465088,-37.998374938964844,172.271728515625,462.5701904296875,-233.4136962890625
15.8299999,-12.440272331237793,5.523423194885254,-36.90422439575195,255.55419921875,465.301513671875,-294.1131591796875
15.8499999,-10.788272857666016,7.661445617675781,-30.37763023376465,338.897705078125,400.45166015625,-373.1536865234375
15.869999900000002,-7.908048152923584,10.587160110473633,-20.199880599975586,332.8857421875,353.4088134765625,-385.040283203125
15.889999900000001,-3.098097085952759,13.962984085083008,-8.33182144165039,62.652587890625,259.5062255859375,-193.2373046875
15.9099999,2.580949544906616,16.613365173339844,2.695871114730835,-156.8145751953125,39.8406982421875,51.971435546875
15.9299999,9.59596061706543,17.662025451660156,11.544840812683105,-111.9537353515625,-139.2364501953125,88.2110595703125
15.9499999,15.878345489501953,16.010026931762695,16.728286743164062,-132.9345703125,-205.2001953125,90.8660888671875
15.969999900000001,20.362686157226562,11.638214111328125,16.922218322753906,-61.004638671875,-224.12109375,112.335205078125
15.9899999,24.021024703979492,6.392518520355225,13.927071571350098,-31.463623046875,-210.7086181640625,133.758544921875
16.0099999,24.217350006103516,1.601720929145813,8.683769226074219,-28.7017822265625,-156.0211181640625,85.8612060546875
16.0299999,23.2668514251709,-2.3247697353363037,2.765302896499634,19.2108154296875,-101.25732421875,49.468994140625
16.0499999,20.78406524658203,-3.8283286094665527,-2.166752576828003,76.080322265625,49.041748046875,101.8218994140625
16.0699999,17.166425704956055,-3.756502389907837,-5.913678169250488,40.771484375,93.81103515625,193.8629150390625
16.089999900000002,13.927071571350098,-2.715024709701538,-7.759607791900635,49.98779296875,82.977294921875,204.89501953125
16.109999900000002,10.87446403503418,-1.522712230682373,-7.977479934692383,30.45654296875,46.1273193359375,190.0787353515625
16.1299999,7.615955829620361,-0.31364041566848755,-7.182605266571045,-18.829345703125,-63.629150390625,208.8623046875
16.1499999,4.010287761688232,0.8331822156906128,-6.782773494720459,-110.2447509765625,-120.208740234375,273.406982421875
16.1699999,-0.19632454216480255,2.0422539710998535,-7.443572998046875,-189.788818359375,-48.76708984375,309.38720703125
16.1899999,-5.061342239379883,3.248931646347046,-10.673351287841797,-187.8509521484375,-53.5736083984375,286.8194580078125
16.2099999,-9.62947940826416,3.9169139862060547,-15.945383071899414,-133.056640625,-15.960693359375,222.412109375
16.2299999,-13.093889236450195,4.170699596405029,-21.63161277770996,47.7142333984375,115.4022216796875,99.8687744140625
16.249999900000002,-15.133749008178711,3.6727054119110107,-25.682601928710938,280.8074951171875,251.6326904296875,-8.60595703125
16.269999900000002,-14.982913970947266,2.894589900970459,-26.44156265258789,346.954345703125,319.4122314453125,-132.843017578125
16.2899999,-13.646949768066406,2.166752576828003,-23.52063751220703,343.9483642578125,336.7156982421875,-220.0927734375
16.3099999,-11.389217376708984,1.8698714971542358,-17.98284912109375,331.8328857421875,376.5411376953125,-263.6260986328125
16.3299999,-8.305485725402832,3.4572272300720215,-11.446678161621094,368.8507080078125,367.462158203125,-323.822021484375
16.3499999,-5.003881454467773,5.999869346618652,-4.867412090301514,473.3123779296875,240.1885986328125,-281.5093994140625
16.3699999,-1.6112977266311646,9.38048267364502,0.9864110946655273,417.90771484375,159.0118408203125,-206.298828125
16.3899999,1.6903064250946045,12.653355598449707,5.849034786224365,258.0108642578125,145.751953125,-190.8416748046875
16.4099999,4.548983097076416,15.026009559631348,9.718064308166504,124.298095703125,136.8560791015625,-190.216064453125
16.429999900000002,6.641515731811523,16.309301376342773,12.7946138381958,34.4085693359375,130.6610107421875,-157.40966796875
16.4499999,8.339004516601562,16.89348793029785,15.603012084960938,-22.6593017578125,106.2469482421875,-90.576171875
16.4699999,9.26795482635498,16.699556350708008,18.255788803100586,15.1824951171875,-52.5360107421875,-1.6937255859375
16.4899999,9.232041358947754,15.483302116394043,20.240581512451172,56.0302734375,-277.9693603515625,82.45849609375
16.5099999,8.681375503540039,13.618219375610352,21.047426223754883,-76.4312744140625,-375.701904296875,112.97607421875
16.5299999,7.603984832763672,11.51611042022705,19.823989868164062,-250.4730224609375,-398.9715576171875,100.4486083984375
16.5499999,6.598419666290283,9.612719535827637,16.615758895874023,-252.5177001953125,-471.8170166015625,100.89111328125
16.5699999,5.793968200683594,8.152256965637207,11.858481407165527,-188.934326171875,-500,145.2789306640625
16.589999900000002,4.9583916664123535,6.938396453857422,6.179434776306152,-181.732177734375,-500,199.7528076171875
16.609999900000002,3.6176388263702393,5.2480902671813965,0.11013327538967133,-150.1007080078125,-500,214.29443359375
16.6299999,1.6687586307525635,2.6168625354766846,-6.768408298492432,-110.1531982421875,-500,231.048583984375
16.6499999,-0.47405192255973816,-0.8020575642585754,-14.506467819213867,-169.12841796875,-500,217.926025390625
16.6699999,-2.367865562438965,-4.252102375030518,-22.160730361938477,-187.744140625,-180.60302734375,141.5863037109375
16.6899999,-3.3686418533325195,-6.742072105407715,-28.641834259033203,-72.4029541015625,47.5616455078125,79.6966552734375
16.7099999,-3.5889084339141846,-7.812280178070068,-32.728736877441406,14.5111083984375,153.4423828125,88.2415771484375
16.7299999,-3.6990416049957275,-7.390900611877441,-34.08625030517578,36.834716796875,210.693359375,127.8228759765625
16.749999900000002,-4.220977783203125,-6.552929878234863,-33.30095291137695,30.426025390625,232.91015625,147.1405029296875
16.769999900000002,-5.770026206970215,-5.657498836517334,-31.323341369628906,19.3328857421875,285.6597900390625,138.427734375
16.7899999,-8.078036308288574,-5.169081687927246,-28.828582763671875,66.2841796875,268.280029296875,102.447509765625
16.8099999,-10.539276123046875,-4.855441093444824,-26.06328010559082,103.02734375,306.1065673828125,25.0701904296875
16.8299999,-12.236764907836914,-4.3406877517700195,-23.08728790283203,105.2093505859375,429.50439453125,-92.8192138671875
16.8499999,-12.634202003479004,-3.1244332790374756,-19.697097778320312,138.336181640625,499.9847412109375,-231.536865234375
16.8699999,-11.760318756103516,-0.6584054827690125,-15.327679634094238,190.3839111328125,499.9847412109375,-385.5743408203125
16.8899999,-9.404424667358398,4.797980308532715,-9.528923034667969,240.7684326171875,499.9847412109375,-500
16.9099999,-6.078877925872803,11.535264015197754,-2.188300371170044,321.8536376953125,499.9847412109375,-341.705322265625
16.929999900000002,-2.1595699787139893,19.098546981811523,5.243301868438721,171.4630126953125,353.790283203125,-31.8145751953125
16.9499999,1.335964560508728,25.10320472717285,11.66455078125,-12.5885009765625,225.311279296875,114.7003173828125
16.9699999,3.708618402481079,27.787105560302734,15.579070091247559,87.0513916015625,198.4405517578125,182.281494140625
16.9899999,4.113238334655762,27.202919006347656,16.69476890563965,228.21044921875,182.1441650390625,274.8565673828125
17.0099999,2.7676970958709717,23.992294311523438,15.988478660583496,270.294189453125,195.648193359375,383.0108642578125
17.0299999,0.2106897532939911,19.108123779296875,14.721946716308594,249.6185302734375,157.7301025390625,455.169677734375
17.0499999,-3.0382418632507324,13.419500350952148,13.742717742919922,167.1600341796875,46.9970703125,491.729736328125
17.0699999,-6.509834289550781,7.637503623962402,13.08910083770752,19.500732421875,-69.580078125,483.2305908203125
17.089999900000002,-9.710882186889648,2.252943754196167,12.181697845458984,-167.8924560546875,-158.38623046875,428.03955078125
17.109999900000002,-12.569559097290039,-2.3726539611816406,10.108319282531738,-374.57275390625,-223.785400390625,379.2572021484375
17.1299999,-15.004462242126465,-5.983109951019287,6.31829833984375,-497.00927734375,-320.9228515625,307.3883056640625
17.1499999,-16.879121780395508,-8.611943244934082,0.6416460275650024,-498.4130859375,-301.20849609375,163.5284423828125
17.1699999,-17.87032127380371,-10.359710693359375,-6.521805286407471,-500,-150.4364013671875,-2.8839111328125
17.1899999,-17.4537296295166,-11.334151268005371,-14.068328857421875,-485.7940673828125,10.3759765625,-155.21240234375
17.2099999,-15.365986824035645,-11.458649635314941,-20.211851119995117,-267.5628662109375,173.553466796875,-282.77587890625
17.2299999,-11.772290229797363,-10.704475402832031,-23.52542495727539,-49.072265625,264.2364501953125,-366.2109375
17.249999900000002,-6.931213855743408,-8.523358345031738,-23.33867835998535,110.9161376953125,241.851806640625,-431.0150146484375
17.269999900000002,-1.6208745241165161,-4.484339714050293,-20.094533920288086,194.7174072265625,191.2689208984375,-479.7515869140625
17.2899999,3.378218650817871,0.5722141861915588,-15.073893547058105,183.868408203125,228.57666015625,-406.3262939453125
17.3099999,7.359776020050049,5.9304375648498535,-9.581595420837402,75.4852294921875,269.7296142578125,-298.5076904296875
17.3299999,9.600749015808105,10.314221382141113,-4.285621166229248,50.3387451171875,248.1231689453125,-239.990234375
17.3499999,9.895236015319824,12.84968090057373,0.5817909836769104,84.6710205078125,280.1666259765625,-198.974609375
17.3699999,8.93037223815918,14.195221900939941,5.7987565994262695,24.5513916015625,346.4202880859375,-185.1654052734375
17.3899999,8.374917984008789,15.296554565429688,12.509703636169434,60.60791015625,328.7811279296875,-130.401611328125
17.409999900000003,9.332598686218262,16.002843856811523,19.153614044189453,200.927734375,-10.711669921875,8.6669921875
17.429999900000002,11.27190113067627,16.02678680419922,24.995466232299805,82.794189453125,-301.8646240234375,109.8480224609375
17.4499999,15.088258743286133,14.81771469116211,27.243621826171875,0.8697509765625,-382.9193115234375,157.501220703125
17.4699999,18.4688720703125,12.136208534240723,24.61957550048828,33.7982177734375,-485.2447509765625,152.1759033203125
17.4899999,20.338743209838867,8.377311706542969,17.784130096435547,-65.6890869140625,-500,199.249267578125
17.5099999,20.17354393005371,4.156333923339844,7.936778545379639,-206.7718505859375,-500,263.2293701171875
17.5299999,17.42739486694336,-0.304063618183136,-3.6320040225982666,-228.485107421875,-500,261.383056640625
17.5499999,12.557587623596191,-3.957615375518799,-15.483302116394043,-126.953125,-263.5040283203125,210.3271484375
17.5699999,6.172252178192139,-5.928043365478516,-25.653871536254883,-24.017333984375,176.57470703125,192.2607421875
17.589999900000002,-0.8451532125473022,-6.1052141189575195,-32.958580017089844,-22.4456787109375,499.9847412109375,269.2413330078125
17.609999900000002,-7.9846625328063965,-4.7405195236206055,-35.996822357177734,3.448486328125,499.9847412109375,282.196044921875
17.6299999,-14.195221900939941,-2.7222073078155518,-34.69916534423828,228.21044921875,420.10498046875,118.9117431640625
17.6499999,-18.576610565185547,-0.3926490843296051,-29.95625114440918,492.8741455078125,303.7109375,-129.33349609375
17.6699999,-20.389020919799805,3.3423056602478027,-23.017854690551758,496.826171875,307.6629638671875,-323.883056640625
17.6899999,-19.922151565551758,9.153033256530762,-14.824896812438965,496.3836669921875,436.09619140625,-369.0338134765625
17.7099999,-18.330007553100586,14.870387077331543,-6.1052141189575195,404.815673828125,499.9847412109375,-284.7442626953125
17.7299999,-16.52238655090332,19.364303588867188,3.093308687210083,136.71875,499.9847412109375,-321.7315673828125
17.749999900000002,-14.393940925598145,21.071369171142578,12.260706901550293,-8.9111328125,499.9847412109375,-473.846435546875
17.769999900000002,-12.179304122924805,20.640413284301758,19.81441307067871,49.31640625,152.9541015625,-310.85205078125
17.7899999,-9.387664794921875,19.24938201904297,24.997859954833984,118.438720703125,-298.9349365234375,32.1807861328125
17.8099999,-5.281609058380127,18.186355590820312,26.680984497070312,88.6077880859375,-480.438232421875,132.843017578125
17.8299999,-0.4884171485900879,17.164031982421875,25.364171981811523,27.557373046875,-500,123.6114501953125
17.8499999,5.183446884155273,15.696386337280273,21.911733627319336,44.3572998046875,-500,179.7027587890625
17.8699999,10.572794914245605,13.182474136352539,16.70913314819336,49.0875244140625,-500,345.5810546875
17.8899999,13.675680160522461,9.423578262329102,9.600749015808105,-143.4326171875,-500,465.606689453125
17.909999900000003,13.61103630065918,4.728548526763916,-0.7206547260284424,-496.2005615234375,-500,390.472412109375
17.929999900000002,11.379640579223633,-0.2106897532939911,-14.046781539916992,-498.2147216796875,-498.9471435546875,183.135986328125
17.9499999,6.97430944442749,-3.4739866256713867,-27.116727828979492,-97.7935791015625,-52.3529052734375,31.494140625
17.9699999,3.023876667022705,-4.869806289672852,-37.155616760253906,464.569091796875,169.677734375,-1.5869140625
17.9899999,-0.35673606395721436,-4.067748546600342,-40.7205810546875,340.6219482421875,409.97314453125,8.514404296875
18.0099999,-3.3016040325164795,-2.140416383743286,-37.28969192504883,221.405029296875,499.9847412109375,-15.9149169921875
18.0299999,-5.4659624099731445,0.10773907601833344,-29.494171142578125,231.87255859375,499.9847412109375,-100.4638671875
18.0499999,-6.979097843170166,2.248155355453491,-20.10890007019043,198.0133056640625,499.9847412109375,-196.441650390625
18.0699999,-8.226476669311523,4.446032524108887,-10.991780281066895,162.689208984375,499.9847412109375,-276.06201171875
18.089999900000002,-8.858546257019043,6.567295074462891,-2.279279947280884,145.2178955078125,499.9847412109375,-330.230712890625
18.109999900000002,-8.537723541259766,8.62391471862793,5.688623428344727,129.39453125,499.9847412109375,-283.8134765625
18.1299999,-7.2352776527404785,10.706870079040527,12.442666053771973,89.447021484375,309.3109130859375,-153.3050537109375
18.1499999,-5.264849662780762,12.169727325439453,17.32683753967285,35.33935546875,14.9383544921875,3.2806396484375
18.1699999,-3.272873640060425,12.955025672912598,19.235015869140625,27.3590087890625,-96.9085693359375,77.667236328125
18.1899999,-1.9560627937316895,12.957419395446777,18.330007553100586,37.2772216796875,-158.4320068359375,78.5369873046875
18.2099999,-1.2641384601593018,12.279860496520996,15.634137153625488,48.6602783203125,-204.5745849609375,101.9287109375
18.2299999,-0.9888052940368652,11.259930610656738,12.344504356384277,30.9906005859375,-254.1656494140625,157.5775146484375
18.249999900000002,-0.8451532125473022,10.079588890075684,9.255983352661133,-17.0745849609375,-296.3409423828125,212.2039794921875
18.269999900000002,-0.6344634294509888,8.741230010986328,6.572083473205566,-59.2041015625,-361.572265625,247.0855712890625
18.2899999,-0.3471592366695404,7.094019412994385,4.010287761688232,-91.644287109375,-465.545654296875,300.1708984375
18.3099999,-0.7374141216278076,5.063736438751221,1.1851298809051514,-104.461669921875,-500,420.8221435546875
18.3299999,-2.5761611461639404,2.341529369354248,-2.671929121017456,-220.8251953125,-500,499.9847412109375
18.3499999,-6.210559368133545,-0.4668693244457245,-8.540117263793945,-495.1324462890625,-500,499.9847412109375
18.3699999,-10.45547866821289,-3.6367924213409424,-16.63970184326172,-496.551513671875,-307.4951171875,353.6376953125
18.3899999,-14.207192420959473,-6.66785192489624,-24.59324073791504,-126.3580322265625,-39.5660400390625,78.277587890625
18.409999900000003,-15.842432975769043,-8.825027465820312,-30.356082916259766,303.4820556640625,12.298583984375,-163.02490234375
18.429999900000002,-14.954183578491211,-9.9000244140625,-31.435869216918945,212.188720703125,97.1832275390625,-307.464599609375
18.4499999,-12.160150527954102,-9.222464561462402,-27.806259155273438,80.01708984375,98.663330078125,-365.1580810546875
18.4699999,-8.161833763122559,-7.000645637512207,-21.607669830322266,58.197021484375,49.041748046875,-403.045654296875
18.4899999,-3.3494882583618164,-3.2824504375457764,-15.385140419006348,80.8563232421875,101.2115478515625,-311.1419677734375
18.5099999,2.3702597618103027,2.013523578643799,-10.745177268981934,124.8016357421875,229.9957275390625,-127.593994140625
18.5299999,8.999804496765137,7.4555439949035645,-7.196970462799072,173.9654541015625,331.6650390625,75.5767822265625
18.5499999,15.440206527709961,12.469002723693848,-4.944026470184326,44.952392578125,285.4766845703125,181.3507080078125
18.5699999,20.8463134765625,15.7107515335083,-2.779668092727661,-68.9849853515625,159.210205078125,137.39013671875
18.589999900000002,23.45120620727539,16.314090728759766,-0.7158663272857666,-18.524169921875,117.279052734375,106.2164306640625
18.609999900000002,23.02982521057129,15.054739952087402,0.9744400978088379,-42.205810546875,114.31884765625,146.636962890625
18.6299999,20.214244842529297,12.485761642456055,1.9919757843017578,-94.66552734375,70.00732421875,176.605224609375
18.6499999,16.17522621154785,9.425971984863281,2.27209734916687,-146.392822265625,1.220703125,194.76318359375
18.6699999,11.999738693237305,6.236895561218262,1.8842366933822632,-157.2265625,-13.97705078125,194.854736328125
18.6899999,8.65743350982666,3.114856481552124,1.1468225717544556,-120.025634765625,-0.1220703125,155.242919921875
18.7099999,6.926425457000732,0.29209262132644653,0.06464344263076782,-123.8250732421875,-6.40869140625,93.75
18.7299999,6.861782073974609,-2.27209734916687,-1.2761094570159912,-175.78125,-25.726318359375,43.5791015625
18.749999900000002,8.315062522888184,-4.5394062995910645,-2.8850131034851074,-178.985595703125,-8.3465576171875,28.4271240234375
18.769999900000002,10.251971244812012,-6.447585105895996,-4.338293552398682,-105.3924560546875,86.7156982421875,9.521484375
18.7899999,12.097901344299316,-8.152256965637207,-5.458779811859131,-73.8677978515625,139.4805908203125,-19.439697265625
18.8099999,13.316550254821777,-9.583989143371582,-6.215347766876221,-132.99560546875,96.00830078125,-36.407470703125
18.8299999,13.285425186157227,-10.680533409118652,-6.576871871948242,-171.722412109375,98.2666015625,-22.1710205078125
18.8499999,12.30859088897705,-11.101913452148438,-6.92881965637207,-211.669921875,140.0299072265625,-78.67431640625
18.8699999,10.33098030090332,-10.577583312988281,-7.493851184844971,-264.83154296875,130.523681640625,-168.6859130859375
18.8899999,7.687781810760498,-8.983044624328613,-8.355764389038086,-198.699951171875,79.071044921875,-128.90625
18.909999900000003,4.927267074584961,-6.358999729156494,-9.725247383117676,-66.4520263671875,21.42333984375,-11.7950439453125
18.929999900000002,2.406172752380371,-3.1938650608062744,-11.511322021484375,-27.5115966796875,22.979736328125,27.16064453125
18.9499999,0.7182605266571045,0.15801730751991272,-13.46259593963623,-55.60302734375,59.0362548828125,-12.7105712890625
18.9699999,0.2106897532939911,3.090914487838745,-15.119383811950684,-75.3173828125,71.075439453125,-44.342041015625
18.9899999,1.3934253454208374,5.504269599914551,-16.134525299072266,-74.310302734375,84.3048095703125,-66.34521484375
19.0099999,3.485957622528076,6.825869083404541,-16.031574249267578,-55.2825927734375,125.30517578125,-51.239013671875
19.0299999,5.633556365966797,6.979097843170166,-14.659696578979492,-1.9378662109375,137.969970703125,16.29638671875
19.0499999,7.082048416137695,6.392518520355225,-12.100295066833496,61.0809326171875,125.5035400390625,17.8680419921875
19.0699999,7.513004779815674,5.628767967224121,-8.607154846191406,111.8621826171875,119.3695068359375,-25.3753662109375
19.089999900000002,7.3238630294799805,5.17626428604126,-4.944026470184326,117.401123046875,112.060546875,-18.1121826171875
19.109999900000002,6.897695064544678,5.1810526847839355,-1.7621324062347412,81.8634033203125,94.8638916015625,15.655517578125
19.1299999,6.584054470062256,5.3582234382629395,0.37828385829925537,60.9283447265625,61.187744140625,38.0096435546875
19.1499999,6.5696892738342285,5.353435039520264,1.3407529592514038,70.49560546875,30.8380126953125,30.2734375
19.1699999,6.75883150100708,5.295974254608154,1.3934253454208374,95.0469970703125,57.7239990234375,11.8560791015625
19.1899999,7.2113356590271,5.104437828063965,0.9648633003234863,74.371337890625,84.9761962890625,12.6190185546875
19.2099999,7.671022415161133,4.891354084014893,0.3758896589279175,55.450439453125,65.704345703125,21.42333984375
19.2299999,8.070854187011719,4.577713489532471,-0.181959331035614,72.9827880859375,42.3431396484375,9.0484619140625
19.249999900000002,8.406042098999023,4.376600742340088,-0.6560112833976746,94.7723388671875,56.854248046875,-12.0086669921875
19.269999900000002,8.592789649963379,4.220977783203125,-0.8667010068893433,83.648681640625,84.0301513671875,0.518798828125
19.2899999,8.664615631103516,4.223371982574463,-0.7733271718025208,63.6138916015625,81.9091796875,12.6190185546875
19.3099999,8.609549522399902,4.259284973144531,-0.40462008118629456,80.3985595703125,49.2401123046875,9.8724365234375
19.3299999,8.485051155090332,4.223371982574463,-0.011971008032560349,99.42626953125,33.3709716796875,9.033203125
19.3499999,8.38449478149414,4.125209331512451,0.3423708379268646,93.3685302734375,41.3970947265625,20.538330078125
19.3699999,8.425195693969727,4.043806552886963,0.5674257874488831,75.958251953125,51.20849609375,13.7176513671875
19.3899999,8.47786808013916,4.043806552886963,0.7757213711738586,85.205078125,50.048828125,-3.4637451171875
19.409999900000003,8.506598472595215,4.077325344085693,0.9648633003234863,93.81103515625,41.9158935546875,1.708984375
19.429999900000002,8.47786808013916,4.1156325340271,1.161187767982483,85.1287841796875,29.1595458984375,24.84130859375
19.4499999,8.4108304977417,4.098873138427734,1.335964560508728,69.671630859375,20.721435546875,26.9317626953125
19.4699999,8.293514251708984,3.9193081855773926,1.4724340438842773,69.3359375,17.27294921875,13.12255859375
19.4899999,8.185775756835938,3.6320040225982666,1.5514427423477173,81.2530517578125,13.275146484375,11.7950439453125
19.5099999,8.128314971923828,3.3039982318878174,1.5634137392044067,81.0546875,10.589599609375,13.18359375
19.5299999,8.1139497756958,3.0765492916107178,1.5059528350830078,73.0133056640625,10.0860595703125,3.5247802734375
19.5499999,8.166622161865234,2.980781078338623,1.3479355573654175,64.51416015625,11.8255615234375,-7.568359375
19.5699999,8.190564155578613,2.983175277709961,1.161187767982483,69.1375732421875,11.2457275390625,0.9307861328125
19.589999900000002,8.214506149291992,3.023876667022705,0.9696516990661621,72.57080078125,3.021240234375,7.537841796875
19.609999900000002,8.26239013671875,3.0166940689086914,0.7637503147125244,62.01171875,-9.27734375,1.89208984375
19.6299999,8.365341186523438,2.999934673309326,0.48602294921875,62.225341796875,-9.918212890625,-4.6539306640625
19.6499999,8.564059257507324,2.9712042808532715,0.16998831927776337,68.359375,0.091552734375,-1.5106201171875
19.6699999,8.777143478393555,2.999934673309326,-0.08858546614646912,63.5528564453125,16.0980224609375,2.0904541015625
19.6899999,8.884882926940918,3.069366693496704,-0.21787235140800476,61.553955078125,12.6190185546875,5.706787109375
19.7099999,8.841787338256836,3.098097085952759,-0.1867477297782898,59.844970703125,2.3651123046875,0.7171630859375
19.7299999,8.655038833618164,3.1052796840667725,-0.15562310814857483,54.9774169921875,8.7432861328125,-8.0718994140625
19.749999900000002,8.470685958862305,3.07415509223938,-0.15083470940589905,61.9964599609375,9.1552734375,-3.2196044921875
19.769999900000002,8.346187591552734,3.0813376903533936,-0.2513911724090576,74.5849609375,-6.7596435546875,8.4991455078125
19.7899999,8.288725852966309,3.1244332790374756,-0.37828385829925537,71.1669921875,-9.796142578125,4.0130615234375
19.8099999,8.29590892791748,3.2537200450897217,-0.6009446382522583,58.65478515625,-1.9378662109375,-5.1727294921875
19.8299999,8.336610794067383,3.4955344200134277,-0.8547300100326538,52.8106689453125,6.77490234375,-4.4097900390625
19.8499999,8.497021675109863,3.864241600036621,-1.1420341730117798,64.7430419921875,4.669189453125,6.3323974609375
19.8699999,8.719682693481445,4.288015365600586,-1.3694833517074585,64.483642578125,3.265380859375,14.617919921875
19.8899999,8.932766914367676,4.702212333679199,-1.4173674583435059,34.6527099609375,44.158935546875,1.922607421875
19.909999900000003,9.035717010498047,4.989516258239746,-1.357512354850769,22.52197265625,49.2095947265625,6.9122314453125
19.929999900000002,8.916007041931152,5.1331682205200195,-1.1085153818130493,77.45361328125,-18.646240234375,49.6673583984375
19.9499999,8.674192428588867,5.106832027435303,-0.667982280254364,109.3292236328125,-49.9267578125,58.04443359375
19.9699999,8.406042098999023,5.049371242523193,0.05267243832349777,80.3375244140625,-24.566650390625,35.0799560546875
19.9899999,8.293514251708984,5.003881454467773,1.0247182846069336,44.8150634765625,-5.6304931640625,29.2816162109375
20.0099999,8.339004516601562,5.1331682205200195,2.274491548538208,53.497314453125,-20.2789306640625,43.701171875
20.0299999,8.561665534973145,5.4444146156311035,3.706224203109741,78.6285400390625,-44.6929931640625,69.3359375
20.0499999,8.820239067077637,6.016628742218018,5.324704647064209,71.502685546875,-39.48974609375,87.2955322265625
