# Time (seconds),Accel_X,Accel_Y,Accel_Z,Gyro_X,Gyro_Y,Gyro_Z
0.0099999,9.47146224975586,0.2106897532939911,-2.691082715988159,1.190185546875,0.701904296875,-0.2593994140625
0.029999900000000003,9.466673851013184,0.22266076505184174,-2.693476915359497,1.6326904296875,1.434326171875,-0.4425048828125
0.0499999,9.469067573547363,0.21547815203666687,-2.7006595134735107,0.6561279296875,0.6561279296875,-0.5645751953125
0.0699999,9.47146224975586,0.21547815203666687,-2.691082715988159,-0.152587890625,0.9765625,-1.3427734375
0.08999990000000001,9.476250648498535,0.2106897532939911,-2.671929121017456,0.2899169921875,1.3427734375,-0.3509521484375
0.10999990000000001,9.473855972290039,0.2059013396501541,-2.676717519760132,0.7476806640625,-0.6561279296875,0.9002685546875
0.1299999,9.469067573547363,0.19871874153614044,-2.676717519760132,1.40380859375,-0.030517578125,-0.2593994140625
0.14999990000000002,9.466673851013184,0.181959331035614,-2.676717519760132,1.1138916015625,2.01416015625,-1.0223388671875
0.1699999,9.461885452270508,0.17956513166427612,-2.6862943172454834,-0.6256103515625,0.518798828125,-1.495361328125
0.1899999,9.464279174804688,0.18914192914962769,-2.6862943172454834,-0.48828125,-0.0762939453125,-0.6103515625
0.20999990000000002,9.464279174804688,0.19632454216480255,-2.6815059185028076,0.48828125,1.373291015625,0.67138671875
0.2299999,9.464279174804688,0.19871874153614044,-2.6886885166168213,0.5645751953125,1.068115234375,0.0457763671875
0.2499999,9.464279174804688,0.19393034279346466,-2.695871114730835,0.1068115234375,0.6103515625,-1.4190673828125
0.2699999,9.464279174804688,0.20111294090747833,-2.7030537128448486,0.457763671875,1.373291015625,-1.1749267578125
0.28999990000000003,9.464279174804688,0.2059013396501541,-2.7006595134735107,0.91552734375,2.0294189453125,0.9002685546875
0.3099999,9.459490776062012,0.20350714027881622,-2.6862943172454834,0.8544921875,1.3275146484375,1.2359619140625
0.3299999,9.459490776062012,0.19393034279346466,-2.669534921646118,0.4119873046875,-0.3204345703125,-0.9918212890625
0.34999990000000003,9.459490776062012,0.17717093229293823,-2.6623523235321045,0.732421875,-0.640869140625,-1.4495849609375
0.3699999,9.466673851013184,0.17956513166427612,-2.674323320388794,1.007080078125,1.0223388671875,-0.54931640625
0.3899999,9.47146224975586,0.20111294090747833,-2.691082715988159,0.518798828125,2.227783203125,-0.1068115234375
0.40999990000000003,9.473855972290039,0.22026655077934265,-2.693476915359497,0.5035400390625,1.6632080078125,0.67138671875
0.4299999,9.469067573547363,0.20350714027881622,-2.6815059185028076,0.4119873046875,-0.3204345703125,0.1983642578125
0.4499999,9.461885452270508,0.1867477297782898,-2.6815059185028076,0.030517578125,0.946044921875,-1.7242431640625
0.4699999,9.461885452270508,0.181959331035614,-2.6886885166168213,-0.0152587890625,1.6021728515625,-1.4801025390625
0.4899999,9.457097053527832,0.19632454216480255,-2.691082715988159,-0.030517578125,0.8087158203125,0.518798828125
0.5099999,9.459490776062012,0.21308395266532898,-2.6839001178741455,0.2593994140625,0.42724609375,1.0833740234375
0.5299999,9.461885452270508,0.22026655077934265,-2.6791117191314697,0.396728515625,0.7476806640625,-0.152587890625
0.5499999,9.461885452270508,0.20350714027881622,-2.6862943172454834,0.2899169921875,0.6103515625,-0.3662109375
0.5699999,9.466673851013184,0.19393034279346466,-2.695871114730835,0.1678466796875,1.129150390625,-0.3509521484375
0.5899998999999999,9.469067573547363,0.19632454216480255,-2.7006595134735107,0.2288818359375,1.5716552734375,-0.7476806640625
0.6099998999999999,9.469067573547363,0.19871874153614044,-2.7006595134735107,0.6256103515625,0.885009765625,0.3814697265625
0.6299999,9.469067573547363,0.1867477297782898,-2.691082715988159,0.6561279296875,0.54931640625,1.0833740234375
0.6499999,9.469067573547363,0.1843535304069519,-2.6839001178741455,0.3509521484375,0.274658203125,-1.4495849609375
0.6699999,9.469067573547363,0.1867477297782898,-2.693476915359497,0.1068115234375,0.4730224609375,-1.9989013671875
0.6899999,9.469067573547363,0.20350714027881622,-2.7030537128448486,0.8697509765625,1.40380859375,0.8697509765625
0.7099999,9.469067573547363,0.22744916379451752,-2.715024709701538,1.1138916015625,1.6937255859375,2.0294189453125
0.7299998999999999,9.469067573547363,0.23702596127986908,-2.7126305103302,0.91552734375,1.52587890625,0.6103515625
0.7499998999999999,9.469067573547363,0.22744916379451752,-2.7126305103302,0.6561279296875,0.732421875,-0.244140625
0.7699999,9.466673851013184,0.21547815203666687,-2.7006595134735107,0.8087158203125,1.129150390625,0.244140625
0.7899999,9.466673851013184,0.20350714027881622,-2.6815059185028076,0.6103515625,2.3193359375,0.762939453125
0.8099999,9.466673851013184,0.19153612852096558,-2.6671407222747803,-0.091552734375,0.5950927734375,0.5340576171875
0.8299999,9.464279174804688,0.16998831927776337,-2.655169725418091,-0.0457763671875,-0.8544921875,0.18310546875
0.8499998999999999,9.464279174804688,0.1604115068912506,-2.6623523235321045,0.18310546875,-0.030517578125,-1.0528564453125
0.8699998999999999,9.461885452270508,0.15801730751991272,-2.6862943172454834,0.518798828125,1.4495849609375,-0.8544921875
0.8899999,9.461885452270508,0.17477671802043915,-2.698265314102173,0.4730224609375,2.01416015625,0.1220703125
0.9099999,9.461885452270508,0.19153612852096558,-2.7006595134735107,0.030517578125,0.640869140625,0.274658203125
0.9299999,9.461885452270508,0.20350714027881622,-2.695871114730835,-0.1220703125,-0.5950927734375,-0.18310546875
0.9499999,9.464279174804688,0.2082955539226532,-2.691082715988159,0.30517578125,0.457763671875,-0.5950927734375
0.9699998999999999,9.464279174804688,0.20350714027881622,-2.693476915359497,0.6256103515625,1.708984375,-0.1068115234375
0.9899998999999999,9.466673851013184,0.19632454216480255,-2.695871114730835,0.457763671875,1.2054443359375,0.1068115234375
1.0099999,9.466673851013184,0.19153612852096558,-2.6839001178741455,0.213623046875,0.518798828125,-0.732421875
1.0299999,9.466673851013184,0.19632454216480255,-2.674323320388794,-0.1068115234375,-0.213623046875,-0.9765625
1.0499999,9.469067573547363,0.2059013396501541,-2.676717519760132,0.030517578125,-0.2593994140625,-0.1678466796875
1.0699999,9.466673851013184,0.21547815203666687,-2.6862943172454834,0.3509521484375,0.8697509765625,0.4425048828125
1.0899999,9.466673851013184,0.21547815203666687,-2.693476915359497,0.3662109375,0.9918212890625,0.1373291015625
1.1099999,9.464279174804688,0.20111294090747833,-2.691082715988159,0.2899169921875,0.06103515625,-0.3814697265625
1.1299999,9.459490776062012,0.1843535304069519,-2.691082715988159,-0.1220703125,-0.762939453125,-0.885009765625
1.1499999,9.457097053527832,0.17477671802043915,-2.6886885166168213,-0.030517578125,0.0152587890625,-1.2054443359375
1.1699998999999999,9.457097053527832,0.1843535304069519,-2.693476915359497,0.1068115234375,0.6256103515625,-1.434326171875
1.1899998999999999,9.459490776062012,0.20350714027881622,-2.7054479122161865,0.457763671875,0.1373291015625,-0.54931640625
1.2099999,9.459490776062012,0.23942017555236816,-2.7246015071868896,0.3509521484375,-0.1373291015625,-0.244140625
1.2299999,9.466673851013184,0.26575639843940735,-2.741360902786255,0.8697509765625,1.0986328125,0.67138671875
1.2499999,9.469067573547363,0.2777273952960968,-2.7437551021575928,1.129150390625,2.3193359375,1.6937255859375
1.2699999,9.469067573547363,0.26575639843940735,-2.7293899059295654,0.48828125,0.7781982421875,1.40380859375
1.2899999,9.469067573547363,0.22026655077934265,-2.7078421115875244,0.152587890625,-0.91552734375,0.9307861328125
1.3099999,9.464279174804688,0.17477671802043915,-2.695871114730835,0.1220703125,-0.579833984375,-0.6561279296875
1.3299999,9.459490776062012,0.15322890877723694,-2.7054479122161865,0.640869140625,0.7476806640625,-1.8768310546875
1.3499999,9.454702377319336,0.1604115068912506,-2.7222073078155518,0.8697509765625,1.708984375,-0.42724609375
1.3699999,9.452308654785156,0.19153612852096558,-2.7293899059295654,0.54931640625,1.129150390625,1.03759765625
1.3899999,9.44991397857666,0.22744916379451752,-2.738966703414917,0.5035400390625,-0.4730224609375,0.9613037109375
1.4099999,9.452308654785156,0.23702596127986908,-2.741360902786255,1.03759765625,0.48828125,0.518798828125
1.4299998999999999,9.452308654785156,0.2298433631658554,-2.738966703414917,1.28173828125,2.3193359375,0.7476806640625
1.4499999,9.454702377319336,0.2059013396501541,-2.734178304672241,0.6256103515625,1.0986328125,0.732421875
1.4699999,9.454702377319336,0.19153612852096558,-2.719813108444214,0.0152587890625,-0.2593994140625,-0.6256103515625
1.4899999,9.457097053527832,0.17717093229293823,-2.7126305103302,0.4119873046875,0.18310546875,-0.3509521484375
1.5099999,9.457097053527832,0.17238251864910126,-2.7078421115875244,0.6256103515625,1.0986328125,0.67138671875
1.5299999,9.461885452270508,0.17477671802043915,-2.715024709701538,0.1983642578125,0.579833984375,0.1983642578125
1.5499999,9.464279174804688,0.181959331035614,-2.719813108444214,0.1220703125,0.3814697265625,-0.8544921875
1.5699999,9.464279174804688,0.19632454216480255,-2.719813108444214,0.1220703125,0.6866455078125,-0.3662109375
1.5899999,9.464279174804688,0.2082955539226532,-2.7269957065582275,0.1068115234375,0.48828125,1.0528564453125
1.6099999,9.461885452270508,0.21308395266532898,-2.734178304672241,0.2899169921875,0.244140625,1.007080078125
1.6299999,9.457097053527832,0.2059013396501541,-2.736572504043579,0.6256103515625,1.1138916015625,-0.1373291015625
1.6499999,9.44991397857666,0.18914192914962769,-2.736572504043579,0.5340576171875,1.2054443359375,-0.3509521484375
1.6699999,9.44752025604248,0.17956513166427612,-2.741360902786255,0.18310546875,0.1068115234375,-0.0152587890625
1.6899998999999999,9.445125579833984,0.1843535304069519,-2.736572504043579,0.1678466796875,0.9307861328125,0.0457763671875
1.7099999,9.445125579833984,0.18914192914962769,-2.7317841053009033,0.457763671875,1.5716552734375,0.4119873046875
1.7299999,9.44752025604248,0.1843535304069519,-2.736572504043579,0.3662109375,0.3662109375,0.7476806640625
1.7499999,9.44991397857666,0.1843535304069519,-2.7317841053009033,0.457763671875,0.6866455078125,-0.152587890625
1.7699999,9.452308654785156,0.181959331035614,-2.7293899059295654,0.5950927734375,1.4190673828125,-0.457763671875
1.7899999,9.454702377319336,0.17956513166427612,-2.734178304672241,0.8087158203125,0.9307861328125,0.640869140625
1.8099999,9.454702377319336,0.181959331035614,-2.7293899059295654,0.579833984375,0.5950927734375,0.54931640625
1.8299999,9.454702377319336,0.17956513166427612,-2.736572504043579,0.67138671875,0.8087158203125,-0.1220703125
1.8499999,9.457097053527832,0.181959331035614,-2.738966703414917,0.8544921875,1.52587890625,-0.1068115234375
1.8699999,9.464279174804688,0.19393034279346466,-2.7437551021575928,0.6561279296875,1.9683837890625,0.7171630859375
1.8899999,9.473855972290039,0.21787235140800476,-2.760514497756958,0.335693359375,1.2054443359375,1.5716552734375
1.9099999,9.48343276977539,0.24181437492370605,-2.7724854946136475,1.2969970703125,2.899169921875,2.3956298828125
1.9299998999999999,9.478644371032715,0.2561795711517334,-2.7700912952423096,2.0599365234375,5.096435546875,3.753662109375
1.9499999,9.457097053527832,0.15801730751991272,-2.7078421115875244,0.5035400390625,0.9765625,2.3193359375
1.9699999,9.44752025604248,0.09576806426048279,-2.6623523235321045,0.42724609375,0.640869140625,-0.823974609375
1.9899999,9.442731857299805,0.047884032130241394,-2.6384103298187256,0.732421875,1.1749267578125,0.1220703125
2.0099999,9.442731857299805,0.043095629662275314,-2.6360161304473877,0.4425048828125,0.8087158203125,1.220703125
2.0299999,9.44752025604248,0.06703764945268631,-2.650381326675415,0.0762939453125,0.3204345703125,0.30517578125
2.0499999,9.452308654785156,0.09576806426048279,-2.6647465229034424,0.4730224609375,0.8697509765625,0.4425048828125
2.0699999,9.457097053527832,0.10534487664699554,-2.6791117191314697,0.885009765625,0.885009765625,1.5869140625
2.0899999,9.459490776062012,0.10295066982507706,-2.6886885166168213,0.6866455078125,0.1373291015625,0.640869140625
2.1099999,9.464279174804688,0.0933738648891449,-2.691082715988159,0.2593994140625,0.152587890625,-0.9002685546875
2.1299999,9.466673851013184,0.090979665517807,-2.7030537128448486,0.0152587890625,0.3204345703125,-0.7476806640625
2.1499999,9.469067573547363,0.10534487664699554,-2.719813108444214,0.152587890625,0.5340576171875,0.3662109375
2.1699999,9.466673851013184,0.12689268589019775,-2.7269957065582275,0.5950927734375,1.40380859375,1.0528564453125
2.1899999,9.466673851013184,0.12689268589019775,-2.7317841053009033,0.79345703125,1.312255859375,1.5411376953125
2.2099999,9.47146224975586,0.11252748221158981,-2.736572504043579,0.213623046875,0.5645751953125,0.30517578125
2.2299999,9.478644371032715,0.1173158809542656,-2.741360902786255,-0.1068115234375,1.5716552734375,-1.6326904296875
2.2499999,9.481039047241211,0.13168109953403473,-2.75812029838562,1.0528564453125,3.4027099609375,0.946044921875
2.2699999,9.476250648498535,0.15801730751991272,-2.7557260990142822,2.2430419921875,4.1351318359375,4.0435791015625
2.2899999,9.469067573547363,0.15562310814857483,-2.7222073078155518,2.4566650390625,3.5858154296875,3.753662109375
2.3099999,9.459490776062012,0.10295066982507706,-2.669534921646118,0.5950927734375,1.0528564453125,1.6021728515625
2.3299999,9.454702377319336,0.028730420395731926,-2.6360161304473877,-0.6256103515625,-0.457763671875,-0.640869140625
2.3499999,9.454702377319336,-0.011971008032560349,-2.631227731704712,-0.3662109375,1.1138916015625,-2.3651123046875
2.3699999,9.459490776062012,-0.009576806798577309,-2.650381326675415,1.15966796875,3.35693359375,-0.732421875
2.3899999,9.459490776062012,0.033518824726343155,-2.6671407222747803,1.4495849609375,2.4871826171875,1.2664794921875
2.4099999,9.461885452270508,0.05985504388809204,-2.655169725418091,0.579833984375,0.7476806640625,1.3275146484375
2.4299999,9.464279174804688,0.05267243832349777,-2.6384103298187256,-0.0457763671875,-0.7476806640625,-0.213623046875
2.4499999,9.464279174804688,0.033518824726343155,-2.631227731704712,-0.06103515625,-0.457763671875,-2.62451171875
2.4699999,9.464279174804688,0.019153613597154617,-2.647987127304077,-0.274658203125,0.640869140625,-2.6092529296875
2.4899999,9.464279174804688,0.0454898327589035,-2.6671407222747803,-0.2899169921875,1.129150390625,-1.64794921875
2.5099999,9.461885452270508,0.09576806426048279,-2.693476915359497,-0.091552734375,0.5645751953125,-0.8392333984375
2.5299999,9.464279174804688,0.12928688526153564,-2.7030537128448486,0.335693359375,1.0833740234375,0.0457763671875
2.5499999,9.466673851013184,0.12689268589019775,-2.7006595134735107,0.457763671875,1.800537109375,0.2593994140625
2.5699999,9.47146224975586,0.10295066982507706,-2.6862943172454834,-0.091552734375,0.9765625,-1.46484375
2.5899999,9.478644371032715,0.08619125932455063,-2.674323320388794,-0.48828125,-0.54931640625,-2.7313232421875
2.6099999,9.478644371032715,0.09816227108240128,-2.674323320388794,-0.1983642578125,-0.1983642578125,-1.2664794921875
2.6299999,9.476250648498535,0.12928688526153564,-2.6791117191314697,0.6866455078125,1.6632080078125,1.3885498046875
2.6499999,9.47146224975586,0.1412578970193863,-2.6886885166168213,0.640869140625,1.434326171875,1.77001953125
2.6699999,9.466673851013184,0.13407529890537262,-2.6886885166168213,-0.0152587890625,0.274658203125,-0.67138671875
2.6899999,9.464279174804688,0.10534487664699554,-2.691082715988159,0.1068115234375,0.2288818359375,-1.2664794921875
2.7099999,9.464279174804688,0.08858546614646912,-2.698265314102173,0.54931640625,1.312255859375,-0.091552734375
2.7299999,9.464279174804688,0.0933738648891449,-2.695871114730835,1.0986328125,2.2430419921875,0.213623046875
2.7499999,9.469067573547363,0.11013327538967133,-2.6839001178741455,0.518798828125,1.0833740234375,0.0457763671875
2.7699999,9.47146224975586,0.1173158809542656,-2.669534921646118,0.091552734375,-0.79345703125,0.67138671875
2.7899999,9.473855972290039,0.11971008777618408,-2.6647465229034424,0.152587890625,-0.3662109375,0.6256103515625
2.8099999,9.47146224975586,0.11971008777618408,-2.674323320388794,0.5645751953125,1.52587890625,-0.244140625
2.8299999,9.469067573547363,0.11971008777618408,-2.695871114730835,0.6256103515625,1.7852783203125,0.396728515625
2.8499999,9.464279174804688,0.12210428714752197,-2.7054479122161865,0.7476806640625,1.3427734375,1.2664794921875
2.8699999,9.461885452270508,0.11013327538967133,-2.691082715988159,0.640869140625,1.5716552734375,1.6326904296875
2.8899999,9.464279174804688,0.06703764945268631,-2.6671407222747803,0.06103515625,0.579833984375,0.8392333984375
2.9099999,9.461885452270508,0.028730420395731926,-2.655169725418091,-0.67138671875,-1.2359619140625,-2.227783203125
2.9299999,9.464279174804688,0.021547814831137657,-2.6599581241607666,-0.457763671875,-0.3814697265625,-3.326416015625
2.9499999,9.464279174804688,0.05746084079146385,-2.6886885166168213,0.5035400390625,1.40380859375,-0.4119873046875
2.9699999,9.466673851013184,0.1173158809542656,-2.7126305103302,0.885009765625,2.0751953125,1.7242431640625
2.9899999,9.47146224975586,0.14844051003456116,-2.7126305103302,0.7781982421875,1.739501953125,1.708984375
3.0099999,9.47146224975586,0.1412578970193863,-2.7006595134735107,0.0457763671875,0.396728515625,0.244140625
3.0299999,9.47146224975586,0.10295066982507706,-2.691082715988159,-0.213623046875,-0.0457763671875,-1.0223388671875
3.0499999,9.469067573547363,0.07900865375995636,-2.6862943172454834,0.4730224609375,1.922607421875,-1.373291015625
3.0699999,9.469067573547363,0.08379705995321274,-2.691082715988159,0.54931640625,2.2735595703125,-0.7476806640625
3.0899999,9.469067573547363,0.10534487664699554,-2.6886885166168213,0.0152587890625,0.8697509765625,0.9613037109375
3.1099999,9.473855972290039,0.12449848651885986,-2.676717519760132,-0.5340576171875,0.7476806640625,1.312255859375
3.1299999,9.473855972290039,0.12689268589019775,-2.669534921646118,0.0457763671875,1.15966796875,0.1678466796875
3.1499999,9.473855972290039,0.11252748221158981,-2.6671407222747803,0.518798828125,1.2054443359375,-0.274658203125
3.1699999,9.469067573547363,0.09576806426048279,-2.671929121017456,0.518798828125,0.79345703125,0.0457763671875
3.1899999,9.469067573547363,0.08858546614646912,-2.676717519760132,0.457763671875,0.7476806640625,0
3.2099999,9.469067573547363,0.08858546614646912,-2.674323320388794,0.54931640625,1.220703125,-0.2288818359375
3.2299999,9.473855972290039,0.08619125932455063,-2.6647465229034424,0.244140625,0.79345703125,0.152587890625
3.2499999,9.476250648498535,0.07900865375995636,-2.6623523235321045,-0.5340576171875,-0.4425048828125,-0.06103515625
3.2699999,9.473855972290039,0.07422025501728058,-2.6575639247894287,-0.6561279296875,0.1678466796875,-1.190185546875
3.2899999,9.466673851013184,0.08140286058187485,-2.671929121017456,-0.0457763671875,0.946044921875,-1.6021728515625
3.3099999,9.459490776062012,0.10534487664699554,-2.693476915359497,0.518798828125,0.823974609375,-0.579833984375
3.3299999000000002,9.454702377319336,0.13407529890537262,-2.7078421115875244,0.762939453125,1.5106201171875,0.6103515625
3.3499999,9.459490776062012,0.1412578970193863,-2.7078421115875244,0.30517578125,1.8463134765625,1.1138916015625
3.3699999,9.461885452270508,0.12928688526153564,-2.695871114730835,-0.213623046875,0.9765625,-0.1373291015625
3.3899999,9.469067573547363,0.10534487664699554,-2.6791117191314697,-0.1678466796875,0.396728515625,-1.0986328125
3.4099999,9.47146224975586,0.08619125932455063,-2.6575639247894287,-0.0457763671875,0.9002685546875,-0.5035400390625
3.4299999,9.478644371032715,0.08379705995321274,-2.647987127304077,-0.5340576171875,0.3204345703125,0
3.4499999,9.476250648498535,0.09816227108240128,-2.6623523235321045,-1.068115234375,-0.8087158203125,-0.457763671875
3.4699999,9.461885452270508,0.1149216815829277,-2.6647465229034424,0.3509521484375,0.9765625,0.6103515625
3.4899999,9.452308654785156,0.10295066982507706,-2.669534921646118,-0.1373291015625,-1.77001953125,-0.48828125
3.5099999,9.44752025604248,0.07900865375995636,-2.676717519760132,0.1068115234375,-1.8157958984375,-1.861572265625
3.5299999,9.452308654785156,0.06703764945268631,-2.693476915359497,0.42724609375,0.152587890625,-2.7008056640625
3.5499999,9.461885452270508,0.08619125932455063,-2.719813108444214,0.5035400390625,1.03759765625,-2.4566650390625
3.5699999,9.469067573547363,0.1364694982767105,-2.738966703414917,0.885009765625,0.244140625,-0.5645751953125
3.5899999,9.469067573547363,0.16519992053508759,-2.738966703414917,0.9613037109375,0.1068115234375,2.044677734375
3.6099999,9.466673851013184,0.15083470940589905,-2.7222073078155518,0.48828125,0.579833984375,1.03759765625
3.6299999,9.466673851013184,0.10773907601833344,-2.7054479122161865,-0.18310546875,-0.42724609375,-3.2196044921875
3.6499999,9.461885452270508,0.0694318488240242,-2.695871114730835,-0.4730224609375,-1.3885498046875,-4.1351318359375
3.6699999,9.459490776062012,0.08379705995321274,-2.7078421115875244,0,-0.7171630859375,-2.3956298828125
3.6899999,9.454702377319336,0.1412578970193863,-2.734178304672241,0.91552734375,0.396728515625,-0.335693359375
3.7099999,9.452308654785156,0.18914192914962769,-2.75812029838562,1.8310546875,1.2359619140625,1.2359619140625
3.7299999,9.454702377319336,0.22026655077934265,-2.7676970958709717,1.068115234375,1.0833740234375,0.18310546875
3.7499999,9.461885452270508,0.21308395266532898,-2.762908697128296,0.4425048828125,0.54931640625,-0.213623046875
3.7699999,9.469067573547363,0.17956513166427612,-2.7485435009002686,0.6256103515625,1.0223388671875,1.1749267578125
3.7899999,9.476250648498535,0.14844051003456116,-2.7437551021575928,0.7171630859375,1.2054443359375,0.701904296875
3.8099999,9.476250648498535,0.12689268589019775,-2.7509377002716064,0.54931640625,1.129150390625,-0.5950927734375
3.8299999000000002,9.47146224975586,0.11971008777618408,-2.7485435009002686,0.3204345703125,2.349853515625,0.152587890625
3.8499999,9.459490776062012,0.12689268589019775,-2.741360902786255,0.335693359375,1.922607421875,1.3885498046875
3.8699999,9.445125579833984,0.13407529890537262,-2.7126305103302,0.396728515625,0.4730224609375,0.640869140625
3.8899999,9.433155059814453,0.1149216815829277,-2.6815059185028076,-0.152587890625,-0.79345703125,-0.8087158203125
3.9099999,9.433155059814453,0.0933738648891449,-2.6647465229034424,-0.9613037109375,-1.4190673828125,-2.471923828125
3.9299999,9.437943458557129,0.09576806426048279,-2.6815059185028076,-1.1444091796875,-1.220703125,-3.143310546875
3.9499999,9.445125579833984,0.12689268589019775,-2.717418909072876,-0.3814697265625,0.1373291015625,-1.64794921875
3.9699999,9.452308654785156,0.181959331035614,-2.762908697128296,0.1983642578125,0.9307861328125,0.1220703125
3.9899999,9.44991397857666,0.22505496442317963,-2.784456491470337,0.2593994140625,1.15966796875,0.885009765625
4.0099999,9.44752025604248,0.2082955539226532,-2.7748796939849854,0.274658203125,1.1749267578125,1.3275146484375
4.029999900000001,9.442731857299805,0.17238251864910126,-2.760514497756958,-0.4425048828125,-0.8544921875,-1.373291015625
4.0499999,9.445125579833984,0.1412578970193863,-2.7485435009002686,-0.67138671875,-1.03759765625,-3.72314453125
4.069999900000001,9.445125579833984,0.1388636976480484,-2.7533318996429443,0.030517578125,1.0223388671875,-1.2664794921875
4.0899999000000005,9.44991397857666,0.1628057211637497,-2.762908697128296,0.30517578125,2.1514892578125,1.2969970703125
4.1099999,9.454702377319336,0.1843535304069519,-2.7676970958709717,-0.274658203125,1.0833740234375,0.54931640625
4.1299999000000005,9.452308654785156,0.1843535304069519,-2.762908697128296,-0.8697509765625,-0.1373291015625,-0.91552734375
4.1499999,9.457097053527832,0.17238251864910126,-2.760514497756958,-0.0152587890625,0.7476806640625,-0.8087158203125
4.1699999000000005,9.454702377319336,0.17717093229293823,-2.7724854946136475,0.1983642578125,1.89208984375,-0.8087158203125
4.1899999,9.452308654785156,0.19393034279346466,-2.762908697128296,0.42724609375,2.7313232421875,0.1678466796875
4.209999900000001,9.452308654785156,0.19393034279346466,-2.741360902786255,0,1.251220703125,1.708984375
4.2299999,9.445125579833984,0.17956513166427612,-2.7269957065582275,-0.7781982421875,-1.739501953125,0.1068115234375
4.249999900000001,9.442731857299805,0.1628057211637497,-2.7246015071868896,-0.0457763671875,-0.518798828125,-2.2125244140625
4.2699999,9.445125579833984,0.1604115068912506,-2.7509377002716064,0.8392333984375,2.2430419921875,-1.5106201171875
4.289999900000001,9.44752025604248,0.19871874153614044,-2.779668092727661,0.8544921875,2.62451171875,0.67138671875
4.3099999,9.452308654785156,0.2322375625371933,-2.779668092727661,0.9002685546875,1.9073486328125,2.9449462890625
4.329999900000001,9.452308654785156,0.23702596127986908,-2.760514497756958,0.5645751953125,0.9307861328125,2.4566650390625
4.3499999,9.452308654785156,0.19153612852096558,-2.7317841053009033,0.3814697265625,0.152587890625,0.640869140625
4.369999900000001,9.44991397857666,0.12928688526153564,-2.715024709701538,0,0.1678466796875,-0.823974609375
4.3899999,9.452308654785156,0.0933738648891449,-2.7102363109588623,-0.30517578125,0.6866455078125,-1.64794921875
4.409999900000001,9.452308654785156,0.09576806426048279,-2.7102363109588623,-0.640869140625,0.79345703125,-0.9307861328125
4.4299999,9.452308654785156,0.13168109953403473,-2.7246015071868896,-0.5035400390625,-0.3814697265625,-0.1068115234375
4.449999900000001,9.44991397857666,0.17717093229293823,-2.7461493015289307,-0.0152587890625,-0.4730224609375,0.3509521484375
4.4699999,9.44752025604248,0.21787235140800476,-2.7676970958709717,0.457763671875,1.3580322265625,0.4119873046875
4.489999900000001,9.445125579833984,0.22505496442317963,-2.782062292098999,0.6561279296875,2.1514892578125,1.15966796875
4.5099999,9.44752025604248,0.2059013396501541,-2.7724854946136475,-0.1678466796875,0.91552734375,1.0986328125
4.529999900000001,9.44752025604248,0.1843535304069519,-2.765302896499634,-0.9307861328125,-0.3509521484375,-0.79345703125
4.5499999,9.44991397857666,0.16519992053508759,-2.7557260990142822,-0.1220703125,0.701904296875,-0.7476806640625
4.569999900000001,9.44752025604248,0.16519992053508759,-2.7557260990142822,0.7171630859375,2.2125244140625,0.9307861328125
4.5899999000000005,9.445125579833984,0.16519992053508759,-2.7533318996429443,0.0762939453125,1.15966796875,1.373291015625
4.609999900000001,9.442731857299805,0.14844051003456116,-2.7485435009002686,-0.3662109375,-0.0762939453125,0.0152587890625
4.6299999000000005,9.445125579833984,0.1412578970193863,-2.7437551021575928,-0.42724609375,0.8087158203125,-2.4871826171875
4.6499999,9.44752025604248,0.14365209639072418,-2.760514497756958,-0.18310546875,1.8310546875,-1.739501953125
4.6699999000000005,9.44752025604248,0.16759411990642548,-2.7748796939849854,1.068115234375,2.74658203125,0.762939453125
4.6899999,9.454702377319336,0.2082955539226532,-2.779668092727661,2.8228759765625,2.716064453125,0.457763671875
4.709999900000001,9.452308654785156,0.22744916379451752,-2.7892448902130127,7.2784423828125,1.77001953125,-0.3814697265625
4.7299999,9.457097053527832,0.2059013396501541,-2.779668092727661,8.4991455078125,3.173828125,0.8544921875
4.749999900000001,9.44752025604248,0.16998831927776337,-2.7724854946136475,9.6893310546875,4.1351318359375,-0.3662109375
4.7699999,9.435548782348633,0.10773907601833344,-2.738966703414917,9.6893310546875,3.4942626953125,-1.9378662109375
4.789999900000001,9.421183586120605,0.07661445438861847,-2.691082715988159,7.2784423828125,1.922607421875,-3.8909912109375
4.8099999,9.423578262329102,0.07182604819536209,-2.647987127304077,4.241943359375,0.0762939453125,-4.119873046875
4.829999900000001,9.435548782348633,0.0933738648891449,-2.6408045291900635,2.166748046875,-0.823974609375,-1.8310546875
4.8499999,9.457097053527832,0.1149216815829277,-2.655169725418091,1.953125,1.3275146484375,-1.1749267578125
4.869999900000001,9.473855972290039,0.1149216815829277,-2.674323320388794,1.0833740234375,2.3193359375,-2.5482177734375
4.8899999,9.485827445983887,0.1149216815829277,-2.695871114730835,-0.5950927734375,-0.54931640625,-3.96728515625
4.909999900000001,9.488221168518066,0.1364694982767105,-2.7078421115875244,-1.617431640625,-1.495361328125,-4.4403076171875
4.9299999,9.493009567260742,0.19393034279346466,-2.734178304672241,-0.335693359375,0.518798828125,-2.1514892578125
4.949999900000001,9.488221168518066,0.26336219906806946,-2.7700912952423096,0.7476806640625,2.1514892578125,0.457763671875
4.9699999,9.48343276977539,0.3016694188117981,-2.7700912952423096,1.0833740234375,2.8228759765625,2.0599365234375
4.989999900000001,9.473855972290039,0.29209262132644653,-2.7509377002716064,0.244140625,0.8087158203125,1.03759765625
5.0099999,9.44991397857666,0.181959331035614,-2.691082715988159,-0.06103515625,-0.091552734375,-1.40380859375
5.029999900000001,9.442731857299805,0.15562310814857483,-2.6886885166168213,0.1678466796875,0.579833984375,-1.9378662109375
5.0499999,9.440337181091309,0.16759411990642548,-2.7078421115875244,-0.030517578125,0.2288818359375,-1.4801025390625
5.069999900000001,9.442731857299805,0.19153612852096558,-2.7269957065582275,-0.0762939453125,0.6561279296875,0.54931640625
5.0899999000000005,9.44752025604248,0.22026655077934265,-2.741360902786255,0.213623046875,1.46484375,0.518798828125
5.109999900000001,9.452308654785156,0.22026655077934265,-2.7437551021575928,0.2593994140625,1.2969970703125,-0.6256103515625
5.1299999000000005,9.457097053527832,0.21308395266532898,-2.741360902786255,-0.1983642578125,0.3814697265625,-1.0986328125
5.1499999,9.459490776062012,0.21787235140800476,-2.741360902786255,-0.396728515625,0.4119873046875,-1.312255859375
5.1699999000000005,9.459490776062012,0.22744916379451752,-2.736572504043579,-0.18310546875,1.5716552734375,0.1068115234375
5.1899999,9.459490776062012,0.23702596127986908,-2.7293899059295654,0.0457763671875,1.3275146484375,0.8697509765625
5.209999900000001,9.459490776062012,0.24181437492370605,-2.7293899059295654,-0.5340576171875,-0.4425048828125,-0.274658203125
5.2299999,9.457097053527832,0.2322375625371933,-2.7293899059295654,-0.518798828125,-0.06103515625,-0.42724609375
5.249999900000001,9.459490776062012,0.2322375625371933,-2.7317841053009033,-0.1983642578125,1.89208984375,-0.1068115234375
5.2699999,9.459490776062012,0.24181437492370605,-2.741360902786255,-0.6561279296875,1.03759765625,-0.2899169921875
5.289999900000001,9.457097053527832,0.24660277366638184,-2.734178304672241,-0.6103515625,0.42724609375,0.9918212890625
5.3099999,9.452308654785156,0.2346317619085312,-2.7246015071868896,-0.2593994140625,0.9002685546875,1.220703125
5.329999900000001,9.452308654785156,0.21787235140800476,-2.7246015071868896,-0.4730224609375,0.7171630859375,-1.190185546875
5.3499999,9.44991397857666,0.19871874153614044,-2.734178304672241,-0.42724609375,0.5950927734375,-1.373291015625
5.369999900000001,9.452308654785156,0.19632454216480255,-2.7437551021575928,-0.3814697265625,1.5411376953125,0.091552734375
5.3899999,9.44991397857666,0.21308395266532898,-2.7437551021575928,-0.5950927734375,2.166748046875,0.1220703125
5.409999900000001,9.454702377319336,0.22505496442317963,-2.7509377002716064,-0.8544921875,0.7171630859375,-0.335693359375
5.4299999,9.457097053527832,0.24420857429504395,-2.760514497756958,-0.7781982421875,0.9613037109375,-0.6561279296875
5.449999900000001,9.466673851013184,0.27054479718208313,-2.7700912952423096,-0.18310546875,3.7078857421875,-0.091552734375
5.4699999,9.478644371032715,0.31603461503982544,-2.7892448902130127,-0.2899169921875,4.4708251953125,1.4495849609375
5.489999900000001,9.500192642211914,0.40701428055763245,-2.8227639198303223,-0.8544921875,3.7994384765625,1.678466796875
5.5099999,9.555258750915527,0.5674257874488831,-2.9041666984558105,-0.1373291015625,6.8359375,3.8604736328125
5.529999900000001,9.622296333312988,0.8571242094039917,-3.0526070594787598,3.96728515625,13.73291015625,8.5601806640625
5.5499999,9.713275909423828,1.2473790645599365,-3.2106244564056396,16.8609619140625,24.71923828125,21.8505859375
5.569999900000001,9.799467086791992,1.6950948238372803,-3.315969467163086,16.5863037109375,32.0892333984375,43.1365966796875
5.5899999000000005,9.832986831665039,2.0829553604125977,-3.3303346633911133,16.2200927734375,32.2113037109375,64.300537109375
5.609999900000001,9.816226959228516,2.250549554824829,-3.224989652633667,20.9197998046875,35.400390625,87.82958984375
5.6299999000000005,9.761159896850586,2.1523873805999756,-3.098097085952759,24.4598388671875,40.313720703125,108.612060546875
5.6499999,9.576807022094727,1.8507179021835327,-2.956839084625244,25.4974365234375,43.45703125,118.9727783203125
5.6699999000000005,9.272743225097656,1.3120225667953491,-2.7078421115875244,23.681640625,52.8717041015625,135.2386474609375
5.6899999,8.851364135742188,0.38546648621559143,-2.298433542251587,23.590087890625,58.013916015625,162.384033203125
5.709999900000001,8.305485725402832,-1.237802267074585,-1.7094600200653076,64.94140625,53.6956787109375,177.032470703125
5.7299999,7.740454196929932,-3.713406801223755,-0.9265560507774353,101.98974609375,64.7430419921875,175.5828857421875
5.749999900000001,7.022193431854248,-6.998251438140869,0.09816227108240128,103.424072265625,84.7015380859375,150.4669189453125
5.7699999,6.167463779449463,-10.6925048828125,1.525106430053711,69.2138671875,77.9571533203125,62.5
5.789999900000001,5.233725070953369,-14.329297065734863,3.471592426300049,13.7176513671875,8.270263671875,-73.577880859375
5.8099999,4.6255974769592285,-16.905458450317383,4.8267107009887695,1.190185546875,-147.4609375,-261.5509033203125
5.829999900000001,3.8762125968933105,-17.408241271972656,4.819528102874756,-71.1517333984375,-265.8538818359375,-466.3848876953125
5.8499999,3.2393548488616943,-15.354015350341797,2.8227639198303223,-142.2882080078125,-203.9947509765625,-500
5.869999900000001,2.296039342880249,-10.35252857208252,-0.3878606855869293,-178.375244140625,-49.8046875,-500
5.8899999,1.0438719987869263,-3.179499864578247,-3.2609026432037354,-180.5877685546875,58.929443359375,-500
5.909999900000001,-0.37828385829925537,5.011064052581787,-4.527435302734375,-115.5242919921875,64.5599365234375,-500
5.9299999,-1.577778935432434,13.378799438476562,-3.8067808151245117,-80.56640625,29.815673828125,-500
5.949999900000001,-2.456450939178467,20.858285903930664,-1.900996208190918,-63.41552734375,-24.1241455078125,-333.6334228515625
5.9699999,-2.8562827110290527,26.748022079467773,0,41.7938232421875,-102.9815673828125,-58.807373046875
5.989999900000001,-2.851494312286377,30.08074951171875,0.8762778043746948,63.4307861328125,-142.4560546875,252.44140625
6.0099999,-2.760514497756958,29.927520751953125,0.3208230137825012,77.1636962890625,-110.7635498046875,499.9847412109375
6.029999900000001,-2.719813108444214,26.226085662841797,-1.2330138683319092,141.5252685546875,-23.4375,499.9847412109375
6.0499999,-2.741360902786255,19.3978214263916,-2.8993782997131348,191.1468505859375,63.4918212890625,499.9847412109375
6.069999900000001,-2.2601263523101807,10.723628997802734,-3.8283286094665527,185.7452392578125,108.9630126953125,499.9847412109375
6.0899999000000005,-1.403002142906189,1.50355863571167,-3.7253777980804443,266.1895751953125,142.6239013671875,499.9847412109375
6.109999900000001,-0.6943184733390808,-7.364564418792725,-2.3918075561523438,324.7528076171875,219.818115234375,499.9847412109375
6.1299999000000005,-0.019153613597154617,-15.30373764038086,0.27054479718208313,248.9471435546875,289.1845703125,499.9847412109375
6.149999900000001,0.23942017555236816,-21.954830169677734,4.311957359313965,53.1768798828125,215.8966064453125,201.96533203125
6.1699999000000005,0.28730419278144836,-26.585216522216797,8.71489429473877,18.9208984375,-29.0985107421875,-113.4185791015625
6.1899999,0.33518823981285095,-27.923574447631836,11.70046329498291,-17.3797607421875,-263.458251953125,-396.636962890625
6.209999900000001,0.304063618183136,-25.663448333740234,11.707646369934082,-97.7783203125,-336.578369140625,-500
6.2299999,0.06224924325942993,-19.69230842590332,8.33182144165039,-157.4859619140625,-274.4903564453125,-500
6.249999900000001,-0.05506663769483566,-11.015722274780273,2.920926094055176,-192.9779052734375,-156.06689453125,-500
6.2699999,0.016759412363171577,-1.070208191871643,-2.3343467712402344,-196.96044921875,-59.722900390625,-500
6.289999900000001,0.21547815203666687,8.966285705566406,-5.784391403198242,-147.216796875,-23.956298828125,-500
6.3099999,0.6703764796257019,17.975666046142578,-7.115567684173584,-35.2783203125,-33.447265625,-330.9326171875
6.329999900000001,0.9792284965515137,25.10320472717285,-6.967126846313477,16.1590576171875,-56.060791015625,-72.6776123046875
6.3499999,1.0989385843276978,29.443893432617188,-6.344634532928467,23.651123046875,-41.0308837890625,169.952392578125
6.369999900000001,0.7637503147125244,30.186094284057617,-5.784391403198242,61.2030029296875,27.4658203125,412.1246337890625
6.3899999,-0.10295066982507706,27.363330841064453,-5.336675643920898,123.4893798828125,92.4224853515625,499.9847412109375
6.409999900000001,-1.2689268589019775,21.277271270751953,-4.72376012802124,140.8843994140625,127.288818359375,499.9847412109375
6.4299999,-2.1116859912872314,12.842497825622559,-3.7828385829925537,163.57421875,159.5916748046875,499.9847412109375
6.449999900000001,-3.35667085647583,3.0095114707946777,-2.3989901542663574,295.5474853515625,242.7215576171875,499.9847412109375
6.4699999,-4.807557106018066,-7.184999465942383,0.2322375625371933,407.2723388671875,401.519775390625,499.9847412109375
6.489999900000001,-5.861005783081055,-17.034744262695312,4.714183330535889,205.078125,429.01611328125,499.9847412109375
6.5099999,-6.610390663146973,-25.115175247192383,10.529699325561523,-11.9171142578125,135.6353759765625,70.2362060546875
6.529999900000001,-5.145139217376709,-30.447063446044922,17.597381591796875,-66.192626953125,-384.1705322265625,-471.7559814453125
6.5499999,-3.9647979736328125,-26.7216854095459,15.454571723937988,-98.9990234375,-346.435546875,-500
6.569999900000001,-2.940079689025879,-19.80483627319336,10.067618370056152,-127.9754638671875,-276.2298583984375,-500
6.5899999000000005,-1.8579005002975464,-11.293449401855469,3.5913026332855225,-157.1807861328125,-214.019775390625,-500
6.609999900000001,-0.6560112833976746,-2.432508945465088,-2.1045033931732178,-164.337158203125,-165.374755859375,-500
6.6299999000000005,0.5746083855628967,6.066906929016113,-6.050147533416748,-163.2232666015625,-117.6910400390625,-500
6.649999900000001,1.3455413579940796,14.022839546203613,-8.032546997070312,-142.02880859375,-84.686279296875,-480.9417724609375
6.6699999000000005,1.6879122257232666,21.155166625976562,-8.415618896484375,-63.5833740234375,-63.751220703125,-302.4749755859375
6.6899999,1.6136919260025024,26.779146194458008,-8.04691219329834,34.5001220703125,-45.34912109375,9.6893310546875
6.709999900000001,1.0869675874710083,29.654582977294922,-7.536946773529053,28.9764404296875,-3.96728515625,333.831787109375
6.7299999,0.37828385829925537,28.87167739868164,-7.173028469085693,67.8863525390625,72.1282958984375,499.9847412109375
6.749999900000001,-0.5626373887062073,24.262840270996094,-6.734889507293701,108.4747314453125,151.85546875,499.9847412109375
6.7699999,-1.6112977266311646,16.510414123535156,-5.805939197540283,109.8480224609375,199.6917724609375,499.9847412109375
6.789999900000001,-2.185906171798706,7.117961883544922,-4.048594951629639,136.3067626953125,237.548828125,499.9847412109375
6.8099999,-2.7724854946136475,-2.9233202934265137,-1.4772224426269531,182.373046875,277.435302734375,499.9847412109375
6.829999900000001,-3.4117374420166016,-12.72757625579834,2.296039342880249,229.4921875,332.305908203125,499.9847412109375
6.8499999,-3.7253777980804443,-21.600488662719727,7.364564418792725,119.9188232421875,279.96826171875,333.709716796875
6.869999900000001,-4.256890773773193,-28.220455169677734,12.655750274658203,-12.237548828125,-3.570556640625,-70.0836181640625
6.8899999,-4.216189384460449,-31.22996711730957,16.187198638916016,-43.0450439453125,-290.5426025390625,-379.1961669921875
6.909999900000001,-3.847482204437256,-30.02328872680664,16.6420955657959,-65.7196044921875,-359.80224609375,-500
6.9299999,-3.35667085647583,-24.612394332885742,13.199234008789062,-93.963623046875,-307.67822265625,-500
6.949999900000001,-2.7246015071868896,-16.424222946166992,7.42681360244751,-119.659423828125,-245.1324462890625,-500
6.9699999,-1.9560627937316895,-7.072471618652344,1.3646949529647827,-139.1754150390625,-198.79150390625,-500
6.989999900000001,-1.015141487121582,2.1116859912872314,-3.531447410583496,-128.387451171875,-166.2750244140625,-500
7.0099999,-0.17477671802043915,10.465055465698242,-6.696582317352295,-125.1373291015625,-136.6729736328125,-500
7.029999900000001,0.3256114423274994,17.80088996887207,-8.200140953063965,-99.7467041015625,-111.053466796875,-414.4134521484375
7.0499999,0.5171475410461426,23.889345169067383,-8.573636054992676,-24.7955322265625,-83.6639404296875,-200.7904052734375
7.069999900000001,0.3902548849582672,28.13665771484375,-8.391676902770996,33.1573486328125,-37.750244140625,113.067626953125
7.0899999000000005,-0.06224924325942993,29.575572967529297,-7.999027729034424,42.6788330078125,20.843505859375,390.1519775390625
7.109999900000001,-0.629675030708313,27.492618560791016,-7.50582218170166,83.1756591796875,79.9713134765625,499.9847412109375
7.1299999000000005,-1.3455413579940796,21.916522979736328,-6.7923502922058105,98.419189453125,124.6185302734375,499.9847412109375
7.149999900000001,-1.920149803161621,13.812150001525879,-5.590460777282715,103.21044921875,165.069580078125,499.9847412109375
7.1699999000000005,-1.7525556087493896,4.5394062995910645,-3.883395195007324,105.682373046875,197.1588134765625,499.9847412109375
7.1899999,-1.7525556087493896,-5.066130638122559,-1.6352397203445435,150.8636474609375,230.40771484375,499.9847412109375
7.209999900000001,-1.8507179021835327,-14.372392654418945,1.802833914756775,243.743896484375,323.455810546875,499.9847412109375
7.2299999,-2.0374655723571777,-22.864625930786133,6.617573261260986,114.4866943359375,276.3824462890625,334.228515625
7.249999900000001,-2.7126305103302,-29.206867218017578,11.681309700012207,-68.0999755859375,-26.5045166015625,-118.804931640625
7.2699999,-2.8586769104003906,-32.06554412841797,15.076288223266602,-93.5821533203125,-295.6695556640625,-417.236328125
7.289999900000001,-2.8850131034851074,-30.597898483276367,15.284584045410156,-122.802734375,-350.15869140625,-500
7.3099999,-2.8778305053710938,-24.918851852416992,11.690886497497559,-199.371337890625,-277.2216796875,-500
7.329999900000001,-2.9759926795959473,-16.3883113861084,6.042964935302734,-265.19775390625,-179.9468994140625,-500
7.3499999,-3.1244332790374756,-6.289567947387695,0.7541735172271729,-309.50927734375,-110.3363037109375,-500
7.369999900000001,-3.339911460876465,4.2951979637146,-2.6623523235321045,-291.0614013671875,-87.9364013671875,-500
7.3899999,-3.4524388313293457,14.537592887878418,-3.931279182434082,-174.591064453125,-117.5537109375,-500
7.409999900000001,-3.3686418533325195,23.549367904663086,-3.93367338180542,-52.67333984375,-154.1900634765625,-294.73876953125
7.4299999,-3.138798475265503,30.128633499145508,-3.9240965843200684,25.9552001953125,-146.66748046875,36.43798828125
7.449999900000001,-2.832340717315674,33.085472106933594,-4.412513732910156,89.78271484375,-47.2564697265625,332.0159912109375
7.4699999,-2.6815059185028076,31.7806339263916,-5.154716491699219,187.774658203125,75.8819580078125,499.9847412109375
7.489999900000001,-2.8227639198303223,26.513389587402344,-5.477933406829834,236.8316650390625,139.434814453125,499.9847412109375
7.5099999,-2.782062292098999,18.203115463256836,-4.8051629066467285,223.6328125,154.266357421875,499.9847412109375
7.529999900000001,-2.1954829692840576,8.360552787780762,-3.4979286193847656,183.0902099609375,143.06640625,499.9847412109375
7.5499999,-1.3455413579940796,-2.030282974243164,-2.0853497982025146,158.99658203125,150.634765625,499.9847412109375
7.569999900000001,-0.8690952062606812,-11.985373497009277,-0.395043283700943,257.32421875,240.966796875,499.9847412109375
7.5899999000000005,-0.6823474764823914,-20.7098445892334,2.4684219360351562,234.588623046875,323.9898681640625,412.506103515625
7.609999900000001,-1.1252747774124146,-27.52613639831543,6.617573261260986,28.594970703125,157.501220703125,75.164794921875
7.6299999000000005,-1.434126853942871,-31.246726989746094,10.41956615447998,-9.6893310546875,-165.4205322265625,-246.4141845703125
7.649999900000001,-1.5610195398330688,-31.213207244873047,12.277466773986816,-47.5311279296875,-335.02197265625,-480.0872802734375
7.6699999000000005,-1.5729905366897583,-27.377696990966797,10.63743782043457,-99.12109375,-278.74755859375,-500
7.6899999,-1.7286136150360107,-20.310012817382812,6.069301128387451,-134.4451904296875,-169.7235107421875,-500
7.709999900000001,-1.8962076902389526,-11.295844078063965,0.8882488012313843,-162.04833984375,-94.512939453125,-500
7.7299999,-1.941697597503662,-1.6184803247451782,-3.0597896575927734,-180.23681640625,-63.4918212890625,-500
7.749999900000001,-1.867477297782898,7.793126583099365,-5.049371242523193,-143.524169921875,-77.33154296875,-500
7.7699999,-1.7190368175506592,16.33563804626465,-5.377377033233643,-100.006103515625,-100.555419921875,-457.6568603515625
7.789999900000001,-1.6041151285171509,23.618799209594727,-4.929661273956299,-43.060302734375,-109.466552734375,-257.598876953125
7.8099999,-1.5131354331970215,29.0440616607666,-4.639962673187256,19.59228515625,-89.1265869140625,17.3492431640625
7.829999900000001,-1.6663644313812256,31.65852928161621,-4.927267074584961,58.7310791015625,-32.6385498046875,324.9053955078125
7.8499999,-2.118868589401245,30.698453903198242,-5.48272180557251,114.56298828125,55.0994873046875,499.9847412109375
7.869999900000001,-2.959233283996582,25.957935333251953,-5.822698593139648,171.295166015625,131.7138671875,499.9847412109375
7.8899999,-3.8067808151245117,17.951725006103516,-5.355829238891602,176.6357421875,174.25537109375,499.9847412109375
7.909999900000001,-4.197035789489746,8.022970199584961,-3.995922565460205,146.2249755859375,191.7724609375,499.9847412109375
7.9299999,-4.395754337310791,-2.693476915359497,-2.1068975925445557,166.19873046875,194.1680908203125,499.9847412109375
7.949999900000001,-4.517858505249023,-13.242329597473145,0.6272808313369751,252.5482177734375,262.4359130859375,499.9847412109375
7.9699999,-4.747702121734619,-23.190237045288086,4.55616569519043,236.572265625,303.7567138671875,499.9847412109375
7.989999900000001,-5.212177276611328,-31.560367584228516,9.368511199951172,48.3551025390625,113.6322021484375,94.54345703125
8.0099999,-5.837063789367676,-36.07583236694336,13.050793647766113,-60.9588623046875,-205.6427001953125,-403.5797119140625
8.0299999,-6.222530364990234,-35.6999397277832,14.470555305480957,-124.8321533203125,-323.5626220703125,-500
8.049999900000001,-6.6391215324401855,-29.750350952148438,12.143390655517578,-149.3072509765625,-274.1851806640625,-500
8.069999900000001,-6.742072105407715,-7.364564418792725,1.8531121015548706,-209.04541015625,-133.7890625,-500
8.0899999,-6.133944988250732,4.63517427444458,-2.2649147510528564,-178.4210205078125,-89.8590087890625,-500
8.1099999,-5.20978307723999,15.318102836608887,-4.577713489532471,-98.4039306640625,-97.0611572265625,-500
8.129999900000001,-4.101267337799072,24.032997131347656,-5.365406036376953,-44.37255859375,-112.3504638671875,-350.067138671875
8.149999900000001,-2.978386878967285,30.25792121887207,-5.427655220031738,-4.730224609375,-89.4775390625,-54.87060546875
8.1699999,-2.1380221843719482,33.10702133178711,-5.415684223175049,40.008544921875,-36.224365234375,265.533447265625
8.1899999,-1.7262194156646729,32.0775146484375,-5.4252610206604,100.6011962890625,27.6947021484375,498.5198974609375
8.2099999,-1.7693150043487549,27.303476333618164,-5.288791656494141,127.3040771484375,78.4759521484375,499.9847412109375
8.229999900000001,-2.011129379272461,19.546262741088867,-4.714183330535889,105.743408203125,103.179931640625,499.9847412109375
8.2499999,-1.9560627937316895,10.189722061157227,-3.7684733867645264,82.7789306640625,104.9041748046875,499.9847412109375
8.2699999,-1.5490485429763794,0.43335050344467163,-2.6886885166168213,118.5302734375,119.171142578125,499.9847412109375
8.2899999,-1.1755530834197998,-9.038111686706543,-1.3766659498214722,192.840576171875,177.0477294921875,499.9847412109375
8.309999900000001,-1.070208191871643,-17.896657943725586,0.7326257228851318,251.8768310546875,259.8419189453125,499.9847412109375
8.3299999,-1.3192051649093628,-25.82625389099121,4.206612586975098,160.3240966796875,228.1341552734375,324.9664306640625
8.3499999,-1.8914192914962769,-31.70641326904297,8.157045364379883,8.8043212890625,-11.5509033203125,-88.8214111328125
8.3699999,-2.499546527862549,-33.67444610595703,10.824186325073242,-63.4613037109375,-251.8310546875,-500
8.389999900000001,-2.9520506858825684,-31.134199142456055,11.0300874710083,-132.537841796875,-268.5394287109375,-500
8.4099999,-3.426102638244629,-23.80315399169922,8.078036308288574,-154.1748046875,-196.0601806640625,-500
8.4299999,-3.7660791873931885,-13.314155578613281,3.6343982219696045,-175.7659912109375,-128.7384033203125,-500
8.4499999,-3.713406801223755,-1.7860745191574097,-0.3495534360408783,-189.8956298828125,-78.155517578125,-500
8.469999900000001,-3.3303346633911133,9.227252960205078,-2.8778305053710938,-134.735107421875,-82.0159912109375,-500
8.4899999,-2.6431987285614014,18.693927764892578,-3.9169139862060547,-63.323974609375,-119.293212890625,-412.0635986328125
8.5099999,-1.8124107122421265,25.981876373291016,-4.153939723968506,-34.4085693359375,-127.25830078125,-172.3175048828125
8.5299999,-1.0989385843276978,30.540437698364258,-4.417302131652832,8.7127685546875,-89.2181396484375,93.231201171875
8.549999900000001,-0.7805097699165344,31.617828369140625,-4.829104900360107,70.892333984375,-12.908935546875,356.2164306640625
8.569999900000001,-0.8403648138046265,29.089550018310547,-5.17626428604126,130.279541015625,54.046630859375,499.9847412109375
8.5899999,-1.194706678390503,23.27403450012207,-5.109226226806641,113.70849609375,74.951171875,499.9847412109375
8.6099999,-1.4891934394836426,15.002067565917969,-4.627991676330566,73.1964111328125,69.7479248046875,499.9847412109375
8.629999900000001,-1.3335703611373901,5.501875400543213,-4.019864559173584,65.8721923828125,81.8634033203125,499.9847412109375
8.649999900000001,-1.1540051698684692,-4.261679172515869,-3.5218706130981445,128.0059814453125,135.07080078125,499.9847412109375
8.6699999,-1.3503297567367554,-13.591882705688477,-2.542642116546631,217.254638671875,237.2589111328125,499.9847412109375
8.6899999,-1.9943699836730957,-22.11045265197754,-0.1604115068912506,216.400146484375,313.0035400390625,477.5543212890625
8.709999900000001,-2.9161376953125,-29.381643295288086,3.9025487899780273,97.5799560546875,197.8912353515625,183.6395263671875
8.729999900000001,-3.9432501792907715,-33.77739715576172,7.99184513092041,4.33349609375,-89.17236328125,-248.9776611328125
8.7499999,-4.486733913421631,-34.05512619018555,10.426748275756836,-69.51904296875,-257.965087890625,-500
8.7699999,-4.850652694702148,-29.58514976501465,9.785101890563965,-143.463134765625,-210.8612060546875,-500
8.7899999,-5.140350818634033,-20.623653411865234,6.435614109039307,-170.7763671875,-119.8272705078125,-500
8.809999900000001,-5.195417881011963,-9.05487060546875,2.5450363159179688,-199.27978515625,-52.9022216796875,-500
8.8299999,-4.903325080871582,3.117250680923462,-0.304063618183136,-145.660400390625,-53.1768798828125,-500
8.8499999,-4.256890773773193,14.355633735656738,-1.644816517829895,-61.09619140625,-108.5968017578125,-500
8.8699999,-3.3446998596191406,23.709779739379883,-1.965639591217041,-31.31103515625,-141.1285400390625,-343.81103515625
8.889999900000001,-2.3295583724975586,30.432697296142578,-2.094926595687866,-2.5787353515625,-116.363525390625,-55.8013916015625
8.9099999,-1.5849615335464478,33.45418167114258,-2.516305923461914,58.3648681640625,-64.5599365234375,273.284912109375
8.9299999,-1.158793568611145,32.230743408203125,-3.0550012588500977,123.10791015625,-10.1318359375,499.9847412109375
8.9499999,-1.070208191871643,26.898855209350586,-3.471592426300049,128.0364990234375,22.2015380859375,499.9847412109375
8.969999900000001,-0.9959878921508789,18.303672790527344,-3.5170822143554688,88.19580078125,28.4271240234375,499.9847412109375
8.9899999,-0.6224924325942993,8.135497093200684,-3.4189200401306152,56.9000244140625,18.524169921875,499.9847412109375
9.0099999,0.12210428714752197,-2.070984363555908,-3.3518824577331543,82.122802734375,36.19384765625,499.9847412109375
9.0299999,0.8164227604866028,-11.338939666748047,-3.248931646347046,139.8162841796875,103.118896484375,499.9847412109375
9.049999900000001,1.1827356815338135,-19.172767639160156,-2.518700122833252,187.7899169921875,181.5185546875,453.4454345703125
9.069999900000001,1.161187767982483,-25.28277015686035,-0.4572925269603729,147.5067138671875,185.546875,273.651123046875
9.0899999,0.9265560507774353,-29.314605712890625,2.499546527862549,34.66796875,36.9415283203125,-19.8211669921875
9.1099999,0.6607996821403503,-30.25792121887207,4.898536682128906,-18.1121826171875,-151.2298583984375,-333.648681640625
9.129999900000001,0.6057330369949341,-27.993005752563477,5.743690013885498,-78.30810546875,-177.4139404296875,-500
9.149999900000001,0.608127236366272,-22.452823638916016,4.235342979431152,-108.5205078125,-112.12158203125,-500
9.1699999,0.5722141861915588,-14.654908180236816,1.381454348564148,-116.2567138671875,-53.7109375,-500
9.1899999,0.5506663918495178,-5.935225963592529,-1.3000515699386597,-127.9144287109375,-15.5029296875,-500
9.209999900000001,0.4908113479614258,2.676717519760132,-2.7533318996429443,-132.1258544921875,-0.274658203125,-500
9.229999900000001,0.3926490843296051,10.630255699157715,-2.7222073078155518,-98.8922119140625,-27.6641845703125,-500
9.2499999,0.36152446269989014,17.583017349243164,-1.764526605606079,-53.253173828125,-85.87646484375,-369.3695068359375
9.2699999,0.43335050344467163,23.21417999267578,-0.768538773059845,-27.313232421875,-129.2877197265625,-176.0101318359375
9.2899999,0.5746083855628967,27.004201889038086,-0.5889736413955688,13.97705078125,-122.7874755859375,61.8438720703125
9.309999900000001,0.6153098344802856,28.038496017456055,-1.3000515699386597,72.2503662109375,-63.7054443359375,325.0579833984375
9.3299999,0.608127236366272,25.854984283447266,-2.473210334777832,128.2196044921875,-3.7994384765625,499.9847412109375
9.3499999,0.5291185975074768,20.460847854614258,-3.5649664402008057,124.69482421875,16.9677734375,499.9847412109375
9.3699999,0.689530074596405,12.598289489746094,-4.20421838760376,105.8502197265625,23.3306884765625,499.9847412109375
9.389999900000001,1.2425906658172607,3.5482068061828613,-4.431667327880859,111.1907958984375,46.539306640625,499.9847412109375
9.4099999,1.9081788063049316,-5.494692802429199,-4.434061527252197,150.970458984375,84.0606689453125,499.9847412109375
9.4299999,2.2601263523101807,-13.67807388305664,-3.8379054069519043,185.36376953125,152.64892578125,471.0540771484375
9.4499999,2.2433669567108154,-20.501548767089844,-2.1045033931732178,175.3387451171875,209.41162109375,346.0235595703125
9.469999900000001,1.8938134908676147,-25.63471794128418,0.912190854549408,62.744140625,134.490966796875,118.621826171875
9.4899999,1.4484920501708984,-28.287492752075195,3.955221176147461,13.0615234375,-70.098876953125,-174.4537353515625
9.5099999,1.256955862045288,-27.902027130126953,5.78678560256958,-31.707763671875,-192.962646484375,-413.5894775390625
9.5299999,1.2018892765045166,-24.41606903076172,5.2911858558654785,-86.97509765625,-152.9083251953125,-500
9.549999900000001,1.1276689767837524,-18.200721740722656,2.741360902786255,-109.2071533203125,-70.281982421875,-500
9.569999900000001,0.9409212470054626,-10.369287490844727,-0.3878606855869293,-110.4583740234375,-22.4609375,-500
9.5899999,0.6991068720817566,-2.051830768585205,-2.612074136734009,-132.0648193359375,-2.5787353515625,-500
9.6099999,-0.0454898327589035,13.548787117004395,-2.829946517944336,-75.531005859375,-60.150146484375,-488.616943359375
9.629999900000001,-0.4381389021873474,20.197484970092773,-1.723825216293335,-45.257568359375,-100.2655029296875,-334.7320556640625
9.649999900000001,-0.7158663272857666,25.63471794128418,-0.9026140570640564,-6.9580078125,-116.5008544921875,-110.3057861328125
9.6699999,-1.0558429956436157,29.111099243164062,-0.9385270476341248,37.7349853515625,-106.9793701171875,181.1981201171875
9.6899999,-1.5155296325683594,29.52290153503418,-1.6615760326385498,92.8802490234375,-52.337646484375,468.7042236328125
9.709999900000001,-2.10210919380188,26.520572662353516,-2.7102363109588623,149.7344970703125,8.11767578125,499.9847412109375
9.729999900000001,-2.695871114730835,20.05143928527832,-3.6176388263702393,140.869140625,33.63037109375,499.9847412109375
9.7499999,-2.978386878967285,11.166556358337402,-4.141968727111816,142.5323486328125,50.933837890625,499.9847412109375
9.7699999,-3.00711727142334,1.1204863786697388,-4.2544965744018555,205.6884765625,100.2197265625,499.9847412109375
9.7899999,-3.335123062133789,-8.942343711853027,-3.627215623855591,297.2412109375,196.6094970703125,499.9847412109375
9.809999900000001,-4.034229755401611,-18.392257690429688,-1.522712230682373,329.376220703125,292.17529296875,499.9847412109375
9.8299999,-4.838681697845459,-26.79351043701172,2.470816135406494,158.02001953125,243.072509765625,352.4932861328125
9.8499999,-5.544970989227295,-32.81732177734375,7.046135425567627,-7.171630859375,-17.608642578125,-88.5467529296875
9.8699999,-5.705382823944092,-34.91943359375,10.20648193359375,-65.8721923828125,-252.044677734375,-496.8719482421875
9.889999900000001,-5.370194435119629,-32.54677963256836,10.558429718017578,-135.4522705078125,-252.7923583984375,-500
9.9099999,-5.049371242523193,-25.546133041381836,7.6566572189331055,-167.0684814453125,-161.4227294921875,-500
9.9299999,-4.7405195236206055,-15.581464767456055,3.4141316413879395,-192.44384765625,-79.0557861328125,-500
9.9499999,-4.393360137939453,-4.563348293304443,-0.08858546614646912,-214.996337890625,-36.956787109375,-500
9.969999900000001,-3.9863457679748535,6.19379997253418,-1.86508309841156,-160.70556640625,-62.957763671875,-500
9.9899999,-3.4763808250427246,15.82327938079834,-2.049436569213867,-89.385986328125,-134.9639892578125,-500
10.0099999,-2.829946517944336,23.74808692932129,-1.6400281190872192,-54.8248291015625,-182.1136474609375,-340.118408203125
10.0299999,-2.126051187515259,29.386430740356445,-1.6950948238372803,-15.9912109375,-167.144775390625,-61.6455078125
10.049999900000001,-1.5514427423477173,31.84288215637207,-2.5689783096313477,64.75830078125,-89.6148681640625,240.1580810546875
10.069999900000001,-1.1492167711257935,30.547618865966797,-3.7493197917938232,151.85546875,8.7432861328125,474.6856689453125
10.0899999,-0.8978256583213806,25.598804473876953,-4.654327869415283,178.1158447265625,54.38232421875,499.9847412109375
10.1099999,-0.5817909836769104,17.6763916015625,-4.912901878356934,145.538330078125,48.828125,499.9847412109375
10.129999900000001,0,8.17141056060791,-4.639962673187256,128.5400390625,48.9044189453125,499.9847412109375
10.149999900000001,0.8092401623725891,-1.6639702320098877,-4.240131378173828,157.7911376953125,79.8797607421875,499.9847412109375
10.1699999,1.3934253454208374,-10.90798282623291,-3.663128614425659,210.0830078125,145.843505859375,499.9847412109375
10.1899999,1.644816517829895,-18.935741424560547,-2.3319525718688965,212.5244140625,211.151123046875,422.6531982421875
10.209999900000001,1.5729905366897583,-25.196578979492188,0.26096799969673157,83.831787109375,180.84716796875,165.22216796875
10.229999900000001,1.359906554222107,-28.900407791137695,3.2992098331451416,-16.7236328125,0.640869140625,-141.0064697265625
10.2499999,1.2042834758758545,-29.139829635620117,5.4444146156311035,-40.8477783203125,-170.7305908203125,-397.552490234375
10.2699999,1.1324573755264282,-25.799917221069336,5.652710437774658,-98.5565185546875,-169.464111328125,-500
10.2899999,0.9983820915222168,-19.24698829650879,3.6511576175689697,-158.2183837890625,-89.6148681640625,-500
10.309999900000001,0.9074024558067322,-10.72841739654541,0.7589619159698486,-169.5404052734375,-27.9083251953125,-500
10.3299999,1.0007762908935547,-1.7477672100067139,-1.6089035272598267,-143.6920166015625,-15.3045654296875,-500
10.3499999,1.3455413579940796,6.562506675720215,-2.801215887069702,-107.452392578125,-42.1142578125,-480.2703857421875
10.3699999,1.86508309841156,13.515268325805664,-3.0166940689086914,-82.977294921875,-73.974609375,-375.6256103515625
10.389999900000001,2.477998733520508,18.77772331237793,-2.8347349166870117,-55.3436279296875,-80.50537109375,-223.1903076171875
10.4099999,3.0095114707946777,22.2205867767334,-2.7126305103302,-15.9912109375,-65.24658203125,-50.506591796875
10.4299999,3.3470940589904785,23.798364639282227,-2.8107926845550537,38.3148193359375,-39.7491455078125,118.8812255859375
10.4499999,3.359065055847168,23.242910385131836,-2.894589900970459,84.197998046875,-15.6707763671875,287.29248046875
10.469999900000001,3.224989652633667,20.439300537109375,-2.8778305053710938,115.7073974609375,-14.5111083984375,415.6951904296875
10.4899999,3.0573954582214355,15.389928817749023,-2.8993782997131348,110.626220703125,-37.5823974609375,463.4857177734375
10.5099999,3.248931646347046,8.65743350982666,-3.0885202884674072,121.9482421875,-29.693603515625,443.0389404296875
10.5299999,3.93367338180542,1.194706678390503,-3.6367924213409424,112.0147705078125,1.617431640625,373.809814453125
10.549999900000001,5.020640850067139,-5.872976779937744,-4.32871675491333,101.4862060546875,36.4227294921875,296.051025390625
10.569999900000001,6.210559368133545,-11.530475616455078,-4.699818134307861,85.7391357421875,64.788818359375,195.831298828125
10.5899999,7.24485445022583,-15.047557830810547,-4.285621166229248,47.9888916015625,71.4569091796875,65.8416748046875
10.6099999,7.987056732177734,-15.931017875671387,-3.1962592601776123,-1.0833740234375,30.0750732421875,-41.5802001953125
10.629999900000001,8.456320762634277,-14.377181053161621,-2.1092917919158936,-40.008544921875,-36.407470703125,-81.23779296875
10.649999900000001,8.767566680908203,-11.027692794799805,-1.6376339197158813,-44.677734375,-54.7943115234375,-75.0274658203125
10.6699999,8.951920509338379,-6.904877662658691,-2.056619167327881,-24.7039794921875,-15.228271484375,-59.417724609375
10.6899999,8.99740982055664,-3.050212860107422,-2.9664158821105957,-3.11279296875,19.5770263671875,-39.2913818359375
10.709999900000001,8.959102630615234,-0.20111294090747833,-3.7612907886505127,5.5084228515625,14.678955078125,-8.5296630859375
10.729999900000001,8.89685344696045,1.2401964664459229,-4.19224739074707,1.9683837890625,-8.5906982421875,19.4854736328125
10.7499999,8.846575736999512,1.3192051649093628,-4.335899353027344,-1.4190673828125,-8.636474609375,18.9056396484375
10.7699999,8.851364135742188,0.45010992884635925,-4.2760443687438965,5.5694580078125,13.9312744140625,1.068115234375
10.7899999,8.860940933227539,-0.8068459630012512,-4.14915132522583,3.2958984375,14.0838623046875,-4.8828125
10.809999900000001,8.856152534484863,-1.9057846069335938,-3.912125587463379,-0.8544921875,-2.288818359375,3.47900390625
10.8299999,8.856152534484863,-2.580949544906616,-3.620033025741577,0.152587890625,-3.8909912109375,4.1351318359375
10.8499999,8.860940933227539,-2.9065608978271484,-3.4955344200134277,-0.946044921875,-0.457763671875,-0.8697509765625
10.8699999,8.868123054504395,-2.9759926795959473,-3.507505416870117,-0.701904296875,2.1209716796875,-1.9073486328125
10.889999900000001,8.87291145324707,-2.849100112915039,-3.5745432376861572,0,3.326416015625,-1.8310546875
10.9099999,8.863334655761719,-2.609679937362671,-3.643975019454956,-0.9307861328125,1.1138916015625,-1.861572265625
10.9299999,8.851364135742188,-2.363077163696289,-3.6750996112823486,1.03759765625,0.8544921875,0.8544921875
10.9499999,8.83939266204834,-2.1811177730560303,-3.6798880100250244,2.5787353515625,1.5716552734375,2.685546875
10.969999900000001,8.844181060791016,-2.0925323963165283,-3.691859006881714,0.0457763671875,0.67138671875,1.3580322265625
10.9899999,8.846575736999512,-2.123656988143921,-3.6966474056243896,-2.3345947265625,0.7476806640625,0.091552734375
11.0099999,8.860940933227539,-2.2146365642547607,-3.6822822093963623,0.18310546875,2.9754638671875,-0.1983642578125
11.0299999,8.868123054504395,-2.3127987384796143,-3.6727054119110107,-0.5035400390625,1.373291015625,-2.410888671875
11.049999900000001,8.87291145324707,-2.3750481605529785,-3.6535518169403076,-0.9613037109375,-0.335693359375,-3.3111572265625
11.069999900000001,8.865729331970215,-2.3918075561523438,-3.6343982219696045,0.213623046875,0.6256103515625,-2.62451171875
11.0899999,8.856152534484863,-2.3271639347076416,-3.643975019454956,0.1068115234375,0.823974609375,-2.685546875
11.1099999,8.848969459533691,-2.233790159225464,-3.6583402156829834,-0.30517578125,0.6561279296875,-1.46484375
11.129999900000001,8.848969459533691,-2.1715409755706787,-3.663128614425659,2.0599365234375,1.0986328125,2.5634765625
11.149999900000001,8.875306129455566,-2.2002713680267334,-3.7014358043670654,-1.3427734375,0.823974609375,-3.326416015625
11.1699999,8.877699851989746,-2.27209734916687,-3.6990416049957275,0.579833984375,3.11279296875,-2.960205078125
11.1899999,8.880094528198242,-2.2888567447662354,-3.667917013168335,1.15966796875,2.2125244140625,-2.593994140625
11.209999900000001,8.87291145324707,-2.2409727573394775,-3.646369218826294,-1.03759765625,-2.3345947265625,-1.9683837890625
11.229999900000001,8.863334655761719,-2.166752576828003,-3.6176388263702393,0.9002685546875,-1.190185546875,1.03759765625
11.2499999,8.851364135742188,-2.1164743900299072,-3.624821424484253,3.6468505859375,1.434326171875,3.35693359375
11.2699999,8.841787338256836,-2.121262788772583,-3.665522813796997,1.6937255859375,0.0152587890625,2.3345947265625
11.2899999,8.83939266204834,-2.190694570541382,-3.6822822093963623,0.1678466796875,0.06103515625,0.5035400390625
11.309999900000001,8.846575736999512,-2.2816741466522217,-3.6727054119110107,0.2288818359375,0.91552734375,-0.213623046875
11.3299999,8.858546257019043,-2.3343467712402344,-3.667917013168335,-1.0528564453125,-0.9613037109375,-1.9073486328125
11.3499999,8.87051773071289,-2.315192937850952,-3.663128614425659,-1.7242431640625,-1.7242431640625,-2.8839111328125
11.3699999,8.875306129455566,-2.250549554824829,-3.6727054119110107,0.091552734375,0.1678466796875,-0.1220703125
11.389999900000001,8.87291145324707,-2.166752576828003,-3.706224203109741,1.3275146484375,1.15966796875,2.4566650390625
11.4099999,8.87291145324707,-2.10210919380188,-3.7229835987091064,1.6021728515625,1.5411376953125,2.6092529296875
11.4299999,8.877699851989746,-2.0877439975738525,-3.7397429943084717,0.67138671875,1.1749267578125,2.0904541015625
11.4499999,8.877699851989746,-2.1332337856292725,-3.734954595565796,1.434326171875,1.8157958984375,3.6163330078125
11.469999900000001,8.875306129455566,-2.22660756111145,-3.7038300037384033,2.9754638671875,3.0059814453125,3.448486328125
11.4899999,8.868123054504395,-2.322375535964966,-3.6822822093963623,0.244140625,0.274658203125,-0.6866455078125
11.5099999,8.858546257019043,-2.3989901542663574,-3.6583402156829834,-0.6103515625,-0.946044921875,-2.44140625
11.5299999,8.851364135742188,-2.4205379486083984,-3.670311212539673,0.6256103515625,0.732421875,-0.885009765625
11.549999900000001,8.848969459533691,-2.382230758666992,-3.691859006881714,0.8087158203125,2.5634765625,-0.640869140625
11.569999900000001,8.848969459533691,-2.3319525718688965,-3.6727054119110107,1.678466796875,3.082275390625,-0.579833984375
11.5899999,8.851364135742188,-2.2625205516815186,-3.6320040225982666,-0.2593994140625,-0.7476806640625,-1.5106201171875
11.6099999,8.856152534484863,-2.190694570541382,-3.5889084339141846,-1.1138916015625,-3.326416015625,-0.7476806640625
11.629999900000001,8.863334655761719,-2.1380221843719482,-3.5960910320281982,0.3814697265625,-1.77001953125,2.4566650390625
11.649999900000001,8.865729331970215,-2.118868589401245,-3.6343982219696045,2.4566650390625,1.434326171875,4.425048828125
11.6699999,8.87051773071289,-2.1595699787139893,-3.6822822093963623,1.7547607421875,1.678466796875,3.1890869140625
11.6899999,8.860940933227539,-2.255337953567505,-3.7014358043670654,0.335693359375,-0.30517578125,1.495361328125
11.709999900000001,8.858546257019043,-2.3558945655822754,-3.6822822093963623,-0.18310546875,-0.5645751953125,-0.54931640625
11.729999900000001,8.851364135742188,-2.4013843536376953,-3.687070608139038,-0.7171630859375,-0.9765625,-2.13623046875
11.7499999,8.848969459533691,-2.3582887649536133,-3.711012601852417,-1.3885498046875,-0.274658203125,-1.4190673828125
11.7699999,8.846575736999512,-2.2816741466522217,-3.7229835987091064,2.1820068359375,2.9144287109375,3.204345703125
11.7899999,8.841787338256836,-2.207453966140747,-3.734954595565796,2.74658203125,2.0599365234375,4.8675537109375
11.809999900000001,8.83939266204834,-2.190694570541382,-3.7205893993377686,1.434326171875,0.1678466796875,2.9144287109375
11.8299999,8.834604263305664,-2.252943754196167,-3.687070608139038,1.434326171875,0.6103515625,1.9683837890625
11.8499999,8.834604263305664,-2.341529369354248,-3.6559460163116455,1.3275146484375,0.91552734375,0.9918212890625
11.8699999,8.834604263305664,-2.4181437492370605,-3.665522813796997,-0.6256103515625,-0.9307861328125,-0.762939453125
11.889999900000001,8.834604263305664,-2.454056739807129,-3.6846764087677,-1.3580322265625,-0.1373291015625,-1.5869140625
11.9099999,8.834604263305664,-2.432508945465088,-3.691859006881714,0.30517578125,2.9296875,-1.1138916015625
11.9299999,8.834604263305664,-2.3582887649536133,-3.708618402481079,0.579833984375,1.64794921875,0.2288818359375
11.9499999,8.834604263305664,-2.298433542251587,-3.7014358043670654,0.42724609375,-0.3204345703125,2.38037109375
11.969999900000001,8.834604263305664,-2.274491548538208,-3.6774938106536865,1.5869140625,1.0223388671875,2.50244140625
11.9899999,8.83939266204834,-2.3032219409942627,-3.6822822093963623,0.152587890625,0.885009765625,-0.1373291015625
12.0099999,8.846575736999512,-2.3558945655822754,-3.6942532062530518,-1.129150390625,0.91552734375,-1.861572265625
12.0299999,8.851364135742188,-2.38462495803833,-3.6966474056243896,-0.5950927734375,2.2125244140625,-1.6632080078125
12.049999900000001,8.846575736999512,-2.3726539611816406,-3.6990416049957275,0.3204345703125,1.9683837890625,-0.3204345703125
12.069999900000001,8.846575736999512,-2.3343467712402344,-3.689464807510376,0.30517578125,0.9307861328125,0.579833984375
12.0899999,8.844181060791016,-2.3127987384796143,-3.6846764087677,0.2593994140625,0.6866455078125,1.5716552734375
12.1099999,8.844181060791016,-2.3295583724975586,-3.663128614425659,1.373291015625,1.8768310546875,1.312255859375
12.129999900000001,8.83939266204834,-2.360682964324951,-3.6535518169403076,0.1678466796875,0.7781982421875,-1.46484375
12.149999900000001,8.832210540771484,-2.38462495803833,-3.648763418197632,-1.1444091796875,-0.732421875,-2.5634765625
12.1699999,8.822632789611816,-2.363077163696289,-3.6367924213409424,0.335693359375,0.3509521484375,-0.701904296875
12.1899999,8.81784439086914,-2.315192937850952,-3.6559460163116455,0.4425048828125,-0.0457763671875,1.28173828125
12.209999900000001,8.820239067077637,-2.2697031497955322,-3.6846764087677,-0.152587890625,-0.1220703125,2.0294189453125
12.229999900000001,8.825027465820312,-2.274491548538208,-3.6942532062530518,1.3580322265625,1.9683837890625,2.1820068359375
12.2499999,8.834604263305664,-2.315192937850952,-3.706224203109741,0.244140625,1.28173828125,0.1983642578125
12.2699999,8.83699893951416,-2.365471363067627,-3.708618402481079,-1.3427734375,0.1373291015625,-1.7242431640625
12.289999900000002,8.834604263305664,-2.3942017555236816,-3.6966474056243896,-0.1220703125,1.15966796875,-1.0986328125
12.309999900000001,8.827422142028809,-2.3726539611816406,-3.6942532062530518,0.213623046875,1.2969970703125,-0.2288818359375
12.3299999,8.825027465820312,-2.3295583724975586,-3.6774938106536865,0.6866455078125,0.9918212890625,0.9918212890625
12.3499999,8.820239067077637,-2.3032219409942627,-3.665522813796997,0.6103515625,0.030517578125,2.1820068359375
12.3699999,8.825027465820312,-2.298433542251587,-3.6511576175689697,0.0152587890625,0.06103515625,0.91552734375
12.389999900000001,8.827422142028809,-2.319981336593628,-3.646369218826294,-0.6256103515625,0.1678466796875,-0.4730224609375
12.4099999,8.825027465820312,-2.3487119674682617,-3.648763418197632,-0.3204345703125,-0.2288818359375,0.1068115234375
12.4299999,8.825027465820312,-2.3367409706115723,-3.670311212539673,-1.2359619140625,-0.8697509765625,-0.244140625
12.4499999,8.822632789611816,-2.3104045391082764,-3.7038300037384033,-1.0986328125,0,1.0986328125
12.469999900000001,8.825027465820312,-2.3127987384796143,-3.713406801223755,1.678466796875,2.166748046875,3.90625
12.4899999,8.827422142028809,-2.31758713722229,-3.713406801223755,0.6866455078125,0.8544921875,0.9918212890625
12.5099999,8.834604263305664,-2.343923568725586,-3.711012601852417,-2.4566650390625,-1.8157958984375,-1.5869140625
12.5299999,8.83939266204834,-2.3702597618103027,-3.6990416049957275,-0.5645751953125,-0.0457763671875,1.0833740234375
12.549999900000001,8.834604263305664,-2.3702597618103027,-3.6942532062530518,1.15966796875,1.922607421875,2.3040771484375
12.569999900000001,8.827422142028809,-2.3702597618103027,-3.6846764087677,0.48828125,-0.1983642578125,1.2054443359375
12.5899999,8.81784439086914,-2.3750481605529785,-3.6822822093963623,-0.7476806640625,-2.38037109375,0.4730224609375
12.6099999,8.815450668334961,-2.3942017555236816,-3.6846764087677,-0.1220703125,-0.8087158203125,1.0986328125
12.629999900000001,8.815450668334961,-2.403778553009033,-3.711012601852417,0.3509521484375,1.2969970703125,0.3662109375
12.649999900000001,8.820239067077637,-2.3942017555236816,-3.751713991165161,-0.9307861328125,0.79345703125,-1.0528564453125
12.6699999,8.801085472106934,-2.363077163696289,-3.7277719974517822,2.01416015625,1.0833740234375,2.4566650390625
12.6899999,8.798690795898438,-2.3535003662109375,-3.7181951999664307,-0.1373291015625,-2.105712890625,1.0528564453125
12.709999900000001,8.803479194641113,-2.387019157409668,-3.7158010005950928,-0.54931640625,-1.3275146484375,0.67138671875
12.729999900000001,8.810662269592285,-2.432508945465088,-3.713406801223755,1.0223388671875,2.5787353515625,0.5035400390625
12.7499999,8.815450668334961,-2.451662540435791,-3.7277719974517822,-0.30517578125,1.52587890625,-1.983642578125
12.7699999,8.810662269592285,-2.449268341064453,-3.734954595565796,-1.800537109375,-1.64794921875,-2.227783203125
12.789999900000002,8.803479194641113,-2.4013843536376953,-3.7421371936798096,-0.457763671875,-0.030517578125,-0.152587890625
12.809999900000001,8.796297073364258,-2.346317768096924,-3.7612907886505127,0.67138671875,2.2430419921875,1.678466796875
12.8299999,8.798690795898438,-2.3271639347076416,-3.773261785507202,1.0833740234375,2.4261474609375,2.1820068359375
12.8499999,8.801085472106934,-2.346317768096924,-3.7684733867645264,-0.5645751953125,1.068115234375,0.42724609375
12.8699999,8.801085472106934,-2.3942017555236816,-3.734954595565796,-0.7476806640625,1.007080078125,-1.068115234375
12.889999900000001,8.801085472106934,-2.434903144836426,-3.689464807510376,0.335693359375,0.91552734375,-1.40380859375
12.9099999,8.803479194641113,-2.427720546722412,-3.6774938106536865,-0.823974609375,-1.4801025390625,-1.678466796875
12.9299999,8.808267593383789,-2.38462495803833,-3.687070608139038,-1.2054443359375,-1.3275146484375,-0.396728515625
12.9499999,8.810662269592285,-2.343923568725586,-3.706224203109741,1.52587890625,2.044677734375,2.3651123046875
12.969999900000001,8.813055992126465,-2.322375535964966,-3.7277719974517822,1.0528564453125,1.6632080078125,1.5716552734375
12.9899999,8.813055992126465,-2.3367409706115723,-3.7397429943084717,-1.5716552734375,-0.946044921875,-0.6866455078125
13.0099999,8.808267593383789,-2.3702597618103027,-3.7205893993377686,-0.6256103515625,-0.2288818359375,-0.3814697265625
13.0299999,8.80587387084961,-2.389413356781006,-3.711012601852417,0.3204345703125,-0.0152587890625,0.0152587890625
13.049999900000001,8.80587387084961,-2.3798365592956543,-3.7421371936798096,-0.5035400390625,-1.617431640625,0.152587890625
13.069999900000001,8.803479194641113,-2.3750481605529785,-3.756502389907837,0.8544921875,0.762939453125,1.52587890625
13.0899999,8.801085472106934,-2.3798365592956543,-3.758896589279175,1.8768310546875,2.410888671875,1.9073486328125
13.1099999,8.798690795898438,-2.3965959548950195,-3.7612907886505127,-0.1983642578125,-0.5645751953125,-0.213623046875
13.129999900000001,8.793902397155762,-2.4181437492370605,-3.756502389907837,-2.3345947265625,-2.0294189453125,-1.5716552734375
13.149999900000001,8.791508674621582,-2.4229321479797363,-3.7493197917938232,0.0457763671875,1.007080078125,-0.213623046875
13.1699999,8.793902397155762,-2.408566951751709,-3.7636849880218506,0.8697509765625,1.556396484375,0.640869140625
13.1899999,8.793902397155762,-2.3918075561523438,-3.780444383621216,-0.67138671875,-0.4119873046875,0.2288818359375
13.209999900000001,8.796297073364258,-2.3774423599243164,-3.7636849880218506,-0.274658203125,0.579833984375,-0.2288818359375
13.229999900000001,8.793902397155762,-2.3798365592956543,-3.7612907886505127,0.0457763671875,0.5035400390625,0.18310546875
13.2499999,8.793902397155762,-2.38462495803833,-3.756502389907837,-0.3662109375,-0.274658203125,0
13.2699999,8.796297073364258,-2.403778553009033,-3.7636849880218506,-0.3509521484375,-0.0457763671875,-0.2593994140625
13.289999900000002,8.798690795898438,-2.403778553009033,-3.773261785507202,-0.579833984375,1.007080078125,-1.3427734375
13.309999900000001,8.798690795898438,-2.387019157409668,-3.7828385829925537,-0.4119873046875,1.4495849609375,-1.0833740234375
13.3299999,8.793902397155762,-2.367865562438965,-3.7876269817352295,0.4119873046875,0.6256103515625,1.2969970703125
13.3499999,8.791508674621582,-2.346317768096924,-3.7828385829925537,0.5645751953125,0.48828125,1.3275146484375
13.3699999,8.786720275878906,-2.3535003662109375,-3.7828385829925537,0.4119873046875,0.701904296875,0.579833984375
13.389999900000001,8.791508674621582,-2.389413356781006,-3.758896589279175,0.6103515625,1.5106201171875,0.18310546875
13.4099999,8.789113998413086,-2.4133553504943848,-3.7612907886505127,-0.6561279296875,0.0152587890625,-1.220703125
13.4299999,8.791508674621582,-2.406172752380371,-3.7636849880218506,-1.5106201171875,-0.579833984375,-1.6021728515625
13.4499999,8.786720275878906,-2.387019157409668,-3.7708675861358643,0.579833984375,1.708984375,0.8392333984375
13.469999900000001,8.78432559967041,-2.360682964324951,-3.778050184249878,1.1444091796875,1.77001953125,1.7547607421875
13.4899999,8.786720275878906,-2.343923568725586,-3.7828385829925537,-0.640869140625,0.1678466796875,-0.0457763671875
13.5099999,8.786720275878906,-2.3511061668395996,-3.77565598487854,-0.732421875,0.274658203125,0.091552734375
13.5299999,8.789113998413086,-2.363077163696289,-3.7684733867645264,0.885009765625,1.800537109375,1.129150390625
13.549999900000001,8.789113998413086,-2.367865562438965,-3.7660791873931885,0.8392333984375,1.0223388671875,0.9002685546875
13.569999900000001,8.786720275878906,-2.3774423599243164,-3.773261785507202,0.1678466796875,-0.18310546875,0.8087158203125
13.5899999,8.789113998413086,-2.387019157409668,-3.780444383621216,0.274658203125,0.7476806640625,0.946044921875
13.6099999,8.786720275878906,-2.4013843536376953,-3.77565598487854,1.1444091796875,2.6702880859375,1.2054443359375
13.629999900000001,8.786720275878906,-2.4229321479797363,-3.7708675861358643,0.640869140625,1.190185546875,0.8392333984375
13.649999900000001,8.786720275878906,-2.425326347351074,-3.778050184249878,-0.91552734375,-0.9765625,-0.274658203125
13.6699999,8.78432559967041,-2.4157495498657227,-3.7708675861358643,0.213623046875,1.2359619140625,0.396728515625
13.6899999,8.78432559967041,-2.4133553504943848,-3.7708675861358643,1.7242431640625,2.86865234375,2.3040771484375
13.709999900000001,8.786720275878906,-2.4133553504943848,-3.773261785507202,0.5035400390625,0.6866455078125,1.556396484375
13.729999900000001,8.78432559967041,-2.43011474609375,-3.756502389907837,-0.762939453125,-0.1220703125,-0.48828125
13.7499999,8.78193187713623,-2.4444799423217773,-3.737348794937134,0.06103515625,1.0223388671875,-0.6256103515625
13.7699999,8.779537200927734,-2.4468741416931152,-3.7469255924224854,-0.0457763671875,0.244140625,0.2288818359375
13.789999900000002,8.779537200927734,-2.43011474609375,-3.754108190536499,0.518798828125,0.8087158203125,0.457763671875
13.809999900000001,8.779537200927734,-2.4133553504943848,-3.7660791873931885,0.3662109375,1.40380859375,0.2593994140625
13.8299999,8.78193187713623,-2.410961151123047,-3.7684733867645264,0.6103515625,1.373291015625,0.8392333984375
13.8499999,8.78193187713623,-2.408566951751709,-3.756502389907837,0.2593994140625,0.7781982421875,0.396728515625
13.8699999,8.78193187713623,-2.4133553504943848,-3.7445313930511475,-0.518798828125,-0.213623046875,-0.091552734375
13.889999900000001,8.779537200927734,-2.4157495498657227,-3.7421371936798096,-0.48828125,-0.1068115234375,0.244140625
13.9099999,8.777143478393555,-2.4181437492370605,-3.7445313930511475,0.3662109375,0.9307861328125,0.6866455078125
13.9299999,8.774748802185059,-2.425326347351074,-3.756502389907837,0.5645751953125,0.6103515625,0.4730224609375
13.9499999,8.774748802185059,-2.4229321479797363,-3.780444383621216,-0.48828125,-0.2288818359375,-0.0762939453125
13.969999900000001,8.774748802185059,-2.427720546722412,-3.7852327823638916,0.091552734375,1.6632080078125,0.7476806640625
13.9899999,8.777143478393555,-2.432508945465088,-3.77565598487854,1.0528564453125,2.349853515625,1.220703125
14.0099999,8.777143478393555,-2.4372973442077637,-3.77565598487854,-0.67138671875,-0.732421875,-0.0762939453125
14.0299999,8.774748802185059,-2.449268341064453,-3.7636849880218506,-0.48828125,-0.457763671875,-0.457763671875
14.049999900000001,8.777143478393555,-2.456450939178467,-3.7684733867645264,0.2593994140625,1.64794921875,-0.30517578125
14.069999900000001,8.772355079650879,-2.4588451385498047,-3.77565598487854,0.3204345703125,1.678466796875,-0.1068115234375
14.0899999,8.772355079650879,-2.4396915435791016,-3.773261785507202,-0.091552734375,0.3814697265625,-0.6103515625
14.1099999,8.769960403442383,-2.4181437492370605,-3.7708675861358643,-0.3204345703125,-0.4119873046875,-0.244140625
14.129999900000001,8.769960403442383,-2.408566951751709,-3.7636849880218506,0.640869140625,0.8392333984375,1.220703125
14.149999900000001,8.772355079650879,-2.406172752380371,-3.7636849880218506,0.701904296875,1.1444091796875,0.79345703125
14.1699999,8.779537200927734,-2.4157495498657227,-3.7636849880218506,-0.8087158203125,-0.091552734375,-0.8392333984375
14.1899999,8.78432559967041,-2.4372973442077637,-3.773261785507202,-0.7171630859375,-0.152587890625,-0.06103515625
14.209999900000001,8.78432559967041,-2.4444799423217773,-3.780444383621216,0.7171630859375,2.0904541015625,0
14.229999900000001,8.777143478393555,-2.4420857429504395,-3.778050184249878,-0.2593994140625,-0.030517578125,-0.274658203125
14.2499999,8.772355079650879,-2.43011474609375,-3.758896589279175,-0.396728515625,-0.335693359375,-0.8087158203125
14.2699999,8.767566680908203,-2.427720546722412,-3.7612907886505127,-0.0762939453125,0,0.2899169921875
14.289999900000002,8.765172004699707,-2.432508945465088,-3.7660791873931885,0.5950927734375,0.8392333984375,0.8087158203125
14.309999900000001,8.767566680908203,-2.432508945465088,-3.77565598487854,0.3662109375,1.007080078125,-0.8697509765625
14.3299999,8.769960403442383,-2.4372973442077637,-3.7924153804779053,-0.762939453125,-0.1678466796875,-0.9307861328125
14.3499999,8.769960403442383,-2.4420857429504395,-3.7900211811065674,0.6866455078125,1.15966796875,0.4730224609375
14.3699999,8.769960403442383,-2.427720546722412,-3.797203779220581,0.213623046875,1.3427734375,-0.396728515625
14.389999900000001,8.769960403442383,-2.427720546722412,-3.7924153804779053,-0.4425048828125,0.274658203125,-0.732421875
14.4099999,8.769960403442383,-2.425326347351074,-3.7876269817352295,-0.579833984375,0.1373291015625,-0.7476806640625
14.4299999,8.772355079650879,-2.4181437492370605,-3.7900211811065674,-0.732421875,0.640869140625,-0.7781982421875
14.4499999,8.774748802185059,-2.4229321479797363,-3.7900211811065674,0.1220703125,1.4801025390625,0.091552734375
14.469999900000001,8.777143478393555,-2.4229321479797363,-3.7828385829925537,0.091552734375,1.220703125,-0.640869140625
14.4899999,8.774748802185059,-2.425326347351074,-3.778050184249878,-0.5950927734375,-0.1983642578125,-1.5106201171875
14.5099999,8.772355079650879,-2.410961151123047,-3.780444383621216,-0.5340576171875,-0.335693359375,-0.8087158203125
14.5299999,8.774748802185059,-2.3942017555236816,-3.7924153804779053,-0.030517578125,1.068115234375,0.67138671875
14.549999900000001,8.774748802185059,-2.389413356781006,-3.797203779220581,0.6103515625,2.1209716796875,0.8697509765625
14.569999900000001,8.777143478393555,-2.3989901542663574,-3.7900211811065674,-0.1983642578125,0.6866455078125,-0.518798828125
14.5899999,8.777143478393555,-2.4133553504943848,-3.778050184249878,-1.1444091796875,-0.701904296875,-1.2664794921875
14.6099999,8.774748802185059,-2.425326347351074,-3.7612907886505127,0.0457763671875,0.244140625,-0.42724609375
14.629999900000001,8.774748802185059,-2.4181437492370605,-3.77565598487854,0.3204345703125,0.457763671875,-0.1373291015625
14.649999900000001,8.774748802185059,-2.406172752380371,-3.797203779220581,-0.54931640625,0.42724609375,-0.2593994140625
14.6699999,8.769960403442383,-2.3918075561523438,-3.7924153804779053,-0.18310546875,1.52587890625,-0.091552734375
14.6899999,8.765172004699707,-2.3798365592956543,-3.7852327823638916,0.0457763671875,0.30517578125,-0.1068115234375
14.709999900000001,8.762778282165527,-2.389413356781006,-3.794809579849243,-1.068115234375,-2.1209716796875,0.42724609375
14.729999900000001,8.765172004699707,-2.408566951751709,-3.799597978591919,0.030517578125,0.3204345703125,0.457763671875
14.7499999,8.767566680908203,-2.4229321479797363,-3.8139634132385254,-0.0457763671875,2.5177001953125,-1.2359619140625
14.7699999,8.772355079650879,-2.4205379486083984,-3.8115692138671875,-1.1749267578125,0.701904296875,-1.40380859375
14.789999900000002,8.769960403442383,-2.3989901542663574,-3.801992416381836,-1.2969970703125,-1.6326904296875,0.54931640625
14.809999900000001,8.769960403442383,-2.367865562438965,-3.7924153804779053,-0.3509521484375,-0.6103515625,1.556396484375
14.8299999,8.772355079650879,-2.3702597618103027,-3.804386615753174,0.1068115234375,1.1749267578125,1.2969970703125
14.8499999,8.772355079650879,-2.3989901542663574,-3.823540210723877,-0.67138671875,1.0528564453125,-0.18310546875
14.8699999,8.772355079650879,-2.4205379486083984,-3.818751811981201,-0.9765625,0.7171630859375,-1.922607421875
14.889999900000001,8.769960403442383,-2.4133553504943848,-3.825934410095215,-1.8768310546875,-0.7781982421875,-1.312255859375
14.9099999,8.769960403442383,-2.389413356781006,-3.821146011352539,-0.335693359375,0.3814697265625,1.5411376953125
14.9299999,8.769960403442383,-2.367865562438965,-3.821146011352539,0.701904296875,1.7852783203125,2.166748046875
14.9499999,8.772355079650879,-2.3798365592956543,-3.8283286094665527,-0.4730224609375,0.48828125,0.3204345703125
14.969999900000001,8.769960403442383,-2.4181437492370605,-3.8139634132385254,-0.762939453125,0.1983642578125,-1.220703125
14.9899999,8.765172004699707,-2.434903144836426,-3.804386615753174,-0.7171630859375,0.1373291015625,-1.5411376953125
15.0099999,8.757989883422852,-2.410961151123047,-3.8067808151245117,-0.701904296875,-0.30517578125,-0.6103515625
15.0299999,8.757989883422852,-2.3726539611816406,-3.823540210723877,0.579833984375,0.2899169921875,1.7852783203125
15.049999900000001,8.757989883422852,-2.3558945655822754,-3.8355112075805664,1.4495849609375,1.15966796875,2.4261474609375
15.069999900000001,8.757989883422852,-2.3726539611816406,-3.84269380569458,0.7781982421875,0.9765625,0.213623046875
15.0899999,8.755595207214355,-2.403778553009033,-3.8379054069519043,-0.8544921875,-0.1068115234375,-1.983642578125
15.1099999,8.753201484680176,-2.4181437492370605,-3.8331170082092285,-1.15966796875,-0.3204345703125,-1.1749267578125
15.129999900000001,8.753201484680176,-2.406172752380371,-3.845088005065918,-0.2899169921875,0.2593994140625,0.7171630859375
15.149999900000001,8.75080680847168,-2.387019157409668,-3.84269380569458,0.8087158203125,1.6326904296875,1.312255859375
15.1699999,8.746018409729004,-2.3726539611816406,-3.825934410095215,0.6866455078125,1.220703125,0.152587890625
15.1899999,8.738836288452148,-2.3726539611816406,-3.804386615753174,-1.129150390625,-1.7242431640625,-0.48828125
15.209999900000001,8.729259490966797,-2.3750481605529785,-3.7660791873931885,0.1373291015625,-1.3580322265625,0.5035400390625
15.229999900000001,8.71489429473877,-2.365471363067627,-3.73016619682312,0.9613037109375,-0.9002685546875,0.396728515625
15.2499999,8.69095230102539,-2.3582887649536133,-3.7181951999664307,1.8310546875,-2.7923583984375,0.5950927734375
15.2699999,8.683769226074219,-2.3702597618103027,-3.6990416049957275,4.4097900390625,-3.0364990234375,1.7547607421875
15.289999900000002,8.676587104797363,-2.4157495498657227,-3.7205893993377686,4.82177734375,-4.180908203125,1.4801025390625
15.309999900000001,8.681375503540039,-2.4899697303771973,-3.7708675861358643,4.180908203125,-4.8675537109375,-2.593994140625
15.3299999,8.683769226074219,-2.5522189140319824,-3.821146011352539,11.627197265625,-1.5411376953125,-8.8958740234375
15.3499999,8.688557624816895,-2.626439332962036,-3.8498764038085938,23.0865478515625,-0.3662109375,-11.2457275390625
15.3699999,8.923190116882324,-2.801215887069702,-4.182670593261719,21.9268798828125,-10.7421875,-12.63427734375
15.389999900000001,9.696516990661621,-3.354276657104492,-5.252878665924072,-19.5770263671875,-20.3857421875,-20.904541015625
15.4099999,11.022904396057129,-4.400542736053467,-7.570465564727783,-77.667236328125,-3.0975341796875,-38.1927490234375
15.4299999,12.51209831237793,-5.980715751647949,-11.24795913696289,-119.4000244140625,70.2667236328125,-74.9359130859375
15.4499999,13.136984825134277,-8.010998725891113,-15.140931129455566,-58.2427978515625,230.499267578125,-125.7171630859375
15.469999900000001,11.93748950958252,-9.339780807495117,-17.14966583251953,124.4964599609375,454.2236328125,-230.987548828125
15.4899999,9.009381294250488,-8.777143478393555,-15.761030197143555,130.828857421875,499.9847412109375,-374.5880126953125
15.5099999,5.166687488555908,-5.724536418914795,-10.503362655639648,-25.5126953125,498.1842041015625,-390.19775390625
15.5299999,1.6519991159439087,-0.5147533416748047,-2.7700912952423096,-44.2352294921875,321.2738037109375,-237.3504638671875
15.549999900000001,-0.3447650372982025,4.99669885635376,4.829104900360107,15.6707763671875,161.7431640625,-33.1268310546875
15.569999900000001,-0.9385270476341248,8.834604263305664,10.110713958740234,-13.4735107421875,46.3104248046875,69.27490234375
15.5899999,-0.4118026793003082,9.928754806518555,12.277466773986816,-0.2593994140625,13.7786865234375,88.3636474609375
15.6099999,0.48602294921875,8.643068313598633,11.760318756103516,21.820068359375,32.3486328125,74.4781494140625
15.629999900000001,1.259350061416626,6.205770969390869,10.007762908935547,-0.42724609375,46.6156005859375,48.2330322265625
15.649999900000001,1.5849615335464478,4.000710964202881,8.497021675109863,-37.994384765625,28.9154052734375,31.951904296875
15.6699999,1.357512354850769,2.920926094055176,8.133103370666504,-107.23876953125,-37.628173828125,41.7633056640625
15.6899999,0.5841852426528931,2.9281086921691895,9.210494041442871,-173.40087890625,-143.85986328125,99.5025634765625
15.709999900000001,-0.5722141861915588,3.584120035171509,11.133037567138672,-133.8653564453125,-297.210693359375,169.5556640625
15.729999900000001,-1.7908629179000854,4.091690540313721,12.57913589477539,-70.404052734375,-500,203.7811279296875
15.7499999,-3.2130186557769775,2.6599581241607666,7.996633529663086,-72.81494140625,-500,244.384765625
15.7699999,-4.266467571258545,0.8427590131759644,-0.36152446269989014,-88.9129638671875,-500,221.2982177734375
15.789999900000002,-4.795586109161377,-1.702277421951294,-12.303802490234375,-264.70947265625,-500,150.299072265625
15.809999900000001,-5.501875400543213,-4.062960147857666,-25.811887741088867,-298.15673828125,-445.892333984375,73.486328125
15.8299999,-5.7556610107421875,-5.57370138168335,-37.04787826538086,-69.3817138671875,113.46435546875,-49.6063232421875
15.8499999,-5.3797712326049805,-5.9735331535339355,-43.220130920410156,119.0338134765625,461.822509765625,-90.8203125
15.869999900000002,-4.8722004890441895,-5.5545477867126465,-42.669464111328125,67.81005859375,499.9847412109375,-54.0313720703125
15.889999900000001,-4.5609540939331055,-4.972756862640381,-36.08780288696289,36.346435546875,499.9847412109375,-50.201416015625
15.9099999,-4.606443881988525,-4.393360137939453,-25.680208206176758,147.5677490234375,499.9847412109375,-173.0499267578125
15.9299999,-4.747702121734619,-3.308786630630493,-13.860033988952637,173.1719970703125,499.9847412109375,-290.0238037109375
15.9499999,-4.879383087158203,-1.1540051698684692,-2.2577321529388428,37.2772216796875,499.9847412109375,-271.91162109375
15.969999900000001,-4.752490520477295,2.0183119773864746,8.027758598327637,-15.68603515625,499.9847412109375,-135.2691650390625
15.9899999,-4.242525577545166,5.216965675354004,16.33085060119629,23.4527587890625,328.857421875,-14.1448974609375
16.0099999,-3.3518824577331543,7.433996200561523,22.280441284179688,19.0582275390625,79.437255859375,52.978515625
16.0299999,-2.6839001178741455,8.372523307800293,25.347414016723633,-17.0745849609375,-202.7587890625,88.5772705078125
16.0499999,-2.3271639347076416,8.118738174438477,25.2300968170166,-27.008056640625,-428.4515380859375,132.3394775390625
16.0699999,-2.0901381969451904,6.8378400802612305,21.784841537475586,41.8548583984375,-500,211.456298828125
16.089999900000002,-2.030282974243164,4.774038314819336,14.542381286621094,60.699462890625,-500,278.533935546875
16.109999900000002,-2.4444799423217773,1.9704279899597168,4.125209331512451,-59.0667724609375,-500,267.852783203125
16.1299999,-2.832340717315674,-1.6950948238372803,-8.935160636901855,-190.643310546875,-500,239.80712890625
16.1499999,-3.754108190536499,-5.4659624099731445,-23.13517189025879,-219.207763671875,-500,143.9666748046875
16.1699999,-4.8602294921875,-8.370129585266113,-35.96091079711914,-62.744140625,-64.0411376953125,-48.736572265625
16.1899999,-5.990292549133301,-9.90241813659668,-43.904869079589844,53.558349609375,453.887939453125,-132.0343017578125
16.2099999,-7.074865818023682,-9.746794700622559,-45.214500427246094,78.8421630859375,499.9847412109375,-115.78369140625
16.2299999,-8.154650688171387,-8.2312650680542,-38.96323776245117,120.0103759765625,499.9847412109375,-154.4647216796875
16.249999900000002,-9.014169692993164,-5.846640586853027,-26.999412536621094,179.8553466796875,499.9847412109375,-247.2076416015625
16.269999900000002,-9.30386734008789,-2.5977089405059814,-12.567164421081543,174.98779296875,499.9847412109375,-346.343994140625
16.2899999,-8.868123054504395,1.5107412338256836,1.4197616577148438,82.21435546875,499.9847412109375,-343.048095703125
16.3099999,-7.8314337730407715,6.028599739074707,12.950237274169922,22.369384765625,499.9847412109375,-196.6400146484375
16.3299999,-6.349422931671143,9.979032516479492,21.157560348510742,36.19384765625,269.8516845703125,-16.937255859375
16.3499999,-4.934449672698975,12.342109680175781,25.75921630859375,44.73876953125,11.7340087890625,122.6959228515625
16.3699999,-4.122815132141113,12.717999458312988,26.762386322021484,-11.29150390625,-222.747802734375,185.760498046875
16.3899999,-3.93367338180542,11.389217376708984,24.648305892944336,-105.682373046875,-368.316650390625,199.371337890625
16.4099999,-4.137180328369141,9.035717010498047,20.061016082763672,-99.3499755859375,-462.8143310546875,229.98046875
16.429999900000002,-3.950432777404785,6.038176536560059,13.850457191467285,-14.9078369140625,-500,315.2313232421875
16.4499999,-3.3207578659057617,2.7892448902130127,6.308721542358398,1.007080078125,-500,396.0418701171875
16.4699999,-3.3207578659057617,-1.1180921792984009,-2.7437551021575928,-85.205078125,-500,434.38720703125
16.4899999,-3.600879430770874,-5.942408561706543,-13.414711952209473,-237.7777099609375,-500,400.9857177734375
16.5099999,-4.817133903503418,-11.1474027633667,-25.256433486938477,-271.6522216796875,-500,212.1734619140625
16.5299999,-6.358999729156494,-15.334861755371094,-35.527557373046875,-82.1533203125,7.354736328125,-83.19091796875
16.5499999,-7.42681360244751,-17.341203689575195,-41.4388427734375,77.4688720703125,475.067138671875,-269.6990966796875
16.5699999,-7.812280178070068,-16.670825958251953,-41.00788497924805,34.97314453125,499.9847412109375,-277.9083251953125
16.589999900000002,-7.711723804473877,-13.64455509185791,-34.01681900024414,26.91650390625,499.9847412109375,-271.3165283203125
16.609999900000002,-7.311892032623291,-9.301473617553711,-22.73294448852539,56.1065673828125,499.9847412109375,-363.525390625
16.6299999,-6.89530086517334,-4.168305397033691,-10.010157585144043,73.18115234375,499.9847412109375,-469.9554443359375
16.6499999,-6.63433313369751,1.5753847360610962,1.8555063009262085,39.8712158203125,499.9847412109375,-475.128173828125
16.6699999,-6.57926607131958,7.654263019561768,11.736376762390137,5.67626953125,499.9847412109375,-329.986572265625
16.6899999,-6.217741966247559,13.172897338867188,19.347543716430664,0.5950927734375,328.5675048828125,-104.248046875
16.7099999,-5.808333396911621,16.989255905151367,24.449586868286133,-4.913330078125,45.47119140625,123.382568359375
16.7299999,-5.521028995513916,18.17677879333496,26.54690933227539,-14.6026611328125,-254.39453125,288.7725830078125
16.749999900000002,-5.499481201171875,16.711528778076172,25.419239044189453,-67.901611328125,-453.399658203125,354.79736328125
16.769999900000002,-5.578489780426025,12.911930084228516,21.01390838623047,-40.46630859375,-500,406.219482421875
16.7899999,-5.331887245178223,7.642292022705078,13.431471824645996,12.5732421875,-500,499.9847412109375
16.8099999,-6.074089527130127,1.678335428237915,3.179499864578247,-47.576904296875,-500,499.9847412109375
16.8299999,-7.007828235626221,-5.044582843780518,-9.155426979064941,-200.98876953125,-500,499.9847412109375
16.8499999,-8.702922821044922,-11.872846603393555,-22.78082847595215,-285.4766845703125,-500,337.40234375
16.8699999,-10.527304649353027,-17.477672576904297,-34.99843978881836,-121.9482421875,-74.27978515625,-26.4434814453125
16.8899999,-11.626243591308594,-20.35310935974121,-42.331878662109375,80.3985595703125,470.8251953125,-312.5152587890625
16.9099999,-11.865663528442383,-19.68752098083496,-42.738895416259766,93.7347412109375,499.9847412109375,-382.720947265625
16.929999900000002,-11.48259162902832,-15.485696792602539,-35.575443267822266,52.459716796875,499.9847412109375,-391.4031982421875
16.9499999,-10.450690269470215,-9.17697525024414,-23.20220947265625,30.517578125,499.9847412109375,-428.375244140625
16.9699999,-8.669404029846191,-2.097320795059204,-9.174580574035645,49.4537353515625,499.9847412109375,-452.789306640625
16.9899999,-6.332663536071777,4.788403511047363,3.5003228187561035,37.567138671875,484.9395751953125,-378.0670166015625
17.0099999,-3.825934410095215,10.702081680297852,13.148955345153809,21.881103515625,330.8868408203125,-202.4383544921875
17.0299999,-1.4317326545715332,14.767436027526855,19.361909866333008,36.6363525390625,162.0025634765625,-2.0904541015625
17.0499999,0.45250412821769714,16.211139678955078,22.199037551879883,24.749755859375,-5.828857421875,147.8118896484375
17.0699999,1.455674648284912,15.140931129455566,22.146366119384766,-10.9405517578125,-165.4052734375,191.925048828125
17.089999900000002,1.6855180263519287,12.588712692260742,20.04425621032715,-61.187744140625,-258.7738037109375,180.8624267578125
17.109999900000002,1.400607943534851,9.708487510681152,16.47210693359375,-53.5736083984375,-361.724853515625,232.1014404296875
17.1299999,0.933738648891449,6.900089263916016,11.549629211425781,36.529541015625,-500,407.1044921875
17.1499999,-0.5171475410461426,3.8067808151245117,4.6471452713012695,82.0159912109375,-500,499.9847412109375
17.1699999,-3.4141316413879395,-0.9002198576927185,-4.685452938079834,-66.253662109375,-500,499.9847412109375
17.1899999,-6.885724067687988,-7.977479934692383,-16.608577728271484,-281.8756103515625,-500,499.9847412109375
17.2099999,-10.704475402832031,-15.840038299560547,-28.974628448486328,-205.3985595703125,-210.2813720703125,209.5794677734375
17.2299999,-13.503297805786133,-21.85906219482422,-37.78050231933594,26.7181396484375,377.899169921875,-238.34228515625
17.249999900000002,-14.63814926147461,-24.11918830871582,-40.742130279541016,112.396240234375,499.9847412109375,-459.5489501953125
17.269999900000002,-13.721169471740723,-15.064316749572754,-26.18059539794922,19.9127197265625,499.9847412109375,-500
17.2899999,-12.212822914123535,-6.665457725524902,-13.46020221710205,52.4444580078125,499.9847412109375,-500
17.3099999,-10.357316970825195,2.169146776199341,-0.9026140570640564,39.642333984375,499.9847412109375,-500
17.3299999,-8.453926086425781,10.278307914733887,9.888052940368652,21.0723876953125,496.0784912109375,-328.1097412109375
17.3499999,-6.40927791595459,16.41464614868164,18.183961868286133,16.2353515625,316.40625,-68.7255859375
17.3699999,-4.613626480102539,19.543869018554688,23.58049201965332,18.5394287109375,50.9185791015625,149.2156982421875
17.3899999,-3.3039982318878174,19.361909866333008,25.847801208496094,-32.196044921875,-211.151123046875,245.60546875
17.409999900000003,-2.609679937362671,16.40267562866211,25.02659034729004,-91.3238525390625,-377.01416015625,266.41845703125
17.429999900000002,-2.406172752380371,11.815385818481445,21.3419132232666,-52.3681640625,-491.790771484375,298.4771728515625
17.4499999,-1.9728221893310547,6.603208065032959,14.982913970947266,9.2620849609375,-500,360.1531982421875
17.4699999,-2.63362193107605,1.6352397203445435,5.774814605712891,-43.6859130859375,-500,425.29296875
17.4899999,-3.847482204437256,-3.2848446369171143,-6.028599739074707,-262.14599609375,-500,401.4739990234375
17.5099999,-5.978321552276611,-7.943961143493652,-20.123266220092773,-317.7032470703125,-500,281.585693359375
17.5299999,-8.576030731201172,-11.66694450378418,-33.78936767578125,-138.00048828125,-206.146240234375,40.679931640625
17.5499999,-10.541669845581055,-13.546393394470215,-43.10520553588867,93.2769775390625,388.641357421875,-187.8814697265625
17.5699999,-11.355698585510254,-13.220781326293945,-45.480255126953125,158.111572265625,499.9847412109375,-271.026611328125
17.589999900000002,-11.075576782226562,-10.690110206604004,-39.86106491088867,117.218017578125,499.9847412109375,-271.240234375
17.609999900000002,-9.837775230407715,-6.780379295349121,-28.25157928466797,77.5604248046875,499.9847412109375,-303.2073974609375
17.6299999,-7.967903137207031,-2.2242133617401123,-14.290989875793457,97.1221923828125,499.9847412109375,-353.179931640625
17.6499999,-6.054935932159424,2.559401512145996,-1.0678139925003052,63.8275146484375,499.9847412109375,-346.527099609375
17.6699999,-4.467580318450928,7.364564418792725,9.581595420837402,38.8641357421875,461.4105224609375,-277.7099609375
17.6899999,-3.268085241317749,11.707646369934082,17.1376953125,41.473388671875,325.5157470703125,-157.8521728515625
17.7099999,-2.2242133617401123,14.987702369689941,21.7010440826416,42.1600341796875,119.873046875,-5.615234375
17.7299999,-1.5682021379470825,16.77138328552246,23.379379272460938,26.6571044921875,-99.30419921875,143.9208984375
17.749999900000002,-1.3646949529647827,17.032350540161133,22.4935245513916,-4.45556640625,-254.1961669921875,255.4779052734375
17.769999900000002,-1.723825216293335,15.674838066101074,19.464859008789062,24.1546630859375,-348.9837646484375,369.4610595703125
17.7899999,-2.0661959648132324,12.294225692749023,14.362815856933594,109.222412109375,-466.49169921875,499.9847412109375
17.8099999,-3.0861260890960693,6.892906665802002,6.799532890319824,86.4105224609375,-500,499.9847412109375
17.8299999,-4.881777286529541,-1.137245774269104,-2.896984100341797,-59.722900390625,-500,499.9847412109375
17.8499999,-7.177816867828369,-11.5065336227417,-14.750677108764648,-248.9471435546875,-500,499.9847412109375
17.8699999,-10.014945983886719,-22.184673309326172,-26.886884689331055,-200.25634765625,-261.566162109375,216.12548828125
17.8899999,-12.543222427368164,-29.96343421936035,-35.501224517822266,24.566650390625,256.683349609375,-289.581298828125
17.909999900000003,-13.852850914001465,-32.68564224243164,-38.307228088378906,97.015380859375,499.9847412109375,-500
17.929999900000002,-13.965378761291504,-29.03448486328125,-34.11977005004883,42.236328125,499.9847412109375,-500
17.9499999,-12.840104103088379,-20.324378967285156,-24.392126083374023,5.2947998046875,481.9183349609375,-500
17.9699999,-10.500968933105469,-9.186552047729492,-12.502521514892578,8.544921875,394.6075439453125,-500
17.9899999,-7.671022415161133,2.0231003761291504,-1.5131354331970215,9.6893310546875,332.9925537109375,-497.955322265625
18.0099999,-5.013458251953125,11.712434768676758,7.0341644287109375,3.9825439453125,295.10498046875,-356.597900390625
18.0299999,-2.942473888397217,18.926164627075195,12.84968090057373,-0.8392333984375,248.47412109375,-201.446533203125
18.0499999,-1.4053963422775269,23.250093460083008,16.27338981628418,-17.181396484375,131.1798095703125,-33.7982177734375
18.0699999,-0.507570743560791,24.600421905517578,17.68596839904785,-13.7481689453125,-50.10986328125,141.998291015625
18.089999900000002,-0.12449848651885986,23.13756561279297,17.492036819458008,-23.7274169921875,-187.5457763671875,289.8101806640625
18.109999900000002,-0.15322890877723694,19.45288848876953,15.813702583312988,-13.2598876953125,-279.1900634765625,382.4920654296875
18.1299999,-0.3232172429561615,13.967772483825684,12.401965141296387,-16.754150390625,-411.6058349609375,480.926513671875
18.1499999,-1.2497732639312744,7.242460250854492,6.4595561027526855,-55.17578125,-500,499.9847412109375
18.1699999,-3.095702886581421,-0.6177040338516235,-2.1332337856292725,-143.5089111328125,-500,499.9847412109375
18.1899999,-5.590460777282715,-9.588777542114258,-13.397953033447266,-228.82080078125,-500,499.9847412109375
18.2099999,-8.446743965148926,-18.303672790527344,-25.34262466430664,-189.117431640625,-294.708251953125,220.855712890625
18.2299999,-10.773907661437988,-24.420856475830078,-34.440589904785156,36.6058349609375,181.57958984375,-241.88232421875
18.249999900000002,-11.748347282409668,-26.290729522705078,-38.30961990356445,139.495849609375,460.052490234375,-477.2491455078125
18.269999900000002,-11.583148002624512,-22.941240310668945,-35.517982482910156,82.1685791015625,499.9847412109375,-500
18.2899999,-10.295066833496094,-15.605406761169434,-27.190948486328125,27.099609375,499.9847412109375,-487.5946044921875
18.3099999,-7.888894557952881,-6.610390663146973,-16.424222946166992,32.4249267578125,385.406494140625,-459.0911865234375
18.3299999,-4.7620673179626465,2.123656988143921,-5.992686748504639,50.2166748046875,293.304443359375,-376.7852783203125
18.3499999,-1.4389152526855469,9.29189682006836,2.248155355453491,40.9088134765625,286.6363525390625,-268.3563232421875
18.3699999,1.5059528350830078,14.324508666992188,7.797914981842041,4.119873046875,268.4326171875,-166.2139892578125
18.3899999,3.450044631958008,17.168821334838867,11.341333389282227,-0.1678466796875,211.9140625,-59.8297119140625
18.409999900000003,4.3191399574279785,18.066646575927734,13.721169471740723,-14.2364501953125,149.3682861328125,45.95947265625
18.429999900000002,3.9240965843200684,17.513586044311523,15.504850387573242,-33.660888671875,16.693115234375,136.16943359375
18.4499999,2.6647465229034424,16.09382438659668,16.59660530090332,-29.35791015625,-158.8287353515625,191.2994384765625
18.4699999,1.2090718746185303,13.917494773864746,15.940594673156738,-55.2978515625,-349.0753173828125,265.289306640625
18.4899999,-0.2992752194404602,10.919954299926758,12.507309913635254,-114.471435546875,-500,387.6495361328125
18.5099999,-1.5610195398330688,6.914454460144043,5.446808815002441,-192.7947998046875,-500,469.17724609375
18.5299999,-3.0142998695373535,1.237802267074585,-4.900930881500244,-242.828369140625,-500,499.9847412109375
18.5499999,-4.481945514678955,-5.676652431488037,-17.322050094604492,-265.93017578125,-500,410.58349609375
18.5699999,-5.904101371765137,-12.564770698547363,-29.15898323059082,-169.6319580078125,-198.2879638671875,128.997802734375
18.589999900000002,-6.971915245056152,-17.477672576904297,-37.33039474487305,11.7950439453125,227.7069091796875,-166.2139892578125
18.609999900000002,-7.297526836395264,-19.122488021850586,-39.942466735839844,94.818115234375,441.8792724609375,-313.4613037109375
18.6299999,-7.010222434997559,-16.931795120239258,-36.20751190185547,80.56640625,471.8475341796875,-353.2562255859375
18.6499999,-6.100425720214844,-11.736376762390137,-27.64824104309082,82.1990966796875,440.9942626953125,-377.593994140625
18.6699999,-4.687847137451172,-4.999093055725098,-16.912641525268555,75.439453125,392.3797607421875,-373.2452392578125
18.6899999,-3.0142998695373535,1.9728221893310547,-6.385335922241211,39.337158203125,353.485107421875,-307.9833984375
18.7099999,-1.4053963422775269,8.271966934204102,2.4205379486083984,11.688232421875,320.7550048828125,-221.6796875
18.7299999,0.021547814831137657,13.376404762268066,8.973467826843262,24.1241455078125,274.10888671875,-152.191162109375
18.749999900000002,1.115697979927063,17.044321060180664,13.529633522033691,28.8543701171875,217.926025390625,-45.928955078125
18.769999900000002,1.9369091987609863,19.007566452026367,16.543933868408203,16.3421630859375,114.92919921875,129.302978515625
18.7899999,2.1140801906585693,18.89264488220215,18.337190628051758,2.349853515625,-55.72509765625,298.2025146484375
18.8099999,0.7038952708244324,12.983756065368652,16.77377700805664,25.5584716796875,-442.19970703125,365.8447265625
18.8299999,-1.113303780555725,7.975085735321045,11.389217376708984,65.2618408203125,-500,467.071533203125
18.8499999,-3.909731388092041,1.9153614044189453,2.22660756111145,-79.376220703125,-500,499.9847412109375
18.8699999,-7.2568254470825195,-5.65031623840332,-10.295066833496094,-284.5001220703125,-500,499.9847412109375
18.8899999,-10.517727851867676,-13.852850914001465,-24.044967651367188,-273.92578125,-391.815185546875,297.4395751953125
18.909999900000003,-13.184868812561035,-20.269311904907227,-35.18040084838867,-26.641845703125,121.76513671875,-184.9212646484375
18.929999900000002,-14.07311725616455,-23.104045867919922,-40.734947204589844,111.724853515625,487.8387451171875,-400.787353515625
18.9499999,-13.266271591186523,-21.171926498413086,-39.11407470703125,40.252685546875,499.9847412109375,-354.55322265625
18.9699999,-11.044452667236328,-15.703569412231445,-31.122228622436523,-33.294677734375,472.96142578125,-292.6025390625
18.9899999,-7.762001991271973,-8.789113998413086,-19.99876594543457,-24.23095703125,370.7122802734375,-307.31201171875
19.0099999,-4.129997730255127,-1.9536685943603516,-8.947132110595703,10.467529296875,293.6248779296875,-329.2694091796875
19.0299999,-0.7924807667732239,4.065354347229004,0.035913024097681046,-4.3182373046875,302.5665283203125,-269.744873046875
19.0499999,2.0183119773864746,9.016563415527344,6.160281181335449,16.5557861328125,287.0025634765625,-182.525634765625
19.0699999,4.28322696685791,12.533645629882812,9.971850395202637,19.0887451171875,234.0850830078125,-84.686279296875
19.089999900000002,5.853823184967041,14.295778274536133,12.138602256774902,7.2174072265625,184.6771240234375,32.7911376953125
19.109999900000002,6.84981107711792,14.12818431854248,13.275848388671875,-8.8043212890625,94.024658203125,116.4398193359375
19.1299999,7.036558628082275,12.334927558898926,13.778631210327148,-25.421142578125,-18.096923828125,140.80810546875
19.1499999,6.481103897094727,9.787496566772461,13.728352546691895,-23.3306884765625,-125.1220703125,118.0419921875
19.1699999,5.4228668212890625,7.275979042053223,13.06755256652832,-12.664794921875,-213.7908935546875,136.0931396484375
19.1899999,4.050989151000977,4.95120906829834,11.470620155334473,3.631591796875,-303.863525390625,227.3406982421875
19.2099999,2.513911724090576,2.8131868839263916,7.967903137207031,-24.993896484375,-461.4105224609375,284.66796875
19.2299999,0.6943184733390808,0.1843535304069519,1.778891921043396,-87.5244140625,-500,273.956298828125
19.249999900000002,-1.0965443849563599,-3.397372245788574,-6.926425457000732,-167.205810546875,-500,254.9591064453125
19.269999900000002,-2.96162748336792,-7.407660007476807,-17.583017349243164,-134.27734375,-419.1131591796875,152.5115966796875
19.2899999,-4.469974517822266,-10.970232009887695,-27.8732967376709,-69.7021484375,-181.365966796875,-40.7562255859375
19.3099999,-5.523423194885254,-13.108254432678223,-35.39348220825195,-15.5181884765625,120.574951171875,-161.376953125
19.3299999,-6.045359134674072,-13.433865547180176,-38.13484573364258,-17.15087890625,366.607666015625,-155.7769775390625
19.3499999,-5.95677375793457,-11.96861457824707,-35.38151168823242,-21.7437744140625,474.7467041015625,-161.1175537109375
19.3699999,-5.295974254608154,-9.217676162719727,-27.801469802856445,30.9600830078125,491.9281005859375,-254.974365234375
19.3899999,-4.07014274597168,-5.499481201171875,-17.709909439086914,32.9437255859375,410.919189453125,-343.5516357421875
19.409999900000003,-2.47560453414917,-0.9816226959228516,-7.469909191131592,19.805908203125,347.16796875,-335.784912109375
19.429999900000002,-0.9217676520347595,3.957615375518799,1.335964560508728,-8.636474609375,353.118896484375,-249.9542236328125
19.4499999,0.33279404044151306,8.78193187713623,8.020575523376465,-3.143310546875,349.334716796875,-183.3953857421875
19.4699999,1.1540051698684692,12.887988090515137,12.935872077941895,16.05224609375,285.0189208984375,-124.93896484375
19.4899999,1.6041151285171509,15.89271068572998,16.33563804626465,22.3236083984375,159.1339111328125,-8.0413818359375
19.5099999,1.6496049165725708,17.36993408203125,18.373104095458984,18.280029296875,-7.415771484375,153.656005859375
19.5299999,1.3742717504501343,17.02516746520996,18.95728874206543,14.129638671875,-154.4189453125,280.1513671875
19.5499999,0.9768342971801758,14.803349494934082,17.671602249145508,19.866943359375,-284.6832275390625,347.6409912109375
19.5699999,0.4381389021873474,10.81460952758789,13.706804275512695,-13.9923095703125,-470.8404541015625,426.7120361328125
19.589999900000002,-0.6943184733390808,5.4444146156311035,6.665457725524902,-131.011962890625,-500,499.9847412109375
19.609999900000002,-2.2457611560821533,-1.0773907899856567,-3.19865345954895,-184.0972900390625,-500,499.9847412109375
19.6299999,-4.369418144226074,-8.200140953063965,-14.935029983520508,-179.046630859375,-500,369.7052001953125
19.6499999,-6.536170482635498,-14.659696578979492,-26.06328010559082,-81.298828125,-220.6878662109375,82.122802734375
19.6699999,-8.099584579467773,-18.986019134521484,-34.01921081542969,40.1153564453125,130.7525634765625,-148.98681640625
19.6899999,-8.607154846191406,-20.2956485748291,-37.06224060058594,28.2135009765625,327.117919921875,-240.5853271484375
19.7099999,-8.24084186553955,-18.320430755615234,-34.363975524902344,-4.0435791015625,422.3175048828125,-288.8336181640625
19.7299999,-7.091625213623047,-13.73074722290039,-27.21489143371582,64.1326904296875,421.8902587890625,-383.7432861328125
19.749999900000002,-5.2672438621521,-7.582436561584473,-17.784130096435547,74.676513671875,345.9930419921875,-436.5692138671875
19.769999900000002,-2.9951462745666504,-0.7972691655158997,-8.432378768920898,28.900146484375,274.7039794921875,-387.8631591796875
19.7899999,-0.6320692300796509,5.657498836517334,-0.5913678407669067,-20.050048828125,272.2320556640625,-284.7900390625
19.8099999,1.4173674583435059,11.013327598571777,5.298368453979492,-22.9644775390625,286.62109375,-200.5767822265625
19.8299999,2.8778305053710938,15.083470344543457,9.588777542114258,12.237548828125,262.0697021484375,-158.416748046875
19.8499999,3.7852327823638916,17.946935653686523,12.81855583190918,31.55517578125,200.37841796875,-74.7222900390625
19.8699999,4.197035789489746,19.424158096313477,15.06671142578125,32.135009765625,61.1419677734375,108.3831787109375
19.8899999,4.364629745483398,19.00996208190918,15.957354545593262,-1.953125,-110.4888916015625,288.6962890625
19.909999900000003,4.446032524108887,16.572664260864258,14.681244850158691,-72.0672607421875,-278.2135009765625,347.076416015625
19.929999900000002,4.20421838760376,12.181697845458984,10.156203269958496,-96.7559814453125,-457.1990966796875,349.2584228515625
19.9499999,3.7852327823638916,6.205770969390869,2.868253707885742,-145.1263427734375,-493.9422607421875,416.656494140625
19.9699999,2.983175277709961,-0.6919242739677429,-6.143521785736084,-143.7225341796875,-343.2464599609375,460.6170654296875
19.9899999,2.190694570541382,-7.845798969268799,-14.358027458190918,-80.657958984375,-129.0283203125,304.26025390625
20.0099999,1.534683346748352,-13.4506254196167,-19.673154830932617,31.9366455078125,21.575927734375,-27.1453857421875
20.0299999,1.482010841369629,-16.084247589111328,-21.313182830810547,153.25927734375,65.277099609375,-237.884521484375
20.0499999,2.1068975925445557,-14.994885444641113,-19.57978057861328,77.8961181640625,60.1806640625,-207.8094482421875
20.0699999,3.2345664501190186,-10.869675636291504,-15.887922286987305,-13.2293701171875,45.135498046875,-124.481201171875
20.089999900000002,4.594472885131836,-5.566518783569336,-11.693281173706055,-8.9874267578125,16.937255859375,-88.43994140625
20.109999900000002,5.894524574279785,-0.730231523513794,-8.346187591552734,18.1427001953125,-20.8892822265625,-69.82421875
20.1299999,6.912060260772705,2.6647465229034424,-6.552929878234863,7.415771484375,-29.78515625,-18.49365234375
20.1499999,7.556100368499756,4.10366153717041,-6.141127586364746,-16.66259765625,12.9241943359375,43.6553955078125
20.1699999,7.819462776184082,3.7158010005950928,-6.404489517211914,-15.716552734375,51.971435546875,47.1649169921875
20.1899999,7.781155586242676,2.145204782485962,-6.538564682006836,5.0506591796875,44.1436767578125,-2.3651123046875
20.2099999,7.560888767242432,0.40701428055763245,-6.344634532928467,14.6484375,4.1351318359375,-34.60693359375
20.2299999,7.33583402633667,-0.7852981686592102,-5.999869346618652,5.2490234375,-9.0789794921875,-11.1541748046875
20.249999900000002,7.19936466217041,-1.3694833517074585,-5.913678169250488,-4.547119140625,0.579833984375,30.0750732421875
20.269999900000002,7.2137298583984375,-1.723825216293335,-6.14831018447876,-6.011962890625,4.0740966796875,37.6434326171875
20.2899999,7.347805023193359,-2.2146365642547607,-6.557718276977539,-5.7525634765625,-0.67138671875,11.7034912109375
20.3099999,7.5201873779296875,-2.736572504043579,-6.914454460144043,-4.57763671875,2.9296875,-19.317626953125
20.3299999,7.613561630249023,-2.5306711196899414,-7.086836814880371,-0.9002685546875,8.209228515625,-34.60693359375
20.3499999,7.462726593017578,-1.7046716213226318,-6.813898086547852,-3.1280517578125,5.3253173828125,-15.5029296875
20.3699999,7.230489253997803,-0.8523358106613159,-6.40927791595459,-9.1552734375,2.2735595703125,3.0975341796875
20.3899999,6.995857238769531,-0.2777273952960968,-6.04775333404541,-10.2996826171875,-3.692626953125,-0.67138671875
20.409999900000003,6.830657482147217,-0.033518824726343155,-5.829881191253662,-1.708984375,-5.2337646484375,-14.9383544921875
