# Time (seconds),Accel_X,Accel_Y,Accel_Z,Gyro_X,Gyro_Y,Gyro_Z
0.0099999,2.3942017555236816,-6.1770405769348145,11.923124313354492,-9.185791015625,-84.41162109375,-50.2166748046875
0.029999900000000003,2.1739351749420166,-5.051765441894531,9.904812812805176,-9.185791015625,-82.2601318359375,-47.18017578125
0.0499999,1.9752163887023926,-3.529053211212158,7.2137298583984375,-11.71875,-76.6143798828125,-37.4755859375
0.0699999,1.8986018896102905,-1.7717092037200928,4.189853191375732,-14.4805908203125,-52.825927734375,-24.169921875
0.08999990000000001,2.0015525817871094,-0.002394201699644327,1.278503656387329,-10.8489990234375,-12.451171875,-6.439208984375
0.10999990000000001,2.2026655673980713,1.5849615335464478,-1.2401964664459229,-15.6402587890625,19.9127197265625,17.8985595703125
0.1299999,2.3367409706115723,2.784456491470337,-2.868253707885742,-19.744873046875,54.3365478515625,45.7000732421875
0.14999990000000002,2.207453966140747,3.31118106842041,-3.318363666534424,-3.47900390625,102.752685546875,74.3255615234375
0.1699999,1.7381904125213623,2.9065608978271484,-2.33913516998291,22.0184326171875,136.29150390625,88.592529296875
0.1899999,1.0797849893569946,1.2689268589019775,0.47405192255973816,33.7371826171875,153.99169921875,95.76416015625
0.20999990000000002,0.5315127968788147,-1.6639702320098877,5.585672378540039,2.7008056640625,164.3218994140625,101.4404296875
0.2299999,0.36152446269989014,-5.928043365478516,12.847286224365234,24.444580078125,130.401611328125,95.611572265625
0.2499999,0.5722141861915588,-10.26394271850586,20.872650146484375,47.05810546875,44.73876953125,32.4554443359375
0.2699999,1.0055646896362305,-13.606247901916504,25.804706573486328,-12.969970703125,-140.44189453125,-59.26513671875
0.28999990000000003,1.3766659498214722,-14.867992401123047,27.183765411376953,-18.4326171875,-154.0679931640625,-80.8563232421875
0.3099999,1.4700398445129395,-13.670891761779785,23.604434967041016,20.99609375,-89.35546875,-77.9876708984375
0.3299999,1.3263877630233765,-10.675745010375977,17.465702056884766,11.077880859375,-81.60400390625,-74.981689453125
0.34999990000000003,1.1013327836990356,-7.017405033111572,11.255142211914062,-23.4832763671875,-91.1407470703125,-63.6444091796875
0.3699999,0.9983820915222168,-3.488351821899414,6.078877925872803,-45.379638671875,-91.36962890625,-47.9583740234375
0.3899999,1.1659762859344482,-0.5554547905921936,2.070984363555908,-52.06298828125,-69.000244140625,-33.7371826171875
0.40999990000000003,1.5825673341751099,1.644816517829895,-0.8571242094039917,-41.534423828125,-33.3099365234375,-17.578125
0.4299999,2.0661959648132324,3.1220390796661377,-2.765302896499634,-21.8048095703125,11.2457275390625,9.521484375
0.4499999,2.3535003662109375,3.971980571746826,-3.7205893993377686,-16.143798828125,45.318603515625,37.628173828125
0.4699999,2.322375535964966,3.907337188720703,-3.375824451446533,11.505126953125,80.3070068359375,63.3544921875
0.4899999,1.944091796875,2.9759926795959473,-1.5969325304031372,54.2755126953125,96.1151123046875,67.291259765625
0.5099999,1.4748282432556152,1.2066776752471924,1.2617442607879639,41.595458984375,73.1353759765625,57.4951171875
0.5299999,1.173158884048462,-1.4772224426269531,5.293580055236816,25.2838134765625,72.509765625,63.5986328125
0.5499999,1.2737152576446533,-5.039794445037842,11.384428977966309,71.807861328125,115.9820556640625,74.9664306640625
0.5699999,1.6831238269805908,-9.248801231384277,19.785682678222656,103.3477783203125,127.2125244140625,63.78173828125
0.5899998999999999,2.10210919380188,-12.51449203491211,25.280376434326172,-44.464111328125,-160.888671875,-46.7529296875
0.6099998999999999,2.3750481605529785,-14.293384552001953,27.985824584960938,-60.1959228515625,-244.5526123046875,-98.7548828125
0.6299999,2.229001760482788,-13.441048622131348,24.949975967407227,27.618408203125,-90.789794921875,-85.38818359375
0.6499999,1.4532804489135742,-6.430825710296631,10.218452453613281,-32.0892333984375,-65.2008056640625,-53.7261962890625
0.6699999,1.2306196689605713,-2.5785553455352783,4.20421838760376,-43.548583984375,-65.093994140625,-30.1666259765625
0.6899999,1.3263877630233765,0.5315127968788147,-0.1173158809542656,-30.3802490234375,-41.50390625,-14.22119140625
0.7099999,1.6543933153152466,2.7246015071868896,-3.090914487838745,-10.9405517578125,0.8544921875,-1.312255859375
0.7299998999999999,1.98958158493042,3.9408559799194336,-4.771644115447998,3.875732421875,48.4466552734375,22.735595703125
0.7499998999999999,2.0398597717285156,4.441244125366211,-5.063736438751221,21.97265625,91.2322998046875,47.6531982421875
0.7699999,1.6879122257232666,4.043806552886963,-3.9815573692321777,8.4228515625,108.5357666015625,70.9991455078125
0.7899999,1.1516109704971313,2.607285737991333,-1.3263877630233765,6.3934326171875,127.166748046875,88.7908935546875
0.8099999,0.7230489253997803,-0.031124621629714966,2.96162748336792,28.01513671875,154.35791015625,92.95654296875
0.8299999,0.6320692300796509,-4.1156325340271,11.305420875549316,59.6466064453125,201.934814453125,98.2513427734375
0.8499998999999999,0.8834604024887085,-8.990227699279785,20.946870803833008,53.0242919921875,97.5341796875,69.15283203125
0.8699998999999999,1.1851298809051514,-12.667720794677734,27.495012283325195,-107.666015625,-237.8997802734375,-72.1435546875
0.8899999,1.4460978507995605,-14.446613311767578,29.805416107177734,-52.42919921875,-218.0023193359375,-104.43115234375
0.9099999,1.4293384552001953,-13.354857444763184,25.28277015686035,31.3262939453125,-46.142578125,-77.6519775390625
0.9299999,1.2665326595306396,-10.010157585144043,17.08262825012207,-2.1820068359375,-52.55126953125,-58.7005615234375
0.9499999,1.1444283723831177,-6.038176536560059,9.445125579833984,-25.970458984375,-73.5931396484375,-48.9349365234375
0.9699998999999999,1.2018892765045166,-2.4468741416931152,3.5865142345428467,-23.74267578125,-63.5833740234375,-30.517578125
0.9899998999999999,1.4700398445129395,0.35913026332855225,-0.4165911078453064,-7.598876953125,-26.3671875,-20.8740234375
1.0099999,1.8483237028121948,2.2888567447662354,-2.782062292098999,3.3111572265625,11.5509033203125,-8.48388671875
1.0299999,2.099714994430542,3.4332852363586426,-3.778050184249878,4.4097900390625,36.9415283203125,21.7132568359375
1.0499999,2.027888774871826,3.885789394378662,-3.5697548389434814,6.9580078125,64.63623046875,51.1322021484375
1.0699999,1.625662922859192,3.536235809326172,-2.3702597618103027,-10.1165771484375,96.1761474609375,73.0133056640625
1.0899999,1.1540051698684692,2.10210919380188,0.2585737705230713,-19.866943359375,125.518798828125,88.8214111328125
1.1099999,0.8020575642585754,-0.6584054827690125,4.520252704620361,11.199951171875,127.044677734375,96.61865234375
1.1299999,0.8930372595787048,-4.9368438720703125,12.313379287719727,34.6832275390625,132.6751708984375,94.6807861328125
1.1499999,1.237802267074585,-9.727641105651855,20.42493438720703,8.9569091796875,29.47998046875,43.182373046875
1.1699998999999999,1.6879122257232666,-13.532028198242188,25.52219009399414,-80.4443359375,-211.822509765625,-74.9969482421875
1.1899998999999999,1.9632453918457031,-14.88714599609375,26.6043701171875,-16.387939453125,-157.28759765625,-104.888916015625
1.2099999,1.889025092124939,-13.539210319519043,21.99553108215332,25.0396728515625,-45.989990234375,-71.2890625
1.2299999,1.6352397203445435,-9.945513725280762,14.870387077331543,-7.8125,-63.934326171875,-51.6510009765625
1.2499999,1.4173674583435059,-5.966350555419922,8.310274124145508,-24.5208740234375,-69.5343017578125,-42.4346923828125
1.2699999,1.434126853942871,-2.4803929328918457,3.246537446975708,-20.538330078125,-47.4853515625,-30.6396484375
1.2899999,1.6735470294952393,0.1388636976480484,-0.27054479718208313,-6.3018798828125,-14.5111083984375,-22.0489501953125
1.3099999,2.008735179901123,1.8818424940109253,-2.403778553009033,0.1373291015625,16.357421875,-7.7362060546875
1.3299999,2.188300371170044,2.9041666984558105,-3.251325845718384,2.5634765625,48.64501953125,16.2506103515625
1.3499999,2.0661959648132324,3.1866824626922607,-2.9927520751953125,3.814697265625,76.7669677734375,39.8406982421875
1.3699999,1.644816517829895,2.786850690841675,-1.9393033981323242,-27.0233154296875,97.747802734375,54.8553466796875
1.3899999,1.1180921792984009,1.2258312702178955,0.629675030708313,-72.601318359375,133.3770751953125,76.5838623046875
1.4099999,0.8571242094039917,-2.126051187515259,5.420472621917725,-37.7349853515625,150.604248046875,102.508544921875
1.4299998999999999,0.8571242094039917,-7.843404769897461,13.982137680053711,61.065673828125,140.2435302734375,80.8258056640625
1.4499999,1.2090718746185303,-12.011710166931152,20.951658248901367,52.947998046875,-60.4400634765625,-83.4503173828125
1.4699999,1.5897499322891235,-15.976508140563965,25.610774993896484,-55.9234619140625,-211.9903564453125,-105.5450439453125
1.4899999,1.800439715385437,-15.540762901306152,25.596410751342773,33.75244140625,-66.2078857421875,-84.8236083984375
1.5099999,1.7262194156646729,-12.674903869628906,20.022708892822266,-6.7291259765625,-78.9794921875,-71.990966796875
1.5299999,1.5275006294250488,-8.547300338745117,13.7666597366333,-28.4881591796875,-87.0361328125,-61.187744140625
1.5499999,1.3551181554794312,-4.352658748626709,7.757213592529297,-37.9180908203125,-72.75390625,-48.2635498046875
1.5699999,1.3862427473068237,-0.9744400978088379,3.184288263320923,-36.3006591796875,-48.8128662109375,-29.8614501953125
1.5899999,1.6184803247451782,1.4389152526855469,0.1604115068912506,-24.6124267578125,-25.115966796875,-10.894775390625
1.6099999,1.9488801956176758,2.829946517944336,-1.4484920501708984,-23.9105224609375,-6.011962890625,12.5274658203125
1.6299999,2.1954829692840576,3.450044631958008,-1.968033790588379,-12.939453125,22.3541259765625,36.6668701171875
1.6499999,2.207453966140747,3.3446998596191406,-1.7741034030914307,12.176513671875,54.9774169921875,59.600830078125
1.6699999,1.9369091987609863,2.6384103298187256,-0.9768342971801758,5.0811767578125,80.963134765625,79.8187255859375
1.6899998999999999,1.5322890281677246,1.1300631761550903,0.646434485912323,-16.1590576171875,100.2349853515625,98.358154296875
1.7099999,1.1037269830703735,-1.5610195398330688,3.708618402481079,28.6102294921875,113.9068603515625,111.4654541015625
1.7299999,1.1180921792984009,-5.477933406829834,8.863334655761719,69.427490234375,105.682373046875,96.4202880859375
1.7499999,1.4844050407409668,-10.539276123046875,16.20635223388672,23.590087890625,74.676513671875,57.281494140625
1.7699999,2.0470423698425293,-14.662091255187988,21.401769638061523,-45.5169677734375,-98.2208251953125,-49.5758056640625
1.7899999,2.5067291259765625,-16.728286743164062,24.155101776123047,-28.0914306640625,-155.6854248046875,-110.16845703125
1.8099999,2.52109432220459,-15.954959869384766,22.251710891723633,18.2952880859375,-63.7664794921875,-92.620849609375
1.8299999,2.1547815799713135,-12.492944717407227,16.809690475463867,-8.392333984375,-66.558837890625,-70.465087890625
1.8499999,1.702277421951294,-8.195352554321289,10.92953109741211,-20.8282470703125,-65.1397705078125,-59.6160888671875
1.8699999,1.4389152526855469,-4.10366153717041,5.801150798797607,-32.71484375,-50.262451171875,-46.5850830078125
1.8899999,1.479616641998291,-0.8906430602073669,2.0470423698425293,-27.3590087890625,-27.40478515625,-31.005859375
1.9099999,1.7405846118927002,1.3646949529647827,-0.33997663855552673,-14.251708984375,-5.5084228515625,-14.801025390625
1.9299998999999999,2.0470423698425293,2.7317841053009033,-1.4700398445129395,3.5552978515625,20.8740234375,9.490966796875
1.9499999,2.1739351749420166,3.406949043273926,-1.723825216293335,16.9830322265625,46.7529296875,35.6292724609375
1.9699999,2.030282974243164,3.3063924312591553,-1.1109095811843872,13.48876953125,74.0203857421875,63.3087158203125
1.9899999,1.6831238269805908,2.2457611560821533,0.28730419278144836,-15.68603515625,91.339111328125,86.5020751953125
2.0099999,1.3311761617660522,0.021547814831137657,3.1100680828094482,9.4451904296875,109.8785400390625,94.635009765625
2.0299999,1.1659762859344482,-3.529053211212158,7.206547260284424,41.6412353515625,96.61865234375,89.05029296875
2.0499999,1.3862427473068237,-8.070854187011719,12.828132629394531,25.2685546875,64.788818359375,63.1103515625
2.0699999,1.8698714971542358,-12.504915237426758,18.306066513061523,4.2266845703125,3.692626953125,6.317138671875
2.0899999,2.3271639347076416,-15.638925552368164,22.086511611938477,26.275634765625,-67.6116943359375,-62.774658203125
2.1099999,2.497152328491211,-16.328454971313477,23.003490447998047,59.4329833984375,-98.3734130859375,-94.024658203125
2.1299999,2.231395959854126,-14.470555305480957,20.60689353942871,49.957275390625,-106.50634765625,-89.111328125
2.1499999,1.6687586307525635,-10.764330863952637,15.91665267944336,-8.6517333984375,-105.6365966796875,-75.439453125
2.1699999,0.9911994934082031,-2.3798365592956543,5.2911858558654785,-27.6947021484375,-64.3463134765625,-49.6368408203125
2.1899999,1.2018892765045166,0.9145850539207458,1.0869675874710083,-8.7738037109375,-43.02978515625,-31.982421875
2.2099999,1.6855180263519287,3.3279404640197754,-1.9105730056762695,-24.993896484375,-15.838623046875,-2.8533935546875
2.2299999,2.1571757793426514,4.78122091293335,-3.7277719974517822,-39.2303466796875,20.3704833984375,31.4178466796875
2.2499999,2.3918075561523438,5.185841083526611,-4.240131378173828,-6.5765380859375,65.5059814453125,61.1572265625
2.2699999,2.2242133617401123,4.639962673187256,-3.5889084339141846,7.9498291015625,92.8802490234375,80.74951171875
2.2899999,1.7405846118927002,2.868253707885742,-1.6903064250946045,-23.223876953125,102.84423828125,105.1025390625
2.3099999,1.1540051698684692,0.023942016065120697,1.381454348564148,-18.4783935546875,118.194580078125,116.0888671875
2.3299999,0.6703764796257019,-3.8810009956359863,5.530605792999268,31.036376953125,124.4049072265625,101.0284423828125
2.3499999,0.5434837937355042,-8.451532363891602,11.314997673034668,62.744140625,115.17333984375,69.5037841796875
2.3699999,0.7972691655158997,-13.026851654052734,17.6332950592041,21.575927734375,58.4564208984375,22.3541259765625
2.3899999,1.1971008777618408,-16.23029327392578,22.73055076599121,-3.7384033203125,-52.459716796875,-46.1273193359375
2.4099999,1.5490485429763794,-17.417818069458008,25.10320472717285,-2.0294189453125,-104.4158935546875,-89.141845703125
2.4299999,1.5705963373184204,-16.012420654296875,23.57570457458496,20.416259765625,-96.3134765625,-101.806640625
2.4499999,1.3000515699386597,-12.627019882202148,18.935741424560547,6.5155029296875,-94.4671630859375,-91.6290283203125
2.4699999,0.9097966551780701,-8.252813339233398,12.957419395446777,-21.6827392578125,-84.8541259765625,-74.0509033203125
2.4899999,0.730231523513794,-3.9911341667175293,7.2137298583984375,-32.073974609375,-67.8558349609375,-60.882568359375
2.5099999,0.8523358106613159,-0.4572925269603729,2.477998733520508,-12.054443359375,-40.1458740234375,-45.8221435546875
2.5299999,1.2761094570159912,2.1787235736846924,-0.8331822156906128,0.1220703125,-12.725830078125,-24.7802734375
2.5499999,1.7693150043487549,3.931279182434082,-2.7509377002716064,-6.9732666015625,15.289306640625,7.3699951171875
2.5699999,2.094926595687866,4.812345504760742,-3.4763808250427246,-16.78466796875,43.1976318359375,41.6107177734375
2.5899999,2.1092917919158936,4.683058738708496,-2.9927520751953125,-15.716552734375,78.2623291015625,70.3887939453125
2.6099999,1.7932571172714233,3.40216064453125,-1.37906014919281,-11.077880859375,102.691650390625,88.9739990234375
2.6299999,1.2976573705673218,0.9840168952941895,1.4748282432556152,-0.4730224609375,108.367919921875,94.512939453125
2.6499999,0.8188169598579407,-2.4851813316345215,5.540182590484619,5.92041015625,100.311279296875,89.9200439453125
2.6699999,0.6248866319656372,-6.813898086547852,10.83855152130127,28.5797119140625,83.43505859375,80.62744140625
2.6899999,0.8044517636299133,-11.492168426513672,16.66364288330078,29.9530029296875,51.94091796875,39.1693115234375
2.7099999,1.158793568611145,-15.030797958374023,21.124042510986328,3.4027099609375,-42.4652099609375,-45.989990234375
2.7299999,1.501164436340332,-16.855180740356445,23.302764892578125,9.5672607421875,-90.5609130859375,-85.205078125
2.7499999,1.5418659448623657,-15.98129653930664,22.155942916870117,33.3709716796875,-88.92822265625,-90.9881591796875
2.7699999,1.2952631711959839,-13.019668579101562,18.322826385498047,19.1802978515625,-87.2344970703125,-84.3505859375
2.7899999,0.9457096457481384,-9.028534889221191,13.28063678741455,-18.6920166015625,-85.174560546875,-73.8525390625
2.8099999,0.7422025203704834,-5.056553840637207,8.425195693969727,-34.3475341796875,-70.404052734375,-64.4989013671875
2.8299999,0.8403648138046265,-1.7357962131500244,4.467580318450928,-29.1595458984375,-51.3763427734375,-52.581787109375
2.8499999,1.2401964664459229,0.7015010714530945,1.699883222579956,-26.2451171875,-34.0118408203125,-32.89794921875
2.8699999,1.8195933103561401,2.363077163696289,0.06703764945268631,-33.782958984375,-16.6778564453125,-11.322021484375
2.8899999,2.3774423599243164,3.2609026432037354,-0.6751648783683777,-18.829345703125,7.87353515625,14.16015625
2.9099999,2.734178304672241,3.627215623855591,-0.8882488012313843,19.5159912109375,33.3251953125,35.09521484375
2.9299999,2.7509377002716064,3.4811692237854004,-0.7422025203704834,41.5496826171875,57.0831298828125,56.549072265625
2.9499999,2.367865562438965,2.7700912952423096,-0.272938996553421,8.5296630859375,79.89501953125,82.4127197265625
2.9699999,1.6639702320098877,1.292868971824646,1.0295066833496094,-11.53564453125,110.29052734375,102.2491455078125
2.9899999,0.8978256583213806,-1.1444283723831177,3.5865142345428467,14.7857666015625,123.291015625,104.43115234375
3.0099999,0.31842881441116333,-4.788403511047363,7.735665798187256,46.8292236328125,103.0731201171875,93.0023193359375
3.0299999,0.19871874153614044,-9.155426979064941,13.723564147949219,50.5523681640625,71.22802734375,55.6793212890625
3.0499999,0.4836287498474121,-13.407529830932617,19.699491500854492,-12.969970703125,-2.0751953125,-0.2288818359375
3.0699999,0.8930372595787048,-16.321273803710938,23.93004608154297,-33.8134765625,-90.0421142578125,-65.9942626953125
3.0899999,1.139639973640442,-17.0203800201416,25.07926368713379,0.8544921875,-114.6392822265625,-99.273681640625
3.1099999,1.048660397529602,-15.327679634094238,22.618022918701172,14.95361328125,-110.687255859375,-102.4169921875
3.1299999,0.6823474764823914,-11.91354751586914,17.7937068939209,-5.401611328125,-107.0709228515625,-92.4835205078125
3.1499999,0.36152446269989014,-7.706935405731201,12.088324546813965,-31.7840576171875,-105.194091796875,-85.4949951171875
3.1699999,0.3232172429561615,-3.5745432376861572,6.72531270980835,-34.5458984375,-86.7462158203125,-73.150634765625
3.1899999,0.6631938815116882,0.06703764945268631,2.1092917919158936,-19.0887451171875,-62.469482421875,-53.436279296875
3.2099999,1.3455413579940796,2.9472622871398926,-1.4413094520568848,-12.1917724609375,-30.914306640625,-22.0947265625
3.2299999,2.1164743900299072,4.927267074584961,-3.823540210723877,-11.7034912109375,10.7879638671875,13.1683349609375
3.2499999,2.6886885166168213,5.9088897705078125,-4.922478675842285,3.8604736328125,52.7801513671875,43.7774658203125
3.2699999,2.8610711097717285,5.841852188110352,-4.745307922363281,23.6968994140625,84.16748046875,69.4122314453125
3.2899999,2.5258827209472656,4.728548526763916,-3.4117374420166016,7.0648193359375,101.86767578125,94.3145751953125
3.3099999,1.800439715385437,2.43011474609375,-0.7876923680305481,-20.4620361328125,124.8626708984375,114.4866943359375
3.3299999000000002,0.9481038451194763,-1.048660397529602,3.3423056602478027,-9.4451904296875,138.916015625,111.87744140625
3.3499999,0.26096799969673157,-5.722142219543457,8.777143478393555,34.7900390625,107.5592041015625,85.9375
3.3699999,0.09816227108240128,-10.819397926330566,15.344438552856445,86.48681640625,48.4619140625,35.125732421875
3.3899999,0.3998316824436188,-15.334861755371094,21.516691207885742,31.8603515625,0.640869140625,-21.270751953125
3.4099999,0.9074024558067322,-18.05467414855957,25.28277015686035,-31.219482421875,-80.0018310546875,-74.432373046875
3.4299999,1.2617442607879639,-18.17677879333496,25.82146453857422,10.833740234375,-107.84912109375,-107.7423095703125
3.4499999,1.1971008777618408,-15.727511405944824,22.768857955932617,20.782470703125,-107.5439453125,-114.07470703125
3.4699999,0.828393816947937,-11.580753326416016,17.336414337158203,-17.9443359375,-99.7161865234375,-95.184326171875
3.4899999,0.4908113479614258,-6.696582317352295,11.094730377197266,-58.7158203125,-87.9058837890625,-81.0699462890625
3.5099999,0.47405192255973816,-2.0661959648132324,5.4875102043151855,-60.3790283203125,-60.211181640625,-68.2220458984375
3.5299999,0.8619126081466675,1.7573440074920654,1.1085153818130493,-36.4532470703125,-36.956787109375,-42.8466796875
3.5499999,1.5418659448623657,4.596867084503174,-1.8315643072128296,-19.71435546875,-19.2108154296875,-7.843017578125
3.5699999,2.2409727573394775,6.311115741729736,-3.49314022064209,-6.6680908203125,11.810302734375,28.350830078125
3.5899999,2.693476915359497,6.931213855743408,-4.1180267333984375,17.63916015625,54.74853515625,58.3648681640625
3.6099999,2.7102363109588623,6.473921298980713,-3.708618402481079,34.5306396484375,88.4552001953125,86.2274169921875
3.6299999,2.209848165512085,4.946420669555664,-2.3798365592956543,9.185791015625,95.39794921875,110.7940673828125
3.6499999,1.3838485479354858,2.2361843585968018,0.12928688526153564,12.7105712890625,109.832763671875,125.1220703125
3.6699999,0.43335050344467163,-1.625662922859192,4.158728122711182,25.81787109375,128.90625,112.9913330078125
3.6899999,-0.19153612852096558,-6.835445880889893,10.029311180114746,-10.5438232421875,114.990234375,98.14453125
3.7099999,0.18914192914962769,-17.49443244934082,23.010671615600586,-38.4674072265625,-59.0057373046875,-37.7655029296875
3.7299999,0.7493851184844971,-19.98918914794922,26.032155990600586,-29.9530029296875,-107.635498046875,-106.75048828125
3.7499999,1.048660397529602,-19.033903121948242,24.67703628540039,-8.3465576171875,-100.0823974609375,-112.579345703125
3.7699999,0.9433154463768005,-15.296554565429688,19.86708641052246,-26.0467529296875,-94.6044921875,-91.73583984375
3.7899999,0.6512228846549988,-10.160991668701172,13.51766300201416,-70.1751708984375,-90.8355712890625,-81.4056396484375
3.8099999,0.569819986820221,-5.166687488555908,7.50582218170166,-90.7135009765625,-67.9168701171875,-72.906494140625
3.8299999000000002,0.8475474119186401,-1.158793568611145,2.782062292098999,-61.3861083984375,-38.1317138671875,-54.931640625
3.8499999,1.4269442558288574,1.7501614093780518,-0.3663128614425659,-37.6434326171875,-19.6075439453125,-33.599853515625
3.8699999,2.1068975925445557,3.557783842086792,-1.8962076902389526,-21.8505859375,1.6937255859375,-5.5999755859375
3.8899999,2.6192567348480225,4.4508209228515625,-2.343923568725586,-10.406494140625,23.6968994140625,28.5797119140625
3.9099999,2.8347349166870117,4.5609540939331055,-2.03507137298584,2.01416015625,46.966552734375,57.830810546875
3.9299999,2.6671407222747803,3.8786067962646484,-1.1348515748977661,17.39501953125,71.8841552734375,81.35986328125
3.9499999,2.1787235736846924,2.3295583724975586,0.31603461503982544,10.4827880859375,83.5418701171875,98.20556640625
3.9699999,1.4724340438842773,-0.047884032130241394,2.52109432220459,11.1846923828125,90.0115966796875,104.3853759765625
3.9899999,0.8020575642585754,-3.557783842086792,5.676652431488037,10.040283203125,93.56689453125,107.4676513671875
4.0099999,0.3878606855869293,-7.972691535949707,9.888052940368652,35.33935546875,80.6884765625,91.888427734375
4.029999900000001,0.3687070608139038,-13.06515884399414,15.030797958374023,49.0264892578125,52.6275634765625,43.701171875
4.0499999,0.6512228846549988,-17.144878387451172,19.309236526489258,6.6680908203125,-33.111572265625,-36.3922119140625
4.069999900000001,0.9888052940368652,-19.50077247619629,21.844696044921875,14.068603515625,-79.4677734375,-81.7413330078125
4.0899999000000005,1.113303780555725,-18.978836059570312,21.5023250579834,20.5841064453125,-85.9375,-100.311279296875
4.1099999,0.9481038451194763,-16.010026931762695,18.4257755279541,6.3323974609375,-92.4835205078125,-103.21044921875
4.1299999000000005,0.6440402865409851,-11.669339179992676,13.886369705200195,14.617919921875,-91.2933349609375,-95.27587890625
4.1499999,0.47405192255973816,-7.0317702293396,9.150638580322266,26.702880859375,-76.1566162109375,-84.564208984375
4.1699999000000005,0.6416460275650024,-2.8634653091430664,4.982333660125732,17.242431640625,-67.138671875,-72.4029541015625
4.1899999,1.1444283723831177,0.49559974670410156,1.5083470344543457,12.6953125,-61.6607666015625,-54.534912109375
4.209999900000001,1.8531121015548706,2.959233283996582,-0.8810662031173706,44.189453125,-22.7508544921875,-26.336669921875
4.2299999,2.497152328491211,4.618414878845215,-2.6360161304473877,58.0902099609375,19.4854736328125,4.0130615234375
4.249999900000001,2.8658595085144043,5.406107425689697,-3.450044631958008,65.4754638671875,53.0242919921875,34.7442626953125
4.2699999,2.8179752826690674,5.3797712326049805,-3.428496837615967,66.314697265625,83.9385986328125,63.385009765625
4.289999900000001,2.3032219409942627,4.381389141082764,-2.451662540435791,21.8048095703125,107.7423095703125,87.2344970703125
4.3099999,1.4987702369689941,2.0661959648132324,-0.016759412363171577,-15.045166015625,143.035888671875,107.4371337890625
4.329999900000001,0.6536170840263367,-1.335964560508728,4.2329487800598145,7.720947265625,159.6221923828125,97.9156494140625
4.3499999,0.09816227108240128,-5.805939197540283,9.876082420349121,11.23046875,112.24365234375,70.159912109375
4.369999900000001,0.035913024097681046,-10.584765434265137,16.69476890563965,3.6773681640625,46.3714599609375,36.80419921875
4.3899999,0.3663128614425659,-14.446613311767578,22.273258209228516,-13.946533203125,-17.578125,-17.15087890625
4.409999900000001,0.8307880163192749,-16.53675079345703,25.170242309570312,6.622314453125,-86.5020751953125,-66.22314453125
4.4299999,1.1109095811843872,-16.16325569152832,24.67224884033203,42.816162109375,-101.806640625,-83.8775634765625
4.449999900000001,1.0797849893569946,-13.632584571838379,21.001937866210938,30.57861328125,-100.52490234375,-81.4208984375
4.4699999,0.8619126081466675,-9.794678688049316,15.562311172485352,1.708984375,-98.57177734375,-70.9075927734375
4.489999900000001,0.7254431247711182,-5.74129581451416,9.998186111450195,-4.364013671875,-82.9010009765625,-63.6138916015625
4.5099999,0.8547300100326538,-2.229001760482788,5.264849662780762,3.631591796875,-61.6455078125,-53.77197265625
4.529999900000001,1.2761094570159912,0.4118026793003082,1.7741034030914307,-0.6103515625,-47.8363037109375,-39.459228515625
4.5499999,1.8555063009262085,2.31758713722229,-0.5937620401382446,-10.8795166015625,-32.989501953125,-25.7568359375
4.569999900000001,2.382230758666992,3.620033025741577,-2.0925323963165283,1.15966796875,0.7476806640625,-4.180908203125
4.5899999000000005,2.6839001178741455,4.378994941711426,-2.980781078338623,20.0042724609375,46.1273193359375,32.2723388671875
4.609999900000001,2.6360161304473877,4.529829502105713,-3.0550012588500977,4.6539306640625,84.259033203125,64.2547607421875
4.6299999000000005,2.140416383743286,3.950432777404785,-2.3080103397369385,-45.1812744140625,100.89111328125,83.8775634765625
4.6499999,1.3910311460494995,2.078166961669922,-0.028730420395731926,-23.529052734375,124.8016357421875,102.325439453125
4.6699999000000005,0.5841852426528931,-0.7326257228851318,3.579331636428833,33.63037109375,137.4053955078125,94.6807861328125
4.6899999,0.004788403399288654,-4.709394931793213,8.939949035644531,2.9296875,120.5291748046875,79.04052734375
4.709999900000001,-0.05746084079146385,-9.433155059814453,15.990873336791992,-14.95361328125,89.447021484375,60.1654052734375
4.7299999,0.22505496442317963,-13.342885971069336,22.072145462036133,-14.1448974609375,-26.519775390625,-3.35693359375
4.749999900000001,0.6823474764823914,-15.813702583312988,25.536556243896484,31.2347412109375,-120.9259033203125,-66.8792724609375
4.7699999,0.9864110946655273,-15.76821231842041,25.21333885192871,37.9180908203125,-99.1058349609375,-77.392578125
4.789999900000001,1.0414776802062988,-13.445837020874023,21.01151466369629,10.19287109375,-82.305908203125,-73.516845703125
4.8099999,0.9313444495201111,-9.828198432922363,15.227123260498047,-9.796142578125,-81.9244384765625,-66.375732421875
4.829999900000001,0.8475474119186401,-6.057330131530762,9.77791976928711,-18.8751220703125,-76.4617919921875,-59.26513671875
4.8499999,0.9576807022094727,-2.87064790725708,5.51624059677124,-15.7318115234375,-60.8062744140625,-50.0640869140625
4.869999900000001,1.2832920551300049,-0.5051765441894531,2.6192567348480225,-10.1318359375,-43.4722900390625,-40.22216796875
4.8899999,1.7573440074920654,1.05105459690094,0.8690952062606812,-5.9051513671875,-24.566650390625,-23.62060546875
4.909999900000001,2.2170307636260986,2.1045033931732178,-0.10055647045373917,1.800537109375,1.46484375,-4.0435791015625
4.9299999,2.564189910888672,2.738966703414917,-0.5961562395095825,6.7596435546875,31.005859375,19.7601318359375
4.949999900000001,2.655169725418091,3.177105665206909,-0.727837324142456,-0.7781982421875,59.600830078125,43.9605712890625
4.9699999,2.456450939178467,3.141192674636841,-0.45010992884635925,-19.0277099609375,82.03125,71.197509765625
4.989999900000001,1.9273324012756348,2.4803929328918457,0.5219359993934631,-16.998291015625,100.6622314453125,92.1630859375
5.0099999,1.1875240802764893,0.8068459630012512,2.580949544906616,-18.218994140625,113.09814453125,98.4039306640625
5.029999900000001,0.4812345504760742,-1.9273324012756348,6.100425720214844,-8.30078125,117.034912109375,94.2840576171875
5.0499999,-0.009576806798577309,-5.628767967224121,10.788272857666016,26.6265869140625,82.275390625,78.79638671875
5.069999900000001,-0.08140286058187485,-9.799467086791992,16.3883113861084,37.3687744140625,42.938232421875,43.4417724609375
5.0899999000000005,0.16998831927776337,-13.184868812561035,20.78645896911621,-21.2249755859375,-29.8919677734375,-13.519287109375
5.109999900000001,0.524330198764801,-15.24627685546875,22.996307373046875,-25.0396728515625,-82.94677734375,-54.9163818359375
5.1299999000000005,0.7709329724311829,-15.054739952087402,22.098482131958008,5.4473876953125,-94.9554443359375,-76.96533203125
5.1499999,0.8092401623725891,-12.938265800476074,18.567033767700195,28.1982421875,-85.8154296875,-79.58984375
5.1699999000000005,0.7182605266571045,-9.548076629638672,13.649343490600586,14.09912109375,-76.5533447265625,-71.2890625
5.1899999,0.7015010714530945,-5.758055210113525,8.765172004699707,-6.8511962890625,-64.0106201171875,-60.11962890625
5.209999900000001,0.8810662031173706,-2.2649147510528564,4.644751071929932,-21.9268798828125,-51.4373779296875,-46.7987060546875
5.2299999,1.2473790645599365,0.6512228846549988,1.6112977266311646,-14.0533447265625,-29.510498046875,-29.60205078125
5.249999900000001,2.0159177780151367,4.405331134796143,-1.3934253454208374,22.186279296875,27.2674560546875,30.1361083984375
5.2699999,2.094926595687866,5.015852451324463,-1.7118542194366455,25.81787109375,52.4444580078125,61.6455078125
5.289999900000001,1.843535304069519,4.347870349884033,-1.0749965906143188,9.765625,87.1429443359375,83.9385986328125
5.3099999,1.3646949529647827,2.099714994430542,0.9744400978088379,-41.4581298828125,115.29541015625,93.07861328125
5.329999900000001,0.8786720037460327,-1.6879122257232666,4.788403511047363,-9.4146728515625,117.431640625,80.291748046875
5.3499999,0.524330198764801,-6.48828649520874,9.605537414550781,63.934326171875,68.6492919921875,41.9158935546875
5.369999900000001,0.5147533416748047,-11.374852180480957,15.12417221069336,55.9844970703125,35.0189208984375,-3.3416748046875
5.3899999,0.6799532771110535,-15.325284957885742,19.103334426879883,-13.275146484375,-3.9520263671875,-44.8760986328125
5.409999900000001,0.8403648138046265,-17.489643096923828,20.623653411865234,9.3994140625,-49.8504638671875,-89.447021484375
5.4299999,0.8068459630012512,-17.51119041442871,19.254169464111328,44.6929931640625,-59.3719482421875,-123.6419677734375
5.449999900000001,0.5386953949928284,-15.368380546569824,15.425841331481934,14.1143798828125,-40.0543212890625,-141.7388916015625
5.4699999,0.2106897532939911,-11.882423400878906,10.522516250610352,-4.730224609375,-13.1683349609375,-136.16943359375
5.489999900000001,-0.011971008032560349,-7.4770917892456055,6.100425720214844,-1.861572265625,6.9427490234375,-130.4779052734375
5.5099999,0.011971008032560349,-2.8443117141723633,3.3518824577331543,15.411376953125,22.9034423828125,-123.96240234375
5.529999900000001,0.2849099934101105,1.623268723487854,2.3965959548950195,30.6396484375,23.651123046875,-92.6513671875
5.5499999,0.6200982332229614,5.999869346618652,3.134010076522827,31.25,21.17919921875,-49.0570068359375
5.569999900000001,0.8355764150619507,10.070012092590332,5.066130638122559,12.176513671875,22.0947265625,1.6632080078125
5.5899999000000005,0.811634361743927,13.041216850280762,7.400477409362793,-37.53662109375,2.655029296875,78.4759521484375
5.609999900000001,0.45010992884635925,14.319720268249512,9.892841339111328,-70.2056884765625,-19.256591796875,145.2484130859375
5.6299999000000005,-0.14844051003456116,13.239935874938965,12.073959350585938,-53.40576171875,-33.9202880859375,177.032470703125
5.6499999,-0.7996633648872375,9.983820915222168,13.735535621643066,-13.2904052734375,-47.332763671875,180.0994873046875
5.6699999000000005,-1.4173674583435059,5.525817394256592,14.516044616699219,11.138916015625,-68.7255859375,174.896240234375
5.6899999,-1.8291701078414917,0.7374141216278076,14.288596153259277,16.5557861328125,-83.43505859375,185.0128173828125
5.709999900000001,-1.9728221893310547,-3.84269380569458,12.988544464111328,-19.378662109375,-82.061767578125,190.12451171875
5.7299999,-1.7764976024627686,-8.214506149291992,10.675745010375977,-70.1751708984375,-75.0579833984375,167.022705078125
5.749999900000001,-1.2042834758758545,-12.473791122436523,7.965508937835693,-49.4842529296875,-53.3905029296875,118.2403564453125
5.7699999,-0.3447650372982025,-16.21592903137207,5.288791656494141,3.35693359375,-23.8494873046875,58.8836669921875
5.789999900000001,0.6177040338516235,-19.041086196899414,3.160346269607544,16.8609619140625,-3.936767578125,9.21630859375
5.8099999,1.414973258972168,-20.55182647705078,1.7166426181793213,12.8173828125,9.82666015625,-32.1807861328125
5.829999900000001,1.845929503440857,-20.65238380432129,1.1180921792984009,15.1824951171875,31.55517578125,-75.2105712890625
5.8499999,1.8052281141281128,-19.5582332611084,1.2473790645599365,27.923583984375,56.3507080078125,-115.6463623046875
5.869999900000001,1.3024457693099976,-17.19036865234375,2.097320795059204,48.797607421875,70.8465576171875,-149.2919921875
5.8899999,0.5219359993934631,-13.991714477539062,3.4955344200134277,51.6510009765625,74.3560791015625,-160.064697265625
5.909999900000001,-0.33039984107017517,-10.192116737365723,5.0876784324646,36.0260009765625,70.648193359375,-158.2183837890625
5.9299999,-1.05105459690094,-5.896918773651123,6.967126846313477,32.928466796875,79.9102783203125,-163.26904296875
5.949999900000001,-1.357512354850769,-1.5921441316604614,8.882488250732422,37.65869140625,74.4476318359375,-145.5535888671875
5.9699999,-1.2473790645599365,2.8443117141723633,10.876858711242676,24.0478515625,48.187255859375,-108.1085205078125
5.989999900000001,-0.8044517636299133,7.240066051483154,13.048398971557617,-7.6904296875,28.1982421875,-63.78173828125
6.0099999,-0.27054479718208313,10.893617630004883,15.064316749572754,-41.839599609375,2.5482177734375,-0.091552734375
6.029999900000001,0.08140286058187485,13.134590148925781,16.625335693359375,-48.492431640625,-34.1339111328125,61.0198974609375
6.0499999,0.1412578970193863,13.385981559753418,17.348384857177734,-33.721923828125,-65.460205078125,96.710205078125
6.069999900000001,-0.028730420395731926,11.678915977478027,17.099388122558594,-20.4620361328125,-78.5980224609375,113.433837890625
6.0899999000000005,-0.33039984107017517,8.451532363891602,15.792154312133789,-25.7110595703125,-86.9293212890625,128.204345703125
6.109999900000001,-0.6129156351089478,4.54419469833374,13.91510009765625,-13.0462646484375,-95.733642578125,142.15087890625
6.1299999000000005,-0.8355764150619507,0.6153098344802856,11.73398208618164,0.3814697265625,-101.837158203125,146.0723876953125
6.149999900000001,-0.9169792532920837,-3.1459810733795166,9.476250648498535,1.4190673828125,-104.9957275390625,144.3939208984375
6.1699999000000005,-0.8259995579719543,-6.584054470062256,7.151480674743652,-7.5531005859375,-98.14453125,134.735107421875
6.1899999,-0.48602294921875,-9.832986831665039,4.8722004890441895,-27.9693603515625,-76.84326171875,115.0665283203125
6.209999900000001,0.090979665517807,-12.816162109375,2.7676970958709717,-40.802001953125,-49.163818359375,79.864501953125
6.2299999,0.8355764150619507,-15.358803749084473,1.1875240802764893,-25.20751953125,-19.1650390625,34.1949462890625
6.249999900000001,1.6160861253738403,-17.30768394470215,0.27054479718208313,-1.40380859375,5.8135986328125,-8.4075927734375
6.2699999,2.205059766769409,-18.34437370300293,0.05027823522686958,8.3160400390625,28.6407470703125,-48.88916015625
6.289999900000001,2.425326347351074,-18.442535400390625,0.5003881454467773,10.101318359375,53.985595703125,-88.19580078125
6.3099999,2.190694570541382,-17.573440551757812,1.3982137441635132,13.12255859375,72.021484375,-121.490478515625
6.329999900000001,1.5466543436050415,-15.729905128479004,2.6384103298187256,16.815185546875,81.695556640625,-147.979736328125
6.3499999,0.6775590777397156,-13.096282958984375,4.0294413566589355,18.4326171875,89.141845703125,-161.5447998046875
6.369999900000001,-0.21787235140800476,-9.974244117736816,5.439626216888428,7.6904296875,95.21484375,-162.65869140625
6.3899999,-0.933738648891449,-6.179434776306152,7.141903877258301,8.2244873046875,105.743408203125,-167.3431396484375
6.409999900000001,-1.2425906658172607,-2.2816741466522217,9.02135181427002,26.1993408203125,94.42138671875,-146.9879150390625
6.4299999,-1.1444283723831177,2.0638017654418945,11.202469825744629,23.101806640625,63.934326171875,-111.02294921875
6.449999900000001,-0.689530074596405,6.4834980964660645,13.814543724060059,2.410888671875,48.0194091796875,-69.183349609375
6.4699999,-0.08140286058187485,10.127472877502441,16.019603729248047,-35.09521484375,4.1961669921875,0.6561279296875
6.489999900000001,0.38067805767059326,12.437877655029297,17.69075584411621,-56.5185546875,-40.557861328125,57.4493408203125
6.5099999,0.5841852426528931,12.689269065856934,18.215085983276367,-54.6722412109375,-64.9566650390625,88.7298583984375
6.529999900000001,0.524330198764801,11.02051067352295,17.539920806884766,-40.740966796875,-79.254150390625,106.4910888671875
6.5499999,0.272938996553421,8.001421928405762,15.966931343078613,-20.56884765625,-87.6922607421875,120.8648681640625
6.569999900000001,-0.05985504388809204,4.410119533538818,13.960590362548828,-5.3558349609375,-100.6317138671875,139.2822265625
6.5899999000000005,-0.40222588181495667,0.6512228846549988,11.796232223510742,5.5999755859375,-112.152099609375,153.3660888671875
6.609999900000001,-0.6607996821403503,-3.028665065765381,9.5408935546875,-0.5340576171875,-114.837646484375,151.6265869140625
6.6299999000000005,-0.7086837291717529,-6.715735912322998,7.146692276000977,-15.2740478515625,-103.4088134765625,139.5721435546875
6.649999900000001,-0.4572925269603729,-10.283096313476562,4.69024133682251,-17.425537109375,-79.8492431640625,113.739013671875
6.6699999000000005,0.12449848651885986,-13.589488983154297,2.346317768096924,-18.6920166015625,-52.18505859375,75.408935546875
6.6899999,0.9241618514060974,-16.3883113861084,0.4405331015586853,-12.8173828125,-21.331787109375,31.890869140625
6.709999900000001,1.742978811264038,-18.418594360351562,-0.849941611289978,-0.9307861328125,10.101318359375,-14.5263671875
6.7299999,2.3582887649536133,-19.42894744873047,-1.3287819623947144,11.04736328125,41.68701171875,-59.906005859375
6.749999900000001,2.5713725090026855,-19.25656509399414,-0.9840168952941895,16.4947509765625,67.87109375,-102.508544921875
6.7699999,1.659181833267212,-15.442601203918457,1.7980455160140991,31.646728515625,93.75,-150.45166015625
6.789999900000001,0.7757213711738586,-12.368446350097656,3.667917013168335,32.1044921875,95.1385498046875,-157.89794921875
6.8099999,-0.12210428714752197,-8.841787338256836,5.612008571624756,18.2342529296875,102.783203125,-166.19873046875
6.829999900000001,-0.8164227604866028,-5.125985622406006,7.661445617675781,4.7454833984375,108.94775390625,-162.7349853515625
6.8499999,-1.1468225717544556,-1.2761094570159912,9.672574996948242,-6.2103271484375,91.6290283203125,-136.810302734375
6.869999900000001,-1.0773907899856567,2.6384103298187256,12.009315490722656,-0.48828125,76.263427734375,-102.11181640625
6.8899999,-0.6560112833976746,6.380547523498535,14.381969451904297,-12.8173828125,53.22265625,-58.5784912109375
6.909999900000001,-0.05746084079146385,9.275136947631836,16.543933868408203,-34.8968505859375,8.6517333984375,-1.9073486328125
6.9299999,0.5027823448181152,11.001357078552246,18.035520553588867,-37.2161865234375,-33.99658203125,44.0673828125
6.949999900000001,0.8619126081466675,11.238382339477539,18.60773468017578,-24.200439453125,-60.97412109375,75.103759765625
6.9699999,0.9193734526634216,10.055646896362305,18.030733108520508,-22.5982666015625,-85.205078125,103.9581298828125
6.989999900000001,0.6847416758537292,7.795520782470703,16.496049880981445,-30.1361083984375,-108.123779296875,133.6669921875
7.0099999,0.21787235140800476,4.845864295959473,14.460978507995605,-7.537841796875,-117.0501708984375,153.594970703125
7.029999900000001,-0.3926490843296051,1.5538369417190552,12.181697845458984,31.6314697265625,-119.781494140625,162.506103515625
7.0499999,-0.9193734526634216,-1.9728221893310547,9.734824180603027,28.9306640625,-128.5858154296875,168.426513671875
7.069999900000001,-1.2210428714752197,-5.518634796142578,7.254431247711182,3.72314453125,-117.5384521484375,161.9720458984375
7.0899999000000005,-1.1420341730117798,-9.062053680419922,4.776432514190674,-7.7056884765625,-88.3331298828125,137.603759765625
7.109999900000001,-0.629675030708313,-12.433089256286621,2.360682964324951,-5.4779052734375,-58.04443359375,102.3712158203125
7.1299999000000005,0.22026655077934265,-15.46175479888916,0.4189853072166443,-7.080078125,-25.299072265625,62.1337890625
7.149999900000001,1.1994950771331787,-17.834407806396484,-0.8858546018600464,-11.199951171875,8.331298828125,16.021728515625
7.1699999000000005,2.075772762298584,-19.282899856567383,-1.3670891523361206,0.0152587890625,35.2630615234375,-31.1279296875
7.1899999,2.604891538619995,-19.596540451049805,-1.091755986213684,22.5372314453125,55.6640625,-75.225830078125
7.209999900000001,2.6647465229034424,-18.758569717407227,-0.14365209639072418,38.51318359375,73.2879638671875,-109.2987060546875
7.2299999,2.233790159225464,-16.852785110473633,1.256955862045288,39.459228515625,88.1805419921875,-133.5906982421875
7.249999900000001,1.414973258972168,-14.111424446105957,2.964021682739258,36.529541015625,96.649169921875,-150.604248046875
7.2699999,0.4596867263317108,-10.821791648864746,4.910507678985596,43.304443359375,99.884033203125,-158.935546875
7.289999900000001,-0.3711012601852417,-7.242460250854492,6.926425457000732,45.41015625,94.6197509765625,-155.0750732421875
7.3099999,-0.8643068075180054,-3.5170822143554688,9.014169692993164,33.203125,85.9375,-145.4620361328125
7.329999900000001,-0.9074024558067322,0.2585737705230713,11.092336654663086,12.298583984375,73.05908203125,-125.1373291015625
7.3499999,-0.5578489899635315,3.9480385780334473,13.163320541381836,-9.5367431640625,51.7730712890625,-88.1195068359375
7.369999900000001,0.031124621629714966,7.268796443939209,15.200786590576172,-0.5645751953125,25.5889892578125,-38.848876953125
7.3899999,0.6512228846549988,9.780313491821289,16.63970184326172,-8.6212158203125,-15.8843994140625,8.636474609375
7.409999900000001,1.1204863786697388,11.08754825592041,17.424999237060547,-28.961181640625,-39.947509765625,50.0640869140625
7.4299999,1.3335703611373901,10.955866813659668,17.211915969848633,-37.3992919921875,-55.511474609375,83.3892822265625
7.449999900000001,1.2425906658172607,9.526528358459473,16.144102096557617,-31.402587890625,-75.1190185546875,110.53466796875
7.4699999,0.8906430602073669,7.0341644287109375,14.5591402053833,-14.9383544921875,-89.35546875,131.1492919921875
7.489999900000001,0.38546648621559143,3.936067581176758,12.634202003479004,-9.4451904296875,-98.9532470703125,145.3704833984375
7.5099999,-0.15801730751991272,0.5315127968788147,10.560823440551758,-17.608642578125,-101.1505126953125,152.5115966796875
7.529999900000001,-0.5434837937355042,-2.9759926795959473,8.42040729522705,-24.8260498046875,-98.4039306640625,153.9764404296875
7.5499999,-0.6536170840263367,-6.4380083084106445,6.248866558074951,-23.92578125,-89.78271484375,143.280029296875
7.569999900000001,-0.42377370595932007,-9.763554573059082,4.14915132522583,-24.9176025390625,-70.953369140625,117.12646484375
7.5899999000000005,0.1628057211637497,-12.957419395446777,2.190694570541382,-25.543212890625,-46.112060546875,85.5255126953125
7.609999900000001,0.9600749015808105,-15.696386337280273,0.6105214357376099,-20.965576171875,-16.754150390625,43.975830078125
7.6299999000000005,1.800439715385437,-17.820043563842773,-0.3902548849582672,-6.7291259765625,14.8468017578125,-3.23486328125
7.649999900000001,2.4660277366638184,-18.916587829589844,-0.667982280254364,5.5999755859375,39.5660400390625,-48.40087890625
7.6699999000000005,2.762908697128296,-18.95968246459961,-0.22026655077934265,13.824462890625,58.04443359375,-82.305908203125
7.6899999,2.58813214302063,-17.91820526123047,0.730231523513794,22.94921875,70.4193115234375,-109.43603515625
7.709999900000001,1.9800047874450684,-16.05312156677246,1.9943699836730957,38.1317138671875,83.9691162109375,-136.077880859375
7.7299999,1.0678139925003052,-13.584700584411621,3.315969467163086,45.10498046875,94.66552734375,-157.2723388671875
7.749999900000001,0.0694318488240242,-10.737994194030762,4.7189717292785645,45.0439453125,104.00390625,-167.388916015625
7.7699999,-0.7589619159698486,-7.6566572189331055,6.22731876373291,44.25048828125,106.3232421875,-166.3970947265625
7.789999900000001,-1.2497732639312744,-4.228160381317139,8.04930591583252,56.7474365234375,98.846435546875,-163.87939453125
7.8099999,-1.2952631711959839,-0.10773907601833344,10.29746150970459,69.854736328125,84.9151611328125,-151.214599609375
7.829999900000001,-0.9074024558067322,4.402936935424805,12.911930084228516,48.248291015625,57.9986572265625,-99.12109375
7.8499999,-0.27054479718208313,8.772355079650879,15.289372444152832,6.28662109375,14.3585205078125,-26.91650390625
7.869999900000001,0.38067805767059326,12.136208534240723,17.07305145263672,-23.0560302734375,-17.974853515625,23.1475830078125
7.8899999,0.8595184087753296,13.563152313232422,17.700332641601562,-32.0281982421875,-35.888671875,60.546875
7.909999900000001,1.05105459690094,12.950237274169922,17.185579299926758,-29.2205810546875,-55.6640625,94.7723388671875
7.9299999,0.9433154463768005,10.824186325073242,15.794548988342285,-19.0277099609375,-72.2503662109375,119.415283203125
7.949999900000001,0.6584054827690125,7.589619159698486,13.826515197753906,-29.72412109375,-86.0748291015625,144.256591796875
7.9699999,0.28730419278144836,3.9025487899780273,11.75553035736084,-40.313720703125,-87.0513916015625,156.6925048828125
7.989999900000001,-0.10055647045373917,-0.004788403399288654,9.780313491821289,-44.9066162109375,-84.716796875,157.8369140625
8.0099999,-0.3926490843296051,-3.8594532012939453,7.975085735321045,-34.0576171875,-89.5233154296875,151.9622802734375
8.0299999,-0.47165772318840027,-7.5632829666137695,6.303933143615723,-26.7791748046875,-86.6546630859375,136.71875
8.049999900000001,-0.23702596127986908,-10.90798282623291,4.477157115936279,-33.7066650390625,-69.88525390625,109.893798828125
8.069999900000001,0.33997663855552673,-13.67807388305664,2.6815059185028076,-28.4423828125,-37.0025634765625,72.08251953125
8.0899999,1.1540051698684692,-15.717934608459473,1.1085153818130493,-15.380859375,-3.9825439453125,34.8358154296875
8.1099999,1.9800047874450684,-16.907852172851562,0.13407529890537262,-5.3863525390625,18.463134765625,-0.4119873046875
8.129999900000001,2.580949544906616,-17.24543571472168,0.05267243832349777,6.2103271484375,40.1153564453125,-36.865234375
8.149999900000001,2.801215887069702,-16.82884407043457,0.7445967197418213,18.98193359375,55.267333984375,-69.244384765625
8.1699999,2.612074136734009,-15.780183792114258,2.0231003761291504,30.0445556640625,64.117431640625,-95.5047607421875
8.1899999,2.1045033931732178,-14.121001243591309,3.6152446269989014,37.8570556640625,71.2738037109375,-117.6300048828125
8.2099999,1.4508862495422363,-11.956643104553223,5.284003257751465,41.3055419921875,76.4007568359375,-132.5836181640625
8.229999900000001,0.8236053586006165,-9.320627212524414,6.866570472717285,32.4249267578125,74.0203857421875,-137.847900390625
8.2499999,0.363918662071228,-6.423643112182617,8.29830265045166,23.98681640625,68.115234375,-130.79833984375
8.2699999,0.1388636976480484,-3.3925838470458984,9.588777542114258,17.76123046875,60.3179931640625,-120.269775390625
8.2899999,0.16759411990642548,-0.31124621629714966,10.795455932617188,13.6260986328125,51.239013671875,-102.142333984375
8.309999900000001,0.8140285611152649,5.509057998657227,13.390769958496094,-13.3056640625,13.885498046875,-28.8543701171875
8.3299999,1.259350061416626,7.642292022705078,14.494497299194336,-25.787353515625,-14.862060546875,14.9993896484375
8.3499999,1.6184803247451782,8.69334602355957,15.097835540771484,-33.050537109375,-35.2325439453125,46.7071533203125
8.3699999,1.778891921043396,8.470685958862305,15.002067565917969,-28.564453125,-47.54638671875,71.0601806640625
8.389999900000001,1.699883222579956,7.048529624938965,14.16409683227539,-19.1802978515625,-59.3414306640625,93.20068359375
8.4099999,1.4245500564575195,4.747702121734619,12.780248641967773,-15.2435302734375,-69.51904296875,110.0006103515625
8.4299999,1.091755986213684,1.8363527059555054,11.05642318725586,-19.775390625,-71.77734375,119.2779541015625
8.4499999,0.8068459630012512,-1.3479355573654175,9.23682975769043,-26.91650390625,-67.3370361328125,119.3695068359375
8.469999900000001,0.6799532771110535,-4.60165548324585,7.4986395835876465,-22.5677490234375,-62.3016357421875,112.2589111328125
8.4899999,0.7733271718025208,-7.675810813903809,5.944802761077881,-19.7601318359375,-56.6864013671875,97.71728515625
8.5099999,1.0821791887283325,-10.436325073242188,4.6255974769592285,-18.2952880859375,-44.0521240234375,75.7598876953125
8.5299999,1.5442601442337036,-12.703634262084961,3.5003228187561035,-11.0321044921875,-25.81787109375,46.539306640625
8.549999900000001,2.054224967956543,-14.415488243103027,2.585737943649292,-3.96728515625,-7.0953369140625,15.8233642578125
8.569999900000001,2.473210334777832,-15.425841331481934,2.0015525817871094,4.2724609375,14.5263671875,-15.7318115234375
8.5899999,2.695871114730835,-15.7107515335083,1.7980455160140991,13.7481689453125,34.66796875,-46.112060546875
8.6099999,2.676717519760132,-15.344438552856445,1.9800047874450684,18.3563232421875,48.553466796875,-71.1212158203125
8.629999900000001,2.3965959548950195,-14.393940925598145,2.5306711196899414,25.054931640625,61.1419677734375,-93.7957763671875
8.649999900000001,1.8914192914962769,-12.993332862854004,3.3063924312591553,23.529052734375,72.0062255859375,-114.1204833984375
8.6699999,1.2617442607879639,-11.252747535705566,4.371812343597412,24.3988037109375,82.5958251953125,-127.349853515625
8.6899999,0.6344634294509888,-9.342175483703613,5.638344764709473,37.4755859375,81.4208984375,-133.3770751953125
8.709999900000001,0.13407529890537262,-7.0341644287109375,7.177816867828369,56.6253662109375,71.0601806640625,-139.9688720703125
8.729999900000001,-0.14365209639072418,-4.07014274597168,9.126696586608887,66.253662109375,61.2640380859375,-139.4500732421875
8.7499999,-0.08858546614646912,-0.272938996553421,11.365275382995605,50.537109375,39.7491455078125,-104.888916015625
8.7699999,0.26096799969673157,3.869029998779297,13.661314964294434,9.4757080078125,1.190185546875,-43.15185546875
8.7899999,0.7852981686592102,7.7883381843566895,15.653290748596191,-18.0206298828125,-29.2205810546875,9.3536376953125
8.809999900000001,1.3551181554794312,10.08198356628418,16.58463478088379,-33.5693359375,-56.6864013671875,49.8046875
8.8299999,1.7956513166427612,10.608707427978516,16.385915756225586,-31.585693359375,-65.6280517578125,68.084716796875
8.8499999,2.006340980529785,9.57441234588623,15.188815116882324,-12.63427734375,-61.5997314453125,76.4312744140625
8.8699999,2.032677173614502,7.4986395835876465,13.314155578613281,-1.8463134765625,-70.61767578125,99.2889404296875
8.889999900000001,1.8986018896102905,5.066130638122559,11.293449401855469,-6.34765625,-76.84326171875,124.298095703125
8.9099999,1.6543933153152466,2.3535003662109375,9.428366661071777,-19.6075439453125,-68.511962890625,138.0157470703125
8.9299999,1.3192051649093628,-0.5913678407669067,7.881711959838867,-21.8505859375,-58.197021484375,139.434814453125
8.9499999,0.9672574996948242,-3.8163576126098633,6.696582317352295,-18.3563232421875,-57.159423828125,134.002685546875
8.969999900000001,0.706289529800415,-7.271190643310547,5.738901615142822,-22.0947265625,-57.9833984375,122.802734375
8.9899999,0.6751648783683777,-10.771512985229492,4.766855716705322,-32.5775146484375,-47.9278564453125,97.0001220703125
9.0099999,0.9457096457481384,-14.053963661193848,3.6511576175689697,-32.928466796875,-26.7333984375,56.4117431640625
9.0299999,1.4413094520568848,-16.711528778076172,2.494758129119873,-15.106201171875,-0.8697509765625,10.7574462890625
9.049999900000001,1.9847931861877441,-18.337190628051758,1.5394717454910278,1.953125,22.7508544921875,-32.4554443359375
9.069999900000001,2.3535003662109375,-18.696321487426758,0.9983820915222168,14.1754150390625,43.7774658203125,-69.2291259765625
9.0899999,2.408566951751709,-17.74821662902832,1.0247182846069336,22.216796875,60.5621337890625,-98.5870361328125
9.1099999,2.1380221843719482,-15.744270324707031,1.702277421951294,36.7889404296875,73.54736328125,-117.5079345703125
9.129999900000001,1.623268723487854,-13.062764167785645,2.829946517944336,55.5572509765625,76.4923095703125,-128.5247802734375
9.149999900000001,1.0558429956436157,-10.093954086303711,4.288015365600586,59.417724609375,76.8890380859375,-136.627197265625
9.1699999,0.5482721924781799,-6.907271862030029,6.038176536560059,57.0526123046875,84.7015380859375,-145.3704833984375
9.1899999,0.26815059781074524,-3.6822822093963623,7.881711959838867,50.994873046875,78.79638671875,-136.8865966796875
9.209999900000001,0.2801215946674347,-0.21787235140800476,9.945513725280762,37.872314453125,62.408447265625,-113.037109375
9.229999900000001,0.5626373887062073,3.2537200450897217,12.083536148071289,19.10400390625,42.938232421875,-76.4923095703125
9.2499999,1.0558429956436157,6.303933143615723,13.941436767578125,-3.47900390625,16.510009765625,-31.768798828125
9.2699999,1.577778935432434,8.544905662536621,15.298949241638184,-25.9552001953125,-6.2103271484375,7.75146484375
9.2899999,1.9632453918457031,9.59835433959961,15.935806274414062,-43.670654296875,-22.979736328125,40.6494140625
9.309999900000001,2.1116859912872314,9.454702377319336,15.887922286987305,-45.7916259765625,-40.496826171875,68.66455078125
9.3299999,2.006340980529785,8.305485725402832,15.205574989318848,-32.3333740234375,-59.5703125,92.5445556640625
9.3499999,1.745373010635376,6.368576526641846,13.994109153747559,-20.3857421875,-76.873779296875,114.6697998046875
9.3699999,1.3646949529647827,4.072536945343018,12.445060729980469,-21.5301513671875,-80.169677734375,127.7923583984375
9.389999900000001,0.9289502501487732,1.53707754611969,10.742782592773438,-29.571533203125,-77.7740478515625,138.2293701171875
9.4099999,0.49320554733276367,-1.0869675874710083,9.02135181427002,-35.2630615234375,-81.4056396484375,145.965576171875
9.4299999,0.1412578970193863,-3.8139634132385254,7.386112213134766,-32.2113037109375,-81.4666748046875,143.829345703125
9.4499999,0.002394201699644327,-6.775590896606445,5.813121795654297,-31.92138671875,-69.7174072265625,129.3182373046875
9.469999900000001,0.15801730751991272,-9.926360130310059,4.247313976287842,-30.792236328125,-52.490234375,102.569580078125
9.4899999,0.608127236366272,-13.038822174072266,2.873042106628418,-22.2015380859375,-30.303955078125,65.1702880859375
9.5099999,1.235408067703247,-15.744270324707031,1.766920804977417,-9.58251953125,-8.36181640625,23.8494873046875
9.5299999,1.8914192914962769,-17.645265579223633,1.0893617868423462,4.69970703125,13.5955810546875,-16.2811279296875
9.549999900000001,2.3965959548950195,-18.41141128540039,0.871489405632019,13.0615234375,34.332275390625,-53.497314453125
9.569999900000001,2.6431987285614014,-18.023550033569336,1.1204863786697388,15.7318115234375,50.4302978515625,-82.6873779296875
9.5899999,2.580949544906616,-16.656461715698242,1.6831238269805908,18.8140869140625,61.21826171875,-104.6600341796875
9.6099999,2.2218191623687744,-14.518439292907715,2.583343744277954,21.6217041015625,75.0274658203125,-125.2899169921875
9.629999900000001,1.6615760326385498,-12.006921768188477,3.6798880100250244,24.1546630859375,86.9903564453125,-138.031005859375
9.649999900000001,1.0295066833496094,-9.41639518737793,4.9368438720703125,29.327392578125,89.019775390625,-142.5323486328125
9.6699999,0.43335050344467163,-6.63433313369751,6.447585105895996,37.322998046875,90.1641845703125,-149.169921875
9.6899999,0.0694318488240242,-3.6511576175689697,8.348581314086914,46.8902587890625,87.249755859375,-144.866943359375
9.709999900000001,-0.016759412363171577,-0.22744916379451752,10.572794914245605,42.816162109375,64.8193359375,-117.7520751953125
9.729999900000001,0.272938996553421,3.1938650608062744,12.87362289428711,12.786865234375,28.6865234375,-68.603515625
9.7499999,0.7972691655158997,6.308721542358398,14.85362720489502,-11.5203857421875,0.3204345703125,-25.9552001953125
9.7699999,1.3910311460494995,8.307879447937012,15.998055458068848,-19.5465087890625,-17.486572265625,6.8511962890625
9.7899999,1.8579005002975464,8.987833023071289,16.10340118408203,-25.909423828125,-35.064697265625,36.6363525390625
9.809999900000001,2.0877439975738525,8.38449478149414,15.310919761657715,-15.045166015625,-46.9207763671875,60.333251953125
9.8299999,2.0925323963165283,6.868964672088623,13.79060173034668,-3.4637451171875,-56.549072265625,80.2154541015625
9.8499999,1.6974890232086182,2.4444799423217773,10.065223693847656,-22.003173828125,-59.5703125,116.729736328125
9.8699999,1.4484920501708984,-0.23942017555236816,8.274360656738281,-41.50390625,-59.906005859375,129.0130615234375
9.889999900000001,1.2473790645599365,-3.2632968425750732,6.763619899749756,-36.2396240234375,-52.825927734375,122.4517822265625
9.9099999,1.1971008777618408,-6.524199485778809,5.434837818145752,-14.862060546875,-43.243408203125,99.2431640625
9.9299999,1.3503297567367554,-9.75397777557373,4.326322555541992,-8.5906982421875,-29.9530029296875,73.1201171875
9.9499999,1.6831238269805908,-12.519280433654785,3.4548330307006836,-13.702392578125,-11.4593505859375,45.9747314453125
9.969999900000001,2.1116859912872314,-14.573505401611328,2.8993782997131348,-9.7198486328125,5.6304931640625,16.387939453125
9.9899999,2.5330653190612793,-15.751453399658203,2.7054479122161865,1.3427734375,18.06640625,-16.2811279296875
10.0099999,2.806004285812378,-16.017210006713867,2.8874073028564453,14.2059326171875,30.4718017578125,-47.9888916015625
10.0299999,2.8658595085144043,-15.354015350341797,3.378218650817871,19.561767578125,41.4276123046875,-73.9593505859375
10.049999900000001,2.7102363109588623,-13.828908920288086,4.120420932769775,25.45166015625,51.727294921875,-92.2698974609375
10.069999900000001,2.3942017555236816,-11.499350547790527,5.106832027435303,34.0118408203125,58.441162109375,-104.06494140625
10.0899999,2.054224967956543,-8.635885238647461,6.277596950531006,40.4052734375,57.2357177734375,-103.6834716796875
10.1099999,1.7908629179000854,-5.3582234382629395,7.589619159698486,40.52734375,51.4984130859375,-94.66552734375
10.129999900000001,1.6759412288665771,-2.2002713680267334,8.851364135742188,30.6854248046875,42.48046875,-72.8607177734375
10.149999900000001,1.6950948238372803,0.49559974670410156,9.911994934082031,12.5579833984375,32.5469970703125,-47.882080078125
10.1699999,1.778891921043396,2.27209734916687,10.675745010375977,-1.678466796875,27.0538330078125,-27.618408203125
10.1899999,1.8914192914962769,2.9328970909118652,11.125855445861816,-8.1024169921875,20.44677734375,-12.5885009765625
10.209999900000001,2.0039467811584473,2.5091233253479004,11.245565414428711,5.6915283203125,13.3514404296875,-3.4942626953125
10.229999900000001,2.123656988143921,1.460463047027588,11.106701850891113,10.1165771484375,7.75146484375,-2.2125244140625
10.2499999,2.255337953567505,0.05746084079146385,10.805032730102539,-0.9918212890625,7.3394775390625,4.0283203125
10.2699999,2.382230758666992,-1.3646949529647827,10.402806282043457,-5.889892578125,3.23486328125,12.2833251953125
10.2899999,2.477998733520508,-2.655169725418091,9.962273597717285,-4.82177734375,-2.7008056640625,13.9923095703125
10.309999900000001,2.540247917175293,-3.773261785507202,9.509769439697266,0.18310546875,-3.753662109375,9.94873046875
10.3299999,2.580949544906616,-4.6040496826171875,9.05247688293457,1.6937255859375,-2.5177001953125,5.4473876953125
10.3499999,2.6144683361053467,-5.066130638122559,8.607154846191406,-4.5166015625,-1.4190673828125,4.45556640625
10.3699999,2.647987127304077,-5.169081687927246,8.267178535461426,-8.9569091796875,-0.9002685546875,5.8135986328125
10.389999900000001,2.6671407222747803,-5.032611846923828,8.078036308288574,-6.5155029296875,-0.1373291015625,4.94384765625
10.4099999,2.6623523235321045,-4.76924991607666,8.02536392211914,4.3792724609375,0.9002685546875,1.5869140625
10.4299999,2.6360161304473877,-4.496310710906982,8.054094314575195,6.5155029296875,0.7171630859375,0.8544921875
10.4499999,2.585737943649292,-4.268861770629883,8.145073890686035,1.15966796875,2.593994140625,2.0751953125
10.469999900000001,2.5474305152893066,-4.137180328369141,8.259995460510254,-2.8839111328125,3.5247802734375,2.38037109375
10.4899999,2.513911724090576,-4.067748546600342,8.367734909057617,-0.762939453125,2.62451171875,0.335693359375
10.5099999,2.499546527862549,-4.0749311447143555,8.501810073852539,2.410888671875,2.25830078125,-0.6256103515625
10.5299999,2.497152328491211,-4.067748546600342,8.576030731201172,-0.579833984375,1.2664794921875,-0.244140625
10.549999900000001,2.497152328491211,-4.034229755401611,8.667010307312012,-2.4566650390625,3.1585693359375,0.3204345703125
10.569999900000001,2.5019407272338867,-4.010287761688232,8.724471092224121,-2.166748046875,2.5177001953125,1.1749267578125
10.5899999,2.5019407272338867,-3.9887399673461914,8.75080680847168,-1.3275146484375,0.67138671875,0.91552734375
10.6099999,2.499546527862549,-3.995922565460205,8.78432559967041,-3.35693359375,1.007080078125,0.6256103515625
10.629999900000001,2.4899697303771973,-4.017470359802246,8.755595207214355,-5.0048828125,0.7171630859375,0.701904296875
10.649999900000001,2.47560453414917,-4.046200752258301,8.700529098510742,-3.8909912109375,-0.0457763671875,1.0223388671875
10.6699999,2.4612393379211426,-4.079719543457031,8.645462036132812,-0.5340576171875,0.946044921875,1.2054443359375
10.6899999,2.454056739807129,-4.120420932769775,8.571242332458496,-1.007080078125,0.701904296875,1.251220703125
10.709999900000001,2.4588451385498047,-4.146757125854492,8.525752067565918,-1.9989013671875,0.8392333984375,0.48828125
10.729999900000001,2.470816135406494,-4.141968727111816,8.513781547546387,-0.91552734375,1.3885498046875,-0.030517578125
10.7499999,2.4827871322631836,-4.120420932769775,8.530540466308594,-0.8392333984375,0.8544921875,1.1138916015625
10.7699999,2.4899697303771973,-4.098873138427734,8.576030731201172,-2.2125244140625,-0.1678466796875,1.8157958984375
10.7899999,2.492363929748535,-4.079719543457031,8.628703117370605,-2.8533935546875,-0.1068115234375,0.7171630859375
10.809999900000001,2.4899697303771973,-4.077325344085693,8.664615631103516,-1.7242431640625,0.2593994140625,0.6256103515625
10.8299999,2.4851813316345215,-4.077325344085693,8.662221908569336,-1.52587890625,-0.762939453125,1.46484375
10.8499999,2.473210334777832,-4.072536945343018,8.633491516113281,-0.5340576171875,-0.5645751953125,1.800537109375
10.8699999,2.4684219360351562,-4.108449935913086,8.583212852478027,-0.701904296875,0.1373291015625,2.227783203125
10.889999900000001,2.4660277366638184,-4.151545524597168,8.528146743774414,-2.1209716796875,0.274658203125,1.434326171875
10.9099999,2.473210334777832,-4.2329487800598145,8.516175270080566,-1.77001953125,0.3204345703125,0.946044921875
10.9299999,2.4875755310058594,-4.299986362457275,8.494627952575684,0.2899169921875,-1.007080078125,0.244140625
10.9499999,2.499546527862549,-4.32871675491333,8.489839553833008,1.983642578125,-0.2899169921875,-1.1749267578125
10.969999900000001,2.5067291259765625,-4.302380561828613,8.470685958862305,1.312255859375,1.0833740234375,-1.64794921875
10.9899999,2.5019407272338867,-4.225766181945801,8.463502883911133,0.396728515625,1.5411376953125,-0.9002685546875
11.0099999,2.497152328491211,-4.134786128997803,8.47786808013916,-1.3580322265625,0.7476806640625,0.457763671875
11.0299999,2.494758129119873,-4.084507942199707,8.516175270080566,-1.2054443359375,0.2288818359375,0.8392333984375
11.049999900000001,2.499546527862549,-4.082113742828369,8.53532886505127,-1.2664794921875,-0.396728515625,-0.1220703125
11.069999900000001,2.5043349266052246,-4.101267337799072,8.549694061279297,-0.732421875,0.48828125,-0.8697509765625
11.0899999,2.516305923461914,-4.134786128997803,8.537723541259766,-0.79345703125,0.5035400390625,0.1068115234375
11.1099999,2.516305923461914,-4.137180328369141,8.528146743774414,0.67138671875,0.579833984375,0.335693359375
11.129999900000001,2.513911724090576,-4.141968727111816,8.525752067565918,0.42724609375,1.03759765625,0.1983642578125
11.149999900000001,2.5067291259765625,-4.125209331512451,8.530540466308594,-0.274658203125,1.0223388671875,-0.213623046875
11.1699999,2.497152328491211,-4.110844135284424,8.540117263793945,-0.9765625,0.946044921875,0.213623046875
11.1899999,2.492363929748535,-4.101267337799072,8.549694061279297,-1.15966796875,0.9307861328125,1.068115234375
11.209999900000001,2.494758129119873,-4.0964789390563965,8.542511940002441,-1.8463134765625,0.946044921875,0.946044921875
11.229999900000001,2.497152328491211,-4.120420932769775,8.528146743774414,-1.739501953125,1.6021728515625,0.4730224609375
11.2499999,2.499546527862549,-4.163516521453857,8.520963668823242,-0.9765625,1.6632080078125,0.1678466796875
11.2699999,2.494758129119873,-4.189853191375732,8.518569946289062,0.1220703125,1.40380859375,-0.0457763671875
11.2899999,2.4875755310058594,-4.2090067863464355,8.554482460021973,0.152587890625,1.3275146484375,0.1678466796875
11.309999900000001,2.4827871322631836,-4.225766181945801,8.571242332458496,0.152587890625,-0.030517578125,0.396728515625
11.3299999,2.4803929328918457,-4.218583583831787,8.588001251220703,1.1138916015625,0.4425048828125,-0.6866455078125
11.3499999,2.4875755310058594,-4.228160381317139,8.576030731201172,1.4495849609375,0.9002685546875,-0.946044921875
11.3699999,2.494758129119873,-4.213795185089111,8.552088737487793,1.129150390625,0.7781982421875,-0.946044921875
11.389999900000001,2.5067291259765625,-4.165910720825195,8.501810073852539,-1.6021728515625,1.373291015625,-0.396728515625
11.4099999,2.5091233253479004,-4.144362926483154,8.470685958862305,1.1749267578125,1.2054443359375,-0.5035400390625
11.4299999,2.5115175247192383,-4.144362926483154,8.463502883911133,-0.8697509765625,1.739501953125,-0.3814697265625
11.4499999,2.5091233253479004,-4.141968727111816,8.456320762634277,-1.5716552734375,2.105712890625,-1.0223388671875
11.469999900000001,2.5019407272338867,-4.151545524597168,8.470685958862305,-0.4730224609375,1.983642578125,-1.40380859375
11.4899999,2.494758129119873,-4.1395745277404785,8.489839553833008,-0.2593994140625,1.77001953125,-1.77001953125
11.5099999,2.4851813316345215,-4.1156325340271,8.525752067565918,0.91552734375,1.8463134765625,-0.9918212890625
11.5299999,2.477998733520508,-4.065354347229004,8.556877136230469,1.251220703125,2.288818359375,-0.1678466796875
11.549999900000001,2.47560453414917,-4.02465295791626,8.580819129943848,-1.15966796875,1.739501953125,0.701904296875
11.569999900000001,2.470816135406494,-4.000710964202881,8.59997272491455,-2.2735595703125,1.7852783203125,1.220703125
11.5899999,2.4684219360351562,-4.017470359802246,8.60236644744873,-3.4942626953125,1.5411376953125,1.5716552734375
11.6099999,2.4684219360351562,-4.084507942199707,8.578424453735352,-3.8909912109375,1.2969970703125,1.6021728515625
11.629999900000001,2.470816135406494,-4.163516521453857,8.576030731201172,-0.8697509765625,2.1514892578125,0.335693359375
11.649999900000001,2.477998733520508,-4.24970817565918,8.561665534973145,1.861572265625,1.983642578125,-0.244140625
11.6699999,2.4803929328918457,-4.2975921630859375,8.571242332458496,3.1890869140625,1.312255859375,-0.3204345703125
11.6899999,2.477998733520508,-4.302380561828613,8.592789649963379,2.25830078125,1.0223388671875,-0.5645751953125
11.709999900000001,2.4684219360351562,-4.261679172515869,8.592789649963379,0.8697509765625,0.6256103515625,-0.67138671875
11.729999900000001,2.4612393379211426,-4.197035789489746,8.597578048706055,0,1.1138916015625,-0.5340576171875
11.7499999,2.454056739807129,-4.125209331512451,8.59997272491455,-1.9073486328125,1.068115234375,0.030517578125
11.7699999,2.456450939178467,-4.072536945343018,8.597578048706055,-2.44140625,0.2593994140625,0.1678466796875
11.7899999,2.4612393379211426,-4.062960147857666,8.578424453735352,-2.38037109375,-0.30517578125,-0.274658203125
11.809999900000001,2.4660277366638184,-4.106055736541748,8.552088737487793,-2.5482177734375,0.2593994140625,-1.4190673828125
11.8299999,2.4612393379211426,-4.127603530883789,8.494627952575684,-3.082275390625,0.7171630859375,-2.86865234375
11.8499999,2.4660277366638184,-4.189853191375732,8.482656478881836,-0.244140625,2.13623046875,-0.457763671875
11.8699999,2.4660277366638184,-4.20421838760376,8.468291282653809,-1.3885498046875,0.946044921875,-0.0457763671875
11.889999900000001,2.4684219360351562,-4.218583583831787,8.508993148803711,-0.640869140625,1.1138916015625,-1.0528564453125
11.9099999,2.470816135406494,-4.216189384460449,8.549694061279297,-0.5035400390625,1.068115234375,-1.251220703125
11.9299999,2.4684219360351562,-4.20421838760376,8.578424453735352,-1.2054443359375,0.335693359375,-0.5950927734375
11.9499999,2.4684219360351562,-4.177882194519043,8.609549522399902,-0.335693359375,0.48828125,-0.5340576171875
11.969999900000001,2.4684219360351562,-4.156333923339844,8.619126319885254,-0.5035400390625,0.1373291015625,-0.579833984375
11.9899999,2.47560453414917,-4.146757125854492,8.611943244934082,-1.3427734375,-0.213623046875,-0.18310546875
12.0099999,2.477998733520508,-4.1395745277404785,8.609549522399902,-0.1220703125,0.3662109375,0.0152587890625
12.0299999,2.4827871322631836,-4.146757125854492,8.571242332458496,0.579833984375,0.152587890625,0.2288818359375
12.049999900000001,2.4851813316345215,-4.163516521453857,8.542511940002441,-0.91552734375,0.640869140625,0.2899169921875
12.069999900000001,2.4851813316345215,-4.173093795776367,8.523358345031738,-2.532958984375,1.4495849609375,-0.2899169921875
12.0899999,2.4851813316345215,-4.197035789489746,8.501810073852539,-1.64794921875,0.1373291015625,0
12.1099999,2.4851813316345215,-4.211400985717773,8.51138687133789,0.2899169921875,-0.1068115234375,-0.1068115234375
12.129999900000001,2.4851813316345215,-4.218583583831787,8.501810073852539,0.5645751953125,-0.1220703125,-0.6561279296875
12.149999900000001,2.4851813316345215,-4.216189384460449,8.492233276367188,1.251220703125,0.274658203125,-0.6256103515625
12.1699999,2.477998733520508,-4.19224739074707,8.492233276367188,1.0223388671875,1.2359619140625,-0.3814697265625
12.1899999,2.47560453414917,-4.163516521453857,8.523358345031738,-0.79345703125,1.129150390625,0.0762939453125
12.209999900000001,2.477998733520508,-4.137180328369141,8.576030731201172,-2.532958984375,0.0762939453125,0.213623046875
12.229999900000001,2.4899697303771973,-4.132391929626465,8.619126319885254,-3.3416748046875,-0.8392333984375,0.3814697265625
12.2499999,2.5091233253479004,-4.153939723968506,8.628703117370605,-2.4566650390625,-0.457763671875,0.2593994140625
12.2699999,2.5234885215759277,-4.182670593261719,8.573636054992676,-2.227783203125,0.244140625,-0.2288818359375
12.289999900000002,2.5282769203186035,-4.2090067863464355,8.520963668823242,-0.701904296875,0.9765625,-0.3509521484375
12.309999900000001,2.5282769203186035,-4.220977783203125,8.456320762634277,-0.4119873046875,0.335693359375,0.1068115234375
12.3299999,2.5234885215759277,-4.223371982574463,8.415618896484375,-0.2593994140625,0.0762939453125,0.2899169921875
12.3499999,2.516305923461914,-4.223371982574463,8.382100105285645,-0.5340576171875,0.8392333984375,-0.0762939453125
12.3699999,2.513911724090576,-4.235342979431152,8.35097599029541,-0.4119873046875,1.8768310546875,-0.396728515625
12.389999900000001,2.5115175247192383,-4.242525577545166,8.346187591552734,-0.7171630859375,2.6092529296875,-0.885009765625
12.4099999,2.5091233253479004,-4.247313976287842,8.367734909057617,-1.6937255859375,3.11279296875,-0.67138671875
12.4299999,2.5067291259765625,-4.2544965744018555,8.439560890197754,-0.06103515625,2.50244140625,-0.3814697265625
12.4499999,2.5043349266052246,-4.259284973144531,8.504204750061035,-0.457763671875,1.617431640625,-0.3814697265625
12.469999900000001,2.5019407272338867,-4.259284973144531,8.580819129943848,-0.823974609375,1.6937255859375,-0.7781982421875
12.4899999,2.5019407272338867,-4.259284973144531,8.616731643676758,-0.0457763671875,1.5411376953125,-1.0986328125
12.5099999,2.499546527862549,-4.240131378173828,8.611943244934082,0.213623046875,0.8087158203125,-1.129150390625
12.5299999,2.492363929748535,-4.213795185089111,8.585607528686523,-0.6256103515625,1.3427734375,-1.068115234375
12.549999900000001,2.4899697303771973,-4.185064792633057,8.547300338745117,-0.9002685546875,1.7242431640625,-0.7781982421875
12.569999900000001,2.4851813316345215,-4.158728122711182,8.513781547546387,-1.3427734375,1.5106201171875,-0.4425048828125
12.5899999,2.4875755310058594,-4.144362926483154,8.506598472595215,0.06103515625,1.5106201171875,-0.274658203125
12.6099999,2.4875755310058594,-4.137180328369141,8.506598472595215,1.4801025390625,1.03759765625,-0.5645751953125
12.629999900000001,2.4875755310058594,-4.127603530883789,8.518569946289062,0.3204345703125,1.0223388671875,-0.1983642578125
12.649999900000001,2.4827871322631836,-4.127603530883789,8.542511940002441,-1.068115234375,1.434326171875,0.8392333984375
12.6699999,2.4827871322631836,-4.132391929626465,8.576030731201172,-1.8463134765625,0.9307861328125,1.1749267578125
12.6899999,2.4875755310058594,-4.156333923339844,8.604761123657227,-1.8310546875,-0.0762939453125,0.9307861328125
12.709999900000001,2.494758129119873,-4.20421838760376,8.611943244934082,-0.9613037109375,-0.4730224609375,0.48828125
12.729999900000001,2.499546527862549,-4.247313976287842,8.573636054992676,-0.7781982421875,-0.18310546875,-0.06103515625
12.7499999,2.5019407272338867,-4.288015365600586,8.51138687133789,0.4425048828125,0.9918212890625,0.1373291015625
12.7699999,2.5043349266052246,-4.2951979637146,8.44195556640625,0.640869140625,1.2359619140625,-0.3662109375
12.789999900000002,2.5067291259765625,-4.278438568115234,8.406042098999023,0.42724609375,1.2359619140625,-0.701904296875
12.809999900000001,2.5019407272338867,-4.230554580688477,8.398859977722168,0.152587890625,1.3275146484375,-0.3814697265625
12.8299999,2.499546527862549,-4.182670593261719,8.429984092712402,-0.42724609375,1.3885498046875,0.5645751953125
12.8499999,2.4899697303771973,-4.141968727111816,8.468291282653809,-1.1749267578125,1.28173828125,1.0986328125
12.8699999,2.4851813316345215,-4.141968727111816,8.508993148803711,-0.4119873046875,1.2359619140625,0.8087158203125
12.889999900000001,2.4827871322631836,-4.175487995147705,8.525752067565918,-0.3204345703125,1.0528564453125,0.640869140625
12.9099999,2.4851813316345215,-4.223371982574463,8.53293514251709,-0.1678466796875,1.4190673828125,0.2288818359375
12.9299999,2.4899697303771973,-4.28322696685791,8.520963668823242,-0.7171630859375,1.1138916015625,-0.579833984375
12.9499999,2.4875755310058594,-4.278438568115234,8.516175270080566,-0.54931640625,1.0833740234375,-0.0762939453125
12.969999900000001,2.4851813316345215,-4.252102375030518,8.51138687133789,-0.640869140625,1.5869140625,0.0762939453125
12.9899999,2.4803929328918457,-4.223371982574463,8.516175270080566,-0.48828125,1.5411376953125,-0.06103515625
13.0099999,2.473210334777832,-4.20421838760376,8.528146743774414,0.0457763671875,1.190185546875,0.091552734375
13.0299999,2.4684219360351562,-4.206612586975098,8.552088737487793,-0.6256103515625,0.6561279296875,0.2593994140625
13.049999900000001,2.4684219360351562,-4.220977783203125,8.564059257507324,-0.5645751953125,0.335693359375,-0.244140625
13.069999900000001,2.473210334777832,-4.240131378173828,8.573636054992676,0.06103515625,0.6561279296875,-0.7171630859375
13.0899999,2.47560453414917,-4.247313976287842,8.564059257507324,-0.5035400390625,0.732421875,-0.732421875
13.1099999,2.47560453414917,-4.230554580688477,8.552088737487793,-1.007080078125,0.4119873046875,-0.2288818359375
13.129999900000001,2.47560453414917,-4.20421838760376,8.523358345031738,-1.190185546875,-0.0762939453125,0.4730224609375
13.149999900000001,2.47560453414917,-4.19224739074707,8.492233276367188,-1.0833740234375,0.4119873046875,0.6866455078125
13.1699999,2.4803929328918457,-4.20421838760376,8.453926086425781,0.2899169921875,1.46484375,0.152587890625
13.1899999,2.4875755310058594,-4.235342979431152,8.429984092712402,0.8087158203125,1.3580322265625,-0.48828125
13.209999900000001,2.4899697303771973,-4.264073371887207,8.434772491455078,0.7781982421875,1.3275146484375,-0.8087158203125
13.229999900000001,2.4899697303771973,-4.2760443687438965,8.449137687683105,0.152587890625,0.7476806640625,-0.48828125
13.2499999,2.4851813316345215,-4.259284973144531,8.487444877624512,0.1220703125,1.0833740234375,-0.4119873046875
13.2699999,2.4827871322631836,-4.2329487800598145,8.516175270080566,0.152587890625,1.28173828125,-0.518798828125
13.289999900000002,2.4803929328918457,-4.20421838760376,8.530540466308594,-0.4425048828125,0.701904296875,-0.396728515625
13.309999900000001,2.47560453414917,-4.177882194519043,8.530540466308594,-0.9918212890625,0.9002685546875,-0.2288818359375
13.3299999,2.470816135406494,-4.170699596405029,8.53293514251709,-0.5950927734375,1.5869140625,0.30517578125
13.3499999,2.473210334777832,-4.177882194519043,8.520963668823242,-0.3814697265625,0.8392333984375,0.4119873046875
13.3699999,2.47560453414917,-4.197035789489746,8.523358345031738,0.3814697265625,0.6561279296875,-0.091552734375
13.389999900000001,2.477998733520508,-4.220977783203125,8.518569946289062,0.6866455078125,1.0986328125,-0.0762939453125
13.4099999,2.4803929328918457,-4.225766181945801,8.51138687133789,0.06103515625,1.15966796875,-0.0457763671875
13.4299999,2.4803929328918457,-4.228160381317139,8.504204750061035,-0.885009765625,1.2359619140625,0.335693359375
13.4499999,2.4803929328918457,-4.213795185089111,8.504204750061035,-1.190185546875,0.9613037109375,0.213623046875
13.469999900000001,2.4827871322631836,-4.213795185089111,8.49941635131836,-0.4119873046875,0.8087158203125,0.1373291015625
13.4899999,2.4803929328918457,-4.218583583831787,8.47786808013916,0.8697509765625,1.1749267578125,0.3204345703125
13.5099999,2.473210334777832,-4.230554580688477,8.458714485168457,1.617431640625,1.8768310546875,-0.244140625
13.5299999,2.4636335372924805,-4.247313976287842,8.44195556640625,2.044677734375,2.0294189453125,-0.4730224609375
13.549999900000001,2.4588451385498047,-4.24970817565918,8.453926086425781,2.0751953125,2.13623046875,-0.457763671875
13.569999900000001,2.456450939178467,-4.252102375030518,8.482656478881836,-0.1983642578125,2.105712890625,-0.274658203125
13.5899999,2.4636335372924805,-4.23773717880249,8.520963668823242,-0.7781982421875,1.2969970703125,-0.457763671875
13.6099999,2.4660277366638184,-4.213795185089111,8.552088737487793,-0.06103515625,1.77001953125,-0.640869140625
13.629999900000001,2.4684219360351562,-4.194641590118408,8.561665534973145,-1.8768310546875,1.6021728515625,0.030517578125
13.649999900000001,2.4636335372924805,-4.168305397033691,8.578424453735352,1.46484375,2.044677734375,0.0457763671875
13.6699999,2.4588451385498047,-4.156333923339844,8.573636054992676,1.3275146484375,1.312255859375,-0.0152587890625
13.6899999,2.4588451385498047,-4.153939723968506,8.576030731201172,0.244140625,0.9307861328125,-0.0152587890625
13.709999900000001,2.454056739807129,-4.156333923339844,8.578424453735352,0.06103515625,1.220703125,-0.1068115234375
13.729999900000001,2.451662540435791,-4.165910720825195,8.571242332458496,-0.8087158203125,0.946044921875,0.0152587890625
13.7499999,2.4468741416931152,-4.175487995147705,8.573636054992676,-0.5035400390625,0.91552734375,-0.0152587890625
13.7699999,2.4444799423217773,-4.182670593261719,8.56884765625,-0.1220703125,0.8087158203125,0
13.789999900000002,2.4420857429504395,-4.189853191375732,8.561665534973145,0.8087158203125,1.1444091796875,0.1373291015625
13.809999900000001,2.4444799423217773,-4.185064792633057,8.544905662536621,0.1373291015625,0.9918212890625,0.06103515625
13.8299999,2.451662540435791,-4.1874589920043945,8.530540466308594,0.1373291015625,0.9765625,0.335693359375
13.8499999,2.454056739807129,-4.19224739074707,8.516175270080566,0.5340576171875,0.9918212890625,0.274658203125
13.8699999,2.456450939178467,-4.197035789489746,8.506598472595215,1.2054443359375,1.739501953125,-0.244140625
13.889999900000001,2.456450939178467,-4.20421838760376,8.501810073852539,2.716064453125,1.8768310546875,-0.30517578125
13.9099999,2.449268341064453,-4.199429988861084,8.513781547546387,3.9825439453125,1.922607421875,-0.2593994140625
13.9299999,2.4420857429504395,-4.211400985717773,8.530540466308594,5.645751953125,1.6937255859375,-0.06103515625
13.9499999,2.434903144836426,-4.213795185089111,8.597578048706055,10.4827880859375,2.0599365234375,-0.9307861328125
13.969999900000001,2.432508945465088,-4.211400985717773,8.662221908569336,9.979248046875,0.885009765625,-1.678466796875
13.9899999,2.434903144836426,-4.189853191375732,8.729259490966797,6.9732666015625,-0.9918212890625,-0.9765625
14.0099999,2.4372973442077637,-4.132391929626465,8.762778282165527,2.99072265625,-0.6256103515625,-0.5340576171875
14.0299999,2.4444799423217773,-4.0749311447143555,8.71728801727295,-5.0506591796875,-0.8087158203125,-0.4119873046875
14.049999900000001,2.4468741416931152,-4.022258758544922,8.650250434875488,0.579833984375,0.274658203125,-0.518798828125
14.069999900000001,2.449268341064453,-3.9863457679748535,8.552088737487793,1.800537109375,0.701904296875,-0.335693359375
14.0899999,2.451662540435791,-3.9671921730041504,8.47547435760498,-0.8087158203125,0.8087158203125,0.0762939453125
14.1099999,2.451662540435791,-3.9695863723754883,8.432378768920898,-0.9002685546875,1.1138916015625,0.5950927734375
14.129999900000001,2.451662540435791,-3.974374771118164,8.422801971435547,-0.5340576171875,1.739501953125,0.701904296875
14.149999900000001,2.451662540435791,-4.01268196105957,8.465897560119629,0.7476806640625,2.01416015625,0.2593994140625
14.1699999,2.449268341064453,-4.043806552886963,8.525752067565918,1.3275146484375,1.5106201171875,-0.244140625
14.1899999,2.4444799423217773,-4.0749311447143555,8.604761123657227,2.5482177734375,1.1444091796875,-0.0457763671875
14.209999900000001,2.4468741416931152,-4.10366153717041,8.688557624816895,4.150390625,0.9307861328125,0.152587890625
14.229999900000001,2.4468741416931152,-4.108449935913086,8.757989883422852,4.1046142578125,0.42724609375,-0.5340576171875
14.2499999,2.451662540435791,-4.132391929626465,8.798690795898438,2.01416015625,-0.6103515625,-0.732421875
14.2699999,2.454056739807129,-4.153939723968506,8.825027465820312,5.157470703125,-1.46484375,-2.105712890625
14.289999900000002,2.4612393379211426,-4.199429988861084,8.813055992126465,4.6844482421875,-1.7242431640625,-2.9754638671875
14.309999900000001,2.4660277366638184,-4.225766181945801,8.786720275878906,4.5318603515625,-2.105712890625,-3.997802734375
14.3299999,2.4803929328918457,-4.20421838760376,8.729259490966797,10.6048583984375,-2.166748046875,-4.5318603515625
14.3499999,2.497152328491211,-4.132391929626465,8.676587104797363,15.31982421875,-0.5035400390625,-3.631591796875
14.3699999,2.5115175247192383,-3.998316764831543,8.595184326171875,8.3465576171875,-0.6561279296875,-3.5247802734375
14.389999900000001,2.518700122833252,-3.8355112075805664,8.53532886505127,3.9825439453125,-0.091552734375,-2.9296875
14.4099999,2.516305923461914,-3.6798880100250244,8.497021675109863,0.54931640625,0.518798828125,-2.044677734375
14.4299999,2.516305923461914,-3.5482068061828613,8.489839553833008,-0.9918212890625,0.30517578125,-1.0223388671875
14.4499999,2.513911724090576,-3.4524388313293457,8.508993148803711,-0.48828125,1.068115234375,0.0152587890625
14.469999900000001,2.5234885215759277,-3.5051112174987793,8.611943244934082,-4.5166015625,0.9765625,2.166748046875
14.4899999,2.5282769203186035,-3.6367924213409424,8.65982723236084,-1.9989013671875,0.67138671875,1.678466796875
14.5099999,2.5330653190612793,-3.8067808151245117,8.705317497253418,0.06103515625,1.1444091796875,0.6256103515625
14.5299999,2.535459518432617,-3.9408559799194336,8.719682693481445,0.152587890625,0.5340576171875,-0.732421875
14.549999900000001,2.535459518432617,-4.010287761688232,8.71728801727295,0.1373291015625,0.3814697265625,-1.0528564453125
14.569999900000001,2.5330653190612793,-3.998316764831543,8.707711219787598,0.0457763671875,0.885009765625,-0.5645751953125
14.5899999,2.5306711196899414,-3.9240965843200684,8.686163902282715,-1.1749267578125,0.823974609375,-0.0457763671875
14.6099999,2.5282769203186035,-3.8379054069519043,8.671798706054688,-2.6397705078125,0.48828125,0.5645751953125
14.629999900000001,2.5282769203186035,-3.7708675861358643,8.662221908569336,-4.33349609375,0.42724609375,0.9002685546875
14.649999900000001,2.5258827209472656,-3.7469255924224854,8.662221908569336,-2.899169921875,1.0223388671875,1.068115234375
14.6699999,2.5234885215759277,-3.77565598487854,8.667010307312012,-0.335693359375,1.3275146484375,1.220703125
14.6899999,2.518700122833252,-3.821146011352539,8.664615631103516,-0.1068115234375,0.518798828125,0.335693359375
14.709999900000001,2.518700122833252,-3.8810009956359863,8.664615631103516,0.640869140625,0.9002685546875,0.1220703125
14.729999900000001,2.518700122833252,-3.9240965843200684,8.647856712341309,0,1.0223388671875,0.0762939453125
14.7499999,2.518700122833252,-3.9384617805480957,8.635885238647461,0.457763671875,1.3427734375,-0.335693359375
14.7699999,2.52109432220459,-3.93367338180542,8.619126319885254,-1.0528564453125,0.823974609375,-0.42724609375
14.789999900000002,2.5234885215759277,-3.912125587463379,8.607154846191406,-1.6021728515625,1.1749267578125,-0.0762939453125
14.809999900000001,2.52109432220459,-3.8738183975219727,8.607154846191406,-0.48828125,1.77001953125,-0.06103515625
14.8299999,2.52109432220459,-3.8546648025512695,8.59997272491455,1.15966796875,1.6632080078125,0.5035400390625
14.8499999,2.513911724090576,-3.8379054069519043,8.619126319885254,1.5869140625,2.166748046875,0.3662109375
14.8699999,2.5115175247192383,-3.847482204437256,8.655038833618164,1.312255859375,2.2735595703125,0.30517578125
14.889999900000001,2.5091233253479004,-3.8594532012939453,8.695740699768066,0.3204345703125,1.3275146484375,0.1068115234375
14.9099999,2.5091233253479004,-3.866635799407959,8.741230010986328,-1.46484375,0.48828125,-0.091552734375
14.9299999,2.5091233253479004,-3.8738183975219727,8.772355079650879,-1.800537109375,0.396728515625,0.2899169921875
14.9499999,2.5067291259765625,-3.866635799407959,8.779537200927734,-1.861572265625,0.457763671875,0.335693359375
14.969999900000001,2.5067291259765625,-3.869029998779297,8.769960403442383,-1.4801025390625,0.5950927734375,0.2593994140625
14.9899999,2.5043349266052246,-3.869029998779297,8.746018409729004,-1.5869140625,0.2288818359375,0.18310546875
15.0099999,2.5067291259765625,-3.8714241981506348,8.710105895996094,-0.7171630859375,0.274658203125,0.30517578125
15.0299999,2.5043349266052246,-3.883395195007324,8.664615631103516,-0.2899169921875,0.4425048828125,0.3204345703125
15.049999900000001,2.5043349266052246,-3.892971992492676,8.621520042419434,-0.9918212890625,0.8392333984375,-0.030517578125
15.069999900000001,2.5019407272338867,-3.9025487899780273,8.592789649963379,-0.0152587890625,1.1138916015625,0.1068115234375
15.0899999,2.5019407272338867,-3.907337188720703,8.583212852478027,0.9307861328125,1.190185546875,0.274658203125
15.1099999,2.5043349266052246,-3.907337188720703,8.592789649963379,0.1678466796875,0.9765625,0.030517578125
15.129999900000001,2.5043349266052246,-3.892971992492676,8.604761123657227,0.244140625,1.1749267578125,-0.213623046875
15.149999900000001,2.5067291259765625,-3.885789394378662,8.633491516113281,1.5411376953125,1.7547607421875,0.244140625
15.1699999,2.5067291259765625,-3.8738183975219727,8.667010307312012,0.823974609375,1.3275146484375,0.274658203125
15.1899999,2.5067291259765625,-3.869029998779297,8.702922821044922,-0.42724609375,0.30517578125,0.0457763671875
15.209999900000001,2.5067291259765625,-3.869029998779297,8.736441612243652,-0.7171630859375,0.213623046875,0.18310546875
15.229999900000001,2.5043349266052246,-3.8738183975219727,8.743624687194824,0,0.5035400390625,0.06103515625
15.2499999,2.5019407272338867,-3.8786067962646484,8.729259490966797,0.4425048828125,0.5645751953125,0.0152587890625
15.2699999,2.499546527862549,-3.8714241981506348,8.698134422302246,-0.1678466796875,0.54931640625,-0.152587890625
15.289999900000002,2.499546527862549,-3.8714241981506348,8.662221908569336,-0.6256103515625,0.457763671875,0.3662109375
15.309999900000001,2.499546527862549,-3.864241600036621,8.633491516113281,0.5035400390625,1.129150390625,0.3814697265625
15.3299999,2.499546527862549,-3.861847400665283,8.619126319885254,0.2899169921875,1.312255859375,0.30517578125
15.3499999,2.499546527862549,-3.866635799407959,8.611943244934082,-1.312255859375,0.7476806640625,0.3662109375
15.3699999,2.5019407272338867,-3.8714241981506348,8.62391471862793,0.579833984375,1.3427734375,0.457763671875
15.389999900000001,2.5043349266052246,-3.8738183975219727,8.645462036132812,1.3885498046875,1.2664794921875,0.152587890625
15.4099999,2.5091233253479004,-3.883395195007324,8.65743350982666,-0.152587890625,0.335693359375,-0.091552734375
15.4299999,2.5091233253479004,-3.8786067962646484,8.662221908569336,-1.8768310546875,0.5950927734375,-0.30517578125
15.4499999,2.5091233253479004,-3.8810009956359863,8.652645111083984,-1.190185546875,1.708984375,0.396728515625
15.469999900000001,2.5067291259765625,-3.861847400665283,8.650250434875488,-1.678466796875,1.861572265625,0.213623046875
15.4899999,2.5043349266052246,-3.8570590019226074,8.652645111083984,-1.739501953125,0.9613037109375,0.4119873046875
15.5099999,2.5019407272338867,-3.845088005065918,8.667010307312012,-2.8839111328125,0.67138671875,0.6561279296875
15.5299999,2.499546527862549,-3.8570590019226074,8.676587104797363,-2.2735595703125,1.251220703125,0.5950927734375
15.549999900000001,2.497152328491211,-3.8762125968933105,8.676587104797363,-0.6561279296875,1.495361328125,0.396728515625
15.569999900000001,2.494758129119873,-3.9049429893493652,8.683769226074219,-1.0528564453125,1.0528564453125,0.0762939453125
15.5899999,2.492363929748535,-3.9264907836914062,8.683769226074219,-1.6632080078125,0.42724609375,0.0762939453125
15.6099999,2.494758129119873,-3.936067581176758,8.683769226074219,-1.89208984375,0.67138671875,0.213623046875
15.629999900000001,2.497152328491211,-3.93367338180542,8.65982723236084,-1.1138916015625,0.91552734375,-0.0152587890625
15.649999900000001,2.499546527862549,-3.9217023849487305,8.631096839904785,-1.007080078125,1.4495849609375,0.213623046875
15.6699999,2.499546527862549,-3.914519786834717,8.614337921142578,-1.3885498046875,1.708984375,0.4425048828125
15.6899999,2.499546527862549,-3.914519786834717,8.604761123657227,-2.8228759765625,1.1138916015625,0.3204345703125
15.709999900000001,2.497152328491211,-3.9217023849487305,8.631096839904785,-2.25830078125,1.4495849609375,0.0762939453125
15.729999900000001,2.4899697303771973,-3.9264907836914062,8.643068313598633,-2.3956298828125,0.7781982421875,-0.2288818359375
15.7499999,2.4827871322631836,-3.9264907836914062,8.647856712341309,-2.349853515625,0.7476806640625,0.396728515625
15.7699999,2.477998733520508,-3.9264907836914062,8.650250434875488,-0.6103515625,1.861572265625,0.6866455078125
15.789999900000002,2.477998733520508,-3.93367338180542,8.635885238647461,-1.6937255859375,1.5411376953125,0.213623046875
15.809999900000001,2.477998733520508,-3.9408559799194336,8.635885238647461,-2.8228759765625,1.0528564453125,-0.2288818359375
15.8299999,2.4803929328918457,-3.9600095748901367,8.647856712341309,-1.2969970703125,1.190185546875,0.030517578125
15.8499999,2.47560453414917,-3.9624037742614746,8.652645111083984,0.1068115234375,1.312255859375,0.3662109375
15.869999900000002,2.470816135406494,-3.9624037742614746,8.647856712341309,0.579833984375,1.312255859375,0.3509521484375
15.889999900000001,2.4660277366638184,-3.9600095748901367,8.655038833618164,-0.030517578125,1.495361328125,0.518798828125
15.9099999,2.4636335372924805,-3.955221176147461,8.643068313598633,1.0833740234375,1.0223388671875,0.4730224609375
15.9299999,2.4636335372924805,-3.950432777404785,8.643068313598633,1.068115234375,0.9918212890625,0.1220703125
15.9499999,2.4636335372924805,-3.9456443786621094,8.655038833618164,-1.03759765625,1.434326171875,0.152587890625
15.969999900000001,2.4660277366638184,-3.9432501792907715,8.65743350982666,-1.2664794921875,0.5645751953125,0.3509521484375
15.9899999,2.4660277366638184,-3.9480385780334473,8.664615631103516,-2.349853515625,0.8392333984375,0.2288818359375
16.0099999,2.4660277366638184,-3.957615375518799,8.652645111083984,-1.5716552734375,0.8087158203125,0.5340576171875
16.0299999,2.4660277366638184,-3.9647979736328125,8.650250434875488,0.8087158203125,0.762939453125,0.7476806640625
16.0499999,2.4660277366638184,-3.974374771118164,8.645462036132812,0.4425048828125,0.946044921875,0.457763671875
16.0699999,2.4684219360351562,-3.9815573692321777,8.643068313598633,0.1068115234375,0.5645751953125,0.1983642578125
16.089999900000002,2.470816135406494,-3.97916316986084,8.633491516113281,0.946044921875,0.42724609375,-0.06103515625
16.109999900000002,2.470816135406494,-3.9647979736328125,8.614337921142578,-1.5716552734375,0.67138671875,0.3204345703125
16.1299999,2.4684219360351562,-3.955221176147461,8.59997272491455,-0.9613037109375,1.2664794921875,0.6866455078125
16.1499999,2.4660277366638184,-3.952826976776123,8.592789649963379,0.3814697265625,1.3427734375,0.1983642578125
16.1699999,2.4636335372924805,-3.9671921730041504,8.60236644744873,-2.166748046875,1.007080078125,0.274658203125
16.1899999,2.4612393379211426,-3.9863457679748535,8.621520042419434,-0.9765625,1.2054443359375,0.48828125
16.2099999,2.456450939178467,-4.010287761688232,8.640673637390137,0.5035400390625,1.129150390625,0.3204345703125
16.2299999,2.451662540435791,-4.017470359802246,8.65743350982666,0.3204345703125,0.885009765625,-0.3204345703125
16.249999900000002,2.454056739807129,-4.019864559173584,8.65982723236084,-0.6256103515625,0.3509521484375,-0.0762939453125
16.269999900000002,2.454056739807129,-4.003105163574219,8.650250434875488,-1.2359619140625,0.48828125,-0.1678466796875
16.2899999,2.4588451385498047,-3.97916316986084,8.619126319885254,-0.67138671875,1.4190673828125,-0.457763671875
16.3099999,2.4612393379211426,-3.9624037742614746,8.56884765625,-1.3580322265625,1.9989013671875,-0.1678466796875
16.3299999,2.454056739807129,-3.928884983062744,8.47786808013916,0.5340576171875,2.44140625,-0.2288818359375
16.3499999,2.4468741416931152,-3.928884983062744,8.391676902770996,0.6103515625,3.60107421875,0.518798828125
16.3699999,2.4372973442077637,-3.952826976776123,8.315062522888184,1.922607421875,5.6610107421875,0.640869140625
16.3899999,2.432508945465088,-4.019864559173584,8.271966934204102,5.3253173828125,6.5460205078125,-0.2288818359375
16.4099999,2.425326347351074,-4.10366153717041,8.248024940490723,8.514404296875,7.843017578125,-2.01416015625
16.429999900000002,2.408566951751709,-4.216189384460449,8.212111473083496,7.720947265625,10.1776123046875,-3.0975341796875
16.4499999,2.38462495803833,-4.405331134796143,8.087613105773926,2.471923828125,13.3819580078125,-3.8299560546875
16.4699999,2.3511061668395996,-4.730942726135254,7.862558364868164,-0.1678466796875,19.59228515625,-7.6446533203125
16.4899999,2.315192937850952,-5.200206279754639,7.539340972900391,6.1798095703125,29.9224853515625,-16.387939453125
16.5099999,2.274491548538208,-5.774814605712891,7.115567684173584,11.8255615234375,44.4793701171875,-27.2216796875
16.5299999,2.190694570541382,-6.382941722869873,6.964732646942139,12.7716064453125,63.78173828125,-39.4744873046875
16.5499999,2.049436569213867,-6.8593878746032715,7.194576263427734,2.7313232421875,68.1915283203125,-51.605224609375
16.5699999,1.8411411046981812,-7.1921820640563965,7.955932140350342,-12.664794921875,53.466796875,-59.1278076171875
16.589999900000002,1.6112977266311646,-7.261613845825195,9.227252960205078,3.35693359375,41.7327880859375,-66.4825439453125
16.609999900000002,1.4173674583435059,-7.029376029968262,10.72602367401123,27.862548828125,29.388427734375,-75.164794921875
16.6299999,1.3024457693099976,-6.344634532928467,12.284648895263672,20.172119140625,11.871337890625,-82.1533203125
16.6499999,1.280897855758667,-5.231330871582031,13.69962215423584,-1.2054443359375,-8.6822509765625,-82.3822021484375
16.6699999,1.3742717504501343,-3.907337188720703,14.798561096191406,-8.6669921875,-31.829833984375,-71.1669921875
16.6899999,1.5538369417190552,-2.5450363159179688,15.46414852142334,-4.6539306640625,-50.2777099609375,-64.361572265625
16.7099999,1.8076223134994507,-1.5322890281677246,15.557522773742676,-2.5482177734375,-64.605712890625,-60.36376953125
16.7299999,2.0829553604125977,-0.9289502501487732,15.162479400634766,-4.4708251953125,-75.0579833984375,-56.1676025390625
16.749999900000002,2.319981336593628,-0.7182605266571045,14.480132102966309,-3.0517578125,-82.122802734375,-51.849365234375
16.769999900000002,2.4899697303771973,-0.790086567401886,13.570335388183594,3.96728515625,-94.1314697265625,-47.3480224609375
16.7899999,2.5977089405059814,-0.9720458984375,12.591106414794922,17.4102783203125,-103.4698486328125,-43.64013671875
16.8099999,2.6791117191314697,-1.1300631761550903,11.547234535217285,31.18896484375,-105.224609375,-39.8101806640625
16.8299999,2.7485435009002686,-1.1540051698684692,10.498574256896973,25.8331298828125,-103.5003662109375,-33.599853515625
16.8499999,2.82515811920166,-1.0055646896362305,9.502586364746094,15.56396484375,-102.4932861328125,-25.57373046875
16.8699999,2.896984100341797,-0.6368576288223267,8.652645111083984,18.9361572265625,-101.7608642578125,-17.9595947265625
16.8899999,2.959233283996582,-0.07182604819536209,7.934384346008301,31.4788818359375,-101.1199951171875,-6.8359375
16.9099999,2.9975404739379883,0.6967126727104187,7.29034423828125,32.16552734375,-101.0589599609375,8.72802734375
16.929999900000002,3.023876667022705,1.4652514457702637,6.593631267547607,23.8494873046875,-100.799560546875,29.6630859375
16.9499999,3.0573954582214355,2.0901381969451904,5.731719017028809,17.913818359375,-97.076416015625,48.0499267578125
16.9699999,3.1052796840667725,2.3918075561523438,4.704606533050537,19.4244384765625,-84.2437744140625,60.760498046875
16.9899999,3.1723172664642334,2.31758713722229,3.5482068061828613,16.41845703125,-68.8629150390625,72.9522705078125
17.0099999,3.2537200450897217,1.944091796875,2.4684219360351562,13.2598876953125,-51.4373779296875,84.716796875
17.0299999,3.315969467163086,1.4508862495422363,1.680729627609253,17.63916015625,-33.4625244140625,94.970703125
17.0499999,3.354276657104492,0.8451532125473022,1.1683704853057861,21.2249755859375,-21.1029052734375,106.292724609375
17.0699999,3.3686418533325195,0.09816227108240128,0.9241618514060974,21.8658447265625,-8.636474609375,118.7591552734375
17.089999900000002,3.375824451446533,-0.8834604024887085,0.828393816947937,25.726318359375,11.749267578125,123.4588623046875
17.109999900000002,3.383007049560547,-2.0183119773864746,0.6584054827690125,25.7110595703125,31.79931640625,118.1640625
17.1299999,3.397372245788574,-3.287238836288452,0.5291185975074768,26.947021484375,53.466796875,115.325927734375
17.1499999,3.354276657104492,-4.527435302734375,0.35913026332855225,24.658203125,73.18115234375,113.067626953125
17.1699999,3.2417490482330322,-5.858611583709717,0.24420857429504395,17.3492431640625,94.207763671875,107.0556640625
17.1899999,3.0095114707946777,-7.220912456512451,0.3687070608139038,27.191162109375,122.8179931640625,88.5009765625
17.2099999,2.6671407222747803,-8.638279914855957,0.7757213711738586,18.9056396484375,144.4244384765625,65.8111572265625
17.2299999,2.252943754196167,-9.892841339111328,1.9512743949890137,14.373779296875,165.83251953125,44.8455810546875
17.249999900000002,1.843535304069519,-10.663774490356445,3.794809579849243,38.177490234375,171.6156005859375,21.6827392578125
17.269999900000002,1.5466543436050415,-10.881647109985352,6.030993938446045,63.8427734375,158.966064453125,1.5716552734375
17.2899999,1.3670891523361206,-10.407594680786133,8.322244644165039,55.9539794921875,155.8685302734375,-16.8609619140625
17.3099999,1.280897855758667,-9.425971984863281,10.5344877243042,15.7470703125,162.322998046875,-26.519775390625
17.3299999,1.2186486721038818,-8.180987358093262,12.239158630371094,1.373291015625,141.05224609375,-25.909423828125
17.3499999,1.1204863786697388,-7.137115478515625,13.424288749694824,26.641845703125,111.3739013671875,-22.39990234375
17.3699999,0.9576807022094727,-6.335057735443115,13.903129577636719,56.5032958984375,107.879638671875,-35.7513427734375
17.3899999,0.689530074596405,-5.846640586853027,13.55357551574707,45.34912109375,113.0218505859375,-49.6673583984375
17.409999900000003,0.33997663855552673,-5.4252610206604,13.189657211303711,30.76171875,120.05615234375,-54.3060302734375
17.429999900000002,-0.08619125932455063,-4.766855716705322,12.914323806762695,21.8505859375,90.4693603515625,-53.8482666015625
17.4499999,-0.4668693244457245,-4.206612586975098,12.765883445739746,23.4832763671875,49.1943359375,-44.219970703125
17.4699999,-0.7326257228851318,-3.6128504276275635,12.591106414794922,20.050048828125,46.539306640625,-46.173095703125
17.4899999,-0.8547300100326538,-3.375824451446533,11.93509578704834,8.2855224609375,53.7872314453125,-52.4749755859375
17.5099999,-0.9289502501487732,-2.9879636764526367,11.276689529418945,2.593994140625,54.3060302734375,-59.4940185546875
17.5299999,-0.9696516990661621,-2.3127987384796143,10.706870079040527,-3.4942626953125,21.484375,-36.1480712890625
17.5499999,-0.9672574996948242,-2.2361843585968018,10.702081680297852,-1.3580322265625,15.045166015625,-34.8663330078125
17.5699999,-0.9385270476341248,-2.5282769203186035,10.752359390258789,-5.43212890625,20.721435546875,-43.8690185546875
17.589999900000002,-0.9265560507774353,-3.069366693496704,10.833763122558594,1.129150390625,17.7459716796875,-50.7659912109375
17.609999900000002,-0.9457096457481384,-3.4548330307006836,11.152191162109375,4.0130615234375,6.0577392578125,-53.3905029296875
17.6299999,-0.9864110946655273,-3.641580820083618,11.640608787536621,-5.279541015625,-8.2855224609375,-50.0946044921875
17.6499999,-1.015141487121582,-3.799597978591919,12.078747749328613,-9.46044921875,-20.5841064453125,-46.478271484375
17.6699999,-1.0079588890075684,-4.055777549743652,12.394782066345215,4.0283203125,-24.200439453125,-55.7403564453125
17.6899999,-0.9983820915222168,-4.359841346740723,12.650961875915527,15.0909423828125,-23.4375,-74.737548828125
17.7099999,-0.9696516990661621,-4.577713489532471,12.955025672912598,4.3182373046875,-32.3486328125,-82.672119140625
17.7299999,-0.950498104095459,-4.5825018882751465,13.378799438476562,-12.51220703125,-49.6673583984375,-79.0252685546875
17.749999900000002,-0.9241618514060974,-4.352658748626709,13.962984085083008,-11.260986328125,-64.849853515625,-82.7484130859375
17.769999900000002,-0.8786720037460327,-4.031835556030273,14.537592887878418,-1.52587890625,-77.972412109375,-91.1407470703125
17.7899999,-0.8188169598579407,-3.6296098232269287,14.966155052185059,-4.94384765625,-96.405029296875,-94.573974609375
17.8099999,-0.7422025203704834,-3.0837318897247314,15.162479400634766,-10.0250244140625,-112.8387451171875,-91.9342041015625
17.8299999,-0.6512228846549988,-2.3535003662109375,14.954183578491211,-11.4288330078125,-126.3275146484375,-85.5255126953125
17.8499999,-0.49799394607543945,-1.764526605606079,14.391546249389648,-8.3770751953125,-135.68115234375,-73.150634765625
17.8699999,-0.28730419278144836,-1.2521674633026123,13.469779014587402,-7.14111328125,-142.9595947265625,-70.709228515625
17.8899999,-0.021547814831137657,-0.9552865028381348,12.382811546325684,-0.4730224609375,-146.942138671875,-70.2056884765625
17.909999900000003,0.2801215946674347,-0.6009446382522583,11.204863548278809,4.974365234375,-151.336669921875,-66.4825439453125
17.929999900000002,0.5817909836769104,-0.07422025501728058,10.04846477508545,15.167236328125,-151.5045166015625,-54.0008544921875
17.9499999,0.8571242094039917,0.6967126727104187,8.923190116882324,21.7437744140625,-150.787353515625,-34.1033935546875
17.9699999,1.1109095811843872,1.580173134803772,7.8314337730407715,27.679443359375,-147.064208984375,-15.3045654296875
17.9899999,1.3431471586227417,2.4660277366638184,6.818686485290527,33.3251953125,-140.6707763671875,3.631591796875
18.0099999,1.5466543436050415,3.2321722507476807,5.889736175537109,37.7197265625,-134.4146728515625,25.1617431640625
18.0299999,1.7357962131500244,3.8379054069519043,5.049371242523193,48.6297607421875,-132.354736328125,49.8199462890625
18.0499999,1.8938134908676147,4.24970817565918,4.323928356170654,68.084716796875,-126.28173828125,76.324462890625
18.0699999,2.0207061767578125,4.431667327880859,3.557783842086792,66.58935546875,-119.8272705078125,101.318359375
18.089999900000002,2.1308395862579346,4.264073371887207,2.827552318572998,41.6107177734375,-109.7564697265625,127.5787353515625
18.109999900000002,2.2457611560821533,3.6583402156829834,2.1164743900299072,24.627685546875,-95.5352783203125,148.5137939453125
18.1299999,2.365471363067627,2.6240451335906982,1.7262194156646729,48.2177734375,-75.1953125,156.6619873046875
18.1499999,2.518700122833252,1.2449848651885986,1.4077905416488647,73.272705078125,-66.3909912109375,160.797119140625
18.1699999,2.695871114730835,-0.2537853717803955,1.2425906658172607,80.3680419921875,-51.483154296875,165.313720703125
18.1899999,2.8826189041137695,-1.6543933153152466,0.8667010068893433,53.7261962890625,-21.9879150390625,168.0908203125
18.2099999,3.045424461364746,-2.87064790725708,0.5602431893348694,40.58837890625,12.0697021484375,169.43359375
18.2299999,3.138798475265503,-3.9025487899780273,0.4836287498474121,42.6025390625,37.59765625,166.7938232421875
18.249999900000002,3.064578056335449,-4.764461517333984,0.7182605266571045,62.6068115234375,41.5496826171875,163.5284423828125
18.269999900000002,2.853888511657715,-5.762843608856201,1.2689268589019775,45.7000732421875,52.154541015625,164.97802734375
18.2899999,2.5091233253479004,-7.0317702293396,2.056619167327881,12.3443603515625,87.46337890625,157.3638916015625
18.3099999,2.1356279850006104,-8.616731643676758,3.0837318897247314,51.45263671875,114.7613525390625,133.4075927734375
18.3299999,1.843535304069519,-10.067618370056152,4.010287761688232,105.40771484375,112.36572265625,97.5799560546875
18.3499999,1.6735470294952393,-11.298237800598145,4.666299343109131,89.5233154296875,111.419677734375,79.52880859375
18.3699999,1.5849615335464478,-11.97100830078125,5.008669853210449,38.75732421875,146.0418701171875,67.0013427734375
18.3899999,1.482010841369629,-12.114660263061523,5.384559631347656,34.5001220703125,184.1583251953125,40.8172607421875
18.409999900000003,1.2497732639312744,-11.93509578704834,6.447585105895996,59.0667724609375,174.9420166015625,17.913818359375
18.429999900000002,0.8786720037460327,-11.858481407165527,7.884106159210205,52.4444580078125,127.6702880859375,7.7972412109375
18.4499999,0.45250412821769714,-11.959037780761719,9.718064308166504,52.734375,124.359130859375,-14.617919921875
18.4699999,0.040701430290937424,-12.054805755615234,11.097125053405762,72.44873046875,137.3291015625,-60.9130859375
18.4899999,-0.2513911724090576,-11.896788597106934,11.93509578704834,77.850341796875,128.9520263671875,-91.1865234375
18.5099999,-0.38307225704193115,-11.195286750793457,12.15296745300293,61.2640380859375,108.94775390625,-96.9390869140625
18.5299999,-0.4357447028160095,-9.974244117736816,11.616666793823242,51.3458251953125,99.7772216796875,-103.6224365234375
18.5499999,-0.47884035110473633,-8.580819129943848,10.690110206604004,57.7850341796875,120.1171875,-125.2899169921875
18.5699999,-0.6129156351089478,-7.249642848968506,9.63187313079834,39.886474609375,134.063720703125,-144.6990966796875
18.589999900000002,-0.8978256583213806,-6.042964935302734,9.078812599182129,18.2647705078125,128.9215087890625,-150.81787109375
18.609999900000002,-1.278503656387329,-4.9583916664123535,9.023746490478516,40.4205322265625,110.6414794921875,-148.712158203125
18.6299999,-1.6879122257232666,-3.971980571746826,9.3828763961792,76.934814453125,97.0001220703125,-150.08544921875
18.6499999,-2.078166961669922,-2.875436305999756,9.947908401489258,71.746826171875,97.869873046875,-154.3426513671875
18.6699999,-2.3511061668395996,-2.1116859912872314,10.57040023803711,42.6483154296875,87.7532958984375,-127.410888671875
18.6899999,-2.5091233253479004,-1.3886369466781616,11.185709953308105,18.4478759765625,65.887451171875,-114.166259765625
18.7099999,-2.5282769203186035,-1.0103530883789062,12.06198787689209,17.5018310546875,58.197021484375,-118.011474609375
18.7299999,-2.4420857429504395,-0.8451532125473022,13.007698059082031,13.0462646484375,42.9840087890625,-115.4937744140625
18.749999900000002,-2.3271639347076416,-0.7876923680305481,14.018051147460938,-11.260986328125,10.4217529296875,-100.76904296875
18.769999900000002,-2.2361843585968018,-0.828393816947937,14.935029983520508,-22.216796875,-15.13671875,-90.33203125
18.7899999,-2.2002713680267334,-1.094150185585022,15.569493293762207,-7.659912109375,-25.360107421875,-89.4622802734375
18.8099999,-2.2146365642547607,-1.5490485429763794,15.820884704589844,0.5035400390625,-35.8123779296875,-92.437744140625
18.8299999,-2.2361843585968018,-1.987187385559082,15.792154312133789,-4.9896240234375,-51.8646240234375,-93.048095703125
18.8499999,-2.252943754196167,-2.252943754196167,15.64610767364502,-5.06591796875,-67.8863525390625,-89.2486572265625
18.8699999,-2.212242364883423,-2.343923568725586,15.416264533996582,-5.9814453125,-81.35986328125,-85.2813720703125
18.8899999,-2.123656988143921,-2.2673089504241943,15.148114204406738,-2.471923828125,-93.231201171875,-85.540771484375
18.909999900000003,-2.0015525817871094,-2.1045033931732178,14.88475227355957,8.3160400390625,-105.6976318359375,-84.991455078125
18.929999900000002,-1.8267759084701538,-1.8148049116134644,14.487314224243164,11.3983154296875,-121.612548828125,-78.0792236328125
18.9499999,-1.6208745241165161,-1.4197616577148438,13.984532356262207,9.21630859375,-134.002685546875,-72.265625
18.9699999,-1.3838485479354858,-0.9409212470054626,13.30457878112793,3.173828125,-142.303466796875,-67.138671875
18.9899999,-1.094150185585022,-0.5051765441894531,12.586318016052246,0.9002685546875,-148.6663818359375,-59.4482421875
19.0099999,-0.7829039692878723,-0.13168109953403473,11.820174217224121,16.632080078125,-155.517578125,-50.1861572265625
19.0299999,-0.4165911078453064,0.17717093229293823,11.039664268493652,36.80419921875,-160.2783203125,-41.534423828125
19.0499999,-0.004788403399288654,0.43335050344467163,10.266336441040039,40.6341552734375,-159.36279296875,-31.4788818359375
19.0699999,0.4429273009300232,0.629675030708313,9.344569206237793,22.0794677734375,-161.80419921875,-19.5465087890625
19.089999900000002,1.3670891523361206,0.9816226959228516,7.510610580444336,25.3143310546875,-148.9105224609375,-2.9449462890625
19.109999900000002,1.7693150043487549,1.2282254695892334,6.703764915466309,47.6837158203125,-143.6767578125,9.765625
19.1299999,2.0829553604125977,1.6089035272598267,6.033388137817383,64.910888671875,-143.1884765625,25.81787109375
19.1499999,2.31758713722229,2.0398597717285156,5.322310447692871,73.6236572265625,-144.4244384765625,47.5616455078125
19.1699999,2.497152328491211,2.432508945465088,4.431667327880859,68.0084228515625,-135.2691650390625,64.8956298828125
19.1899999,2.676717519760132,2.7030537128448486,3.203441858291626,51.7578125,-114.6240234375,76.96533203125
19.2099999,2.8874073028564453,2.779668092727661,1.8986018896102905,36.376953125,-87.9364013671875,90.0726318359375
19.2299999,3.141192674636841,2.7102363109588623,0.689530074596405,28.9459228515625,-67.596435546875,104.9652099609375
19.249999900000002,3.4189200401306152,2.5330653190612793,-0.09576806426048279,35.4156494140625,-51.26953125,118.5302734375
19.269999900000002,3.6583402156829834,2.255337953567505,-0.5578489899635315,42.5262451171875,-36.0260009765625,130.9661865234375
19.2899999,3.8115692138671875,1.8722656965255737,-0.6655880808830261,36.68212890625,-15.411376953125,145.1873779296875
19.3099999,3.8810009956359863,1.2114660739898682,-0.6105214357376099,19.805908203125,4.3792724609375,159.11865234375
19.3299999,3.8307228088378906,0.4213795065879822,-0.33518823981285095,17.425537109375,20.99609375,162.2772216796875
19.3499999,3.6559460163116455,-0.6057330369949341,0.2585737705230713,55.7861328125,39.2608642578125,164.8712158203125
19.3699999,3.378218650817871,-1.8602946996688843,0.7996633648872375,75.958251953125,44.25048828125,169.2352294921875
19.3899999,3.0142998695373535,-3.292027235031128,1.357512354850769,30.609130859375,56.060791015625,166.07666015625
19.409999900000003,2.607285737991333,-4.817133903503418,2.008735179901123,-11.7340087890625,83.6639404296875,153.167724609375
19.429999900000002,2.279279947280884,-6.19379997253418,2.892195701599121,4.8370361328125,101.7303466796875,140.6097412109375
19.4499999,2.1499931812286377,-7.168240070343018,4.0294413566589355,68.4967041015625,90.39306640625,136.2762451171875
19.4699999,2.1499931812286377,-7.726089000701904,4.8937482833862305,83.4808349609375,76.995849609375,135.162353515625
19.4899999,2.233790159225464,-8.11634349822998,5.453991413116455,27.9693603515625,101.3336181640625,125.9918212890625
19.5099999,2.22660756111145,-8.669404029846191,5.626373767852783,15.3350830078125,132.415771484375,109.6649169921875
19.5299999,2.0374655723571777,-9.557653427124023,5.904101371765137,49.346923828125,136.8865966796875,88.6688232421875
19.5499999,1.7070658206939697,-10.611102104187012,6.665457725524902,75.6988525390625,133.758544921875,62.408447265625
19.5699999,1.3239935636520386,-11.468226432800293,7.843404769897461,80.56640625,134.368896484375,32.65380859375
19.589999900000002,0.9672574996948242,-11.96861457824707,9.241618156433105,60.394287109375,135.498046875,10.5743408203125
19.609999900000002,0.6919242739677429,-12.126631736755371,10.678139686584473,39.764404296875,126.89208984375,-4.8828125
19.6299999,0.49559974670410156,-12.088324546813965,11.772290229797363,51.1932373046875,106.781005859375,-28.900146484375
19.6499999,0.3878606855869293,-11.791443824768066,12.346898078918457,79.7882080078125,99.0142822265625,-60.6842041015625
19.6699999,0.3208230137825012,-11.085153579711914,12.378023147583008,87.95166015625,108.9935302734375,-85.662841796875
19.6899999,0.2537853717803955,-9.96945571899414,11.939884185791016,78.033447265625,110.04638671875,-90.9271240234375
19.7099999,0.12928688526153564,-8.473079681396484,11.314997673034668,70.4803466796875,97.198486328125,-94.90966796875
19.7299999,-0.08858546614646912,-6.514622688293457,11.02051067352295,67.7337646484375,95.4132080078125,-110.992431640625
19.749999900000002,-0.3208230137825012,-4.7189717292785645,10.867281913757324,54.6112060546875,88.80615234375,-102.294921875
19.769999900000002,-0.6200982332229614,-3.1699230670928955,10.84094524383545,33.5845947265625,69.64111328125,-85.99853515625
19.7899999,-0.9097966551780701,-2.3032219409942627,10.836156845092773,14.5111083984375,60.699462890625,-86.4105224609375
19.8099999,-1.2210428714752197,-1.965639591217041,10.781089782714844,2.0904541015625,60.8978271484375,-100.555419921875
19.8299999,-1.4891934394836426,-2.1164743900299072,10.793061256408691,3.60107421875,61.9049072265625,-100.52490234375
19.8499999,-1.6519991159439087,-2.2385785579681396,10.78587818145752,8.8958740234375,41.6412353515625,-88.56201171875
19.8699999,-1.7094600200653076,-2.293645143508911,10.78348445892334,11.8255615234375,29.876708984375,-85.0677490234375
19.8899999,-1.699883222579956,-2.276885747909546,10.884040832519531,-10.528564453125,35.3851318359375,-89.752197265625
19.909999900000003,-1.6879122257232666,-2.274491548538208,11.099518775939941,-36.956787109375,32.3944091796875,-88.8519287109375
19.929999900000002,-1.680729627609253,-2.3032219409942627,11.57596492767334,-41.5191650390625,11.65771484375,-80.2764892578125
19.9499999,-1.678335428237915,-2.2649147510528564,12.193669319152832,-27.862548828125,-7.4462890625,-79.77294921875
19.9699999,-1.6160861253738403,-2.2649147510528564,12.775460243225098,-23.162841796875,-16.2353515625,-80.3070068359375
19.9899999,-1.479616641998291,-2.2864625453948975,12.842497825622559,-46.112060546875,-30.3497314453125,-74.737548828125
20.0099999,-1.259350061416626,-2.365471363067627,12.559982299804688,-75.6072998046875,-32.989501953125,-70.6634521484375
20.0299999,-1.0031704902648926,-2.4899697303771973,12.040440559387207,-48.9501953125,-20.5535888671875,-71.71630859375
20.0499999,-0.7206547260284424,-2.557007312774658,11.367670059204102,-13.824462890625,-21.17919921875,-74.21875
20.0699999,-0.44771572947502136,-2.497152328491211,10.769119262695312,3.9520263671875,-27.374267578125,-65.8721923828125
20.089999900000002,-0.19871874153614044,-2.4157495498657227,10.261548042297363,9.1705322265625,-29.4952392578125,-54.901123046875
20.109999900000002,-0.0071826050989329815,-2.5115175247192383,9.938331604003906,-19.287109375,-31.55517578125,-52.5665283203125
20.1299999,0.181959331035614,-2.8395233154296875,9.974244117736816,-54.13818359375,-30.181884765625,-61.8896484375
20.1499999,0.3495534360408783,-3.3638534545898438,10.591948509216309,-30.2734375,-32.3486328125,-66.5740966796875
20.1699999,0.5578489899635315,-3.821146011352539,11.444284439086914,8.5296630859375,-52.6580810546875,-64.8345947265625
20.1899999,0.7948749661445618,-4.079719543457031,12.351686477661133,8.4075927734375,-68.4051513671875,-64.6209716796875
20.2099999,1.0247182846069336,-4.168305397033691,12.904747009277344,-1.3427734375,-68.4967041015625,-68.4661865234375
20.2299999,1.2114660739898682,-4.146757125854492,13.017274856567383,-3.082275390625,-70.9991455078125,-71.5789794921875
20.249999900000002,1.3120225667953491,-4.060565948486328,12.859257698059082,9.5062255859375,-78.8116455078125,-72.357177734375
