# Time (seconds),Accel_X,Accel_Y,Accel_Z,Gyro_X,Gyro_Y,Gyro_Z
0.0099999,2.2242133617401123,-9.555258750915527,-0.011971008032560349,-29.388427734375,-11.5814208984375,4.9896240234375
0.029999900000000003,2.1954829692840576,-9.569623947143555,-0.1388636976480484,-22.3388671875,-3.326416015625,4.9285888671875
0.0499999,2.1571757793426514,-9.583989143371582,-0.3711012601852417,-12.75634765625,2.6702880859375,2.74658203125
0.0699999,2.123656988143921,-9.617507934570312,-0.5554547905921936,-1.3427734375,4.45556640625,0.762939453125
0.08999990000000001,2.1140801906585693,-9.636661529541016,-0.6105214357376099,6.317138671875,4.8370361328125,0.640869140625
0.10999990000000001,2.121262788772583,-9.639056205749512,-0.5267243981361389,4.5928955078125,3.4027099609375,1.8310546875
0.1299999,2.1284453868865967,-9.617507934570312,-0.42616790533065796,-2.8533935546875,-0.8697509765625,2.7618408203125
0.14999990000000002,2.1308395862579346,-9.581595420837402,-0.3256114423274994,-13.36669921875,-0.762939453125,4.6539306640625
0.1699999,2.126051187515259,-9.557653427124023,-0.33518823981285095,-18.218994140625,0.9613037109375,6.0272216796875
0.1899999,2.1092917919158936,-9.533711433410645,-0.4213795065879822,-9.6893310546875,3.2806396484375,5.5999755859375
0.20999990000000002,2.097320795059204,-9.555258750915527,-0.5219359993934631,-1.2969970703125,5.9661865234375,4.6539306640625
0.2299999,2.070984363555908,-9.586383819580078,-0.6344634294509888,-0.762939453125,6.561279296875,4.6844482421875
0.2499999,2.0374655723571777,-9.607931137084961,-0.811634361743927,-3.7078857421875,8.544921875,5.0201416015625
0.2699999,2.0254945755004883,-9.648633003234863,-0.9169792532920837,-0.885009765625,18.3258056640625,7.110595703125
0.28999990000000003,2.0207061767578125,-9.749189376831055,-0.8643068075180054,3.7689208984375,22.7203369140625,9.2620849609375
0.3099999,2.013523578643799,-9.93593692779541,-0.8571242094039917,-7.2174072265625,5.615234375,6.4239501953125
0.3299999,2.0039467811584473,-10.393229484558105,-0.8547300100326538,-35.7666015625,-2.0599365234375,5.096435546875
0.34999990000000003,1.968033790588379,-11.125855445861816,-1.0007762908935547,-30.70068359375,13.36669921875,-2.01416015625
0.3699999,1.9273324012756348,-11.887211799621582,-1.4389152526855469,-29.8614501953125,16.78466796875,-20.5230712890625
0.3899999,1.9608511924743652,-12.543222427368164,-1.7501614093780518,-35.675048828125,23.4832763671875,-30.7159423828125
0.40999990000000003,2.073378562927246,-12.751518249511719,-1.8507179021835327,-37.109375,28.62548828125,-34.515380859375
0.4299999,2.279279947280884,-12.516886711120605,-1.6903064250946045,-29.2510986328125,24.2156982421875,-37.994384765625
0.4499999,2.5474305152893066,-12.078747749328613,-1.436521053314209,-16.510009765625,17.730712890625,-39.764404296875
0.4699999,2.849100112915039,-11.645397186279297,-1.1779472827911377,-13.2293701171875,22.1710205078125,-43.182373046875
0.4899999,3.1435868740081787,-11.348516464233398,-1.0247182846069336,-17.9595947265625,30.517578125,-52.0477294921875
0.5099999,3.4117374420166016,-11.204863548278809,-0.9552865028381348,-23.9105224609375,28.8238525390625,-56.182861328125
0.5299999,3.6296098232269287,-11.058817863464355,-0.7613561153411865,-19.6685791015625,27.28271484375,-60.577392578125
0.5499999,3.7924153804779053,-10.96304988861084,-0.5482721924781799,-16.2506103515625,20.0653076171875,-62.8662109375
0.5699999,3.8953661918640137,-10.828974723815918,-0.3208230137825012,-24.566650390625,10.009765625,-64.2242431640625
0.5899998999999999,3.950432777404785,-10.740388870239258,-0.15083470940589905,-42.449951171875,5.7830810546875,-66.0552978515625
0.6099998999999999,3.9839515686035156,-10.620678901672363,-0.11971008777618408,-54.3060302734375,2.1209716796875,-67.7490234375
0.6299999,4.031835556030273,-10.520122528076172,-0.06464344263076782,-36.8499755859375,4.08935546875,-71.8536376953125
0.6499999,4.086902141571045,-10.27591323852539,-0.023942016065120697,-18.06640625,0.7171630859375,-80.6732177734375
0.6699999,4.177882194519043,-9.981427192687988,0.14604631066322327,-3.0975341796875,-6.0272216796875,-84.747314453125
0.6899999,4.256890773773193,-9.466673851013184,0.30885201692581177,-2.471923828125,-17.1661376953125,-85.418701171875
0.7099999,4.331110954284668,-8.9064302444458,0.40222588181495667,-10.040283203125,-25.2532958984375,-81.4666748046875
0.7299998999999999,4.388571739196777,-8.236053466796875,0.48602294921875,-0.030517578125,-23.345947265625,-80.2154541015625
0.7499998999999999,4.438849925994873,-7.627926826477051,0.4884171485900879,-4.9896240234375,-30.4718017578125,-78.765869140625
0.7699999,4.4939165115356445,-7.053318023681641,0.5434837937355042,-15.106201171875,-42.449951171875,-75.25634765625
0.7899999,4.5394062995910645,-6.521805286407471,0.6320692300796509,-9.857177734375,-49.8504638671875,-71.59423828125
0.8099999,4.563348293304443,-6.004657745361328,0.6943184733390808,-4.2724609375,-59.173583984375,-63.690185546875
0.8299999,4.546588897705078,-5.4659624099731445,0.6727706789970398,-16.3116455078125,-71.1517333984375,-56.33544921875
0.8499998999999999,4.474762916564941,-4.886565685272217,0.4405331015586853,-35.400390625,-81.35986328125,-50.079345703125
0.8699998999999999,4.331110954284668,-4.23773717880249,-0.0071826050989329815,-23.98681640625,-82.45849609375,-46.4019775390625
0.8899999,4.134786128997803,-3.488351821899414,-0.6320692300796509,10.6048583984375,-75.927734375,-39.154052734375
0.9099999,3.88818359375,-2.6671407222747803,-1.3934253454208374,31.3873291015625,-74.4476318359375,-23.86474609375
0.9299999,3.622427225112915,-1.7812861204147339,-2.142810583114624,39.1082763671875,-72.0977783203125,-2.13623046875
0.9499999,3.3734302520751953,-1.0630255937576294,-2.7700912952423096,45.4254150390625,-66.2078857421875,27.435302734375
0.9699998999999999,3.1723172664642334,-0.6129156351089478,-3.1268274784088135,44.5098876953125,-61.126708984375,55.9844970703125
0.9899998999999999,3.002328872680664,-0.667982280254364,-3.2968156337738037,42.8619384765625,-69.9005126953125,74.89013671875
1.0099999,2.8371291160583496,-1.2234370708465576,-3.3901896476745605,66.2994384765625,-76.171875,78.5369873046875
1.0299999,2.5905263423919678,-2.164358377456665,-3.620033025741577,79.3609619140625,-69.8699951171875,81.024169921875
1.0499999,2.1763293743133545,-3.318363666534424,-4.369418144226074,37.6739501953125,-67.8253173828125,93.93310546875
1.0699999,1.6352397203445435,-4.596867084503174,-5.475539207458496,6.7138671875,-52.093505859375,116.9281005859375
1.0899999,0.7326257228851318,-7.704541206359863,-7.740454196929932,34.0118408203125,1.9989013671875,100.799560546875
1.1099999,0.6153098344802856,-9.042900085449219,-8.118738174438477,47.5311279296875,19.8822021484375,81.6802978515625
1.1299999,0.7805097699165344,-9.885659217834473,-7.862558364868164,34.7900390625,27.9083251953125,96.038818359375
1.1499999,1.048660397529602,-9.995792388916016,-7.06528902053833,4.3487548828125,26.947021484375,112.0758056640625
1.1699998999999999,1.3335703611373901,-9.99100399017334,-6.01423454284668,4.608154296875,29.6173095703125,118.011474609375
1.1899998999999999,1.4915876388549805,-10.007762908935547,-5.142745018005371,8.1939697265625,23.5595703125,111.846923828125
1.2099999,1.482010841369629,-10.362105369567871,-4.55616569519043,9.5367431640625,26.4739990234375,101.654052734375
1.2299999,1.3000515699386597,-10.92953109741211,-4.3406877517700195,20.1568603515625,37.7044677734375,96.13037109375
1.2499999,1.0654197931289673,-11.793837547302246,-4.264073371887207,35.82763671875,49.896240234375,96.3134765625
1.2699999,0.8355764150619507,-12.686874389648438,-4.24970817565918,45.928955078125,45.47119140625,74.3560791015625
1.2899999,0.6847416758537292,-13.589488983154297,-4.165910720825195,51.483154296875,40.496826171875,40.771484375
1.3099999,0.5817909836769104,-14.314931869506836,-4.170699596405029,60.455322265625,48.7213134765625,19.9432373046875
1.3299999,0.5291185975074768,-15.018827438354492,-4.412513732910156,80.0323486328125,67.56591796875,8.087158203125
1.3499999,0.5027823448181152,-14.963760375976562,-4.367023944854736,73.7457275390625,103.912353515625,-10.19287109375
1.3699999,0.49320554733276367,-14.463372230529785,-4.247313976287842,2.288818359375,105.8197021484375,-6.65283203125
1.3899999,0.5267243981361389,-13.354857444763184,-3.6942532062530518,-6.89697265625,95.733642578125,10.8795166015625
1.4099999,0.5602431893348694,-11.81059741973877,-2.9065608978271484,8.11767578125,100.9979248046875,7.4462890625
1.4299998999999999,0.5961562395095825,-10.558429718017578,-2.0901381969451904,7.9498291015625,105.865478515625,6.744384765625
1.4499999,0.6727706789970398,-9.907206535339355,-1.2306196689605713,-3.41796875,102.935791015625,10.2081298828125
1.4699999,0.751779317855835,-9.847352027893066,-0.5817909836769104,-18.3868408203125,88.5009765625,6.134033203125
1.4899999,0.849941611289978,-10.271124839782715,-0.2537853717803955,0.2288818359375,81.6192626953125,-7.354736328125
1.5099999,0.9744400978088379,-10.862493515014648,-0.10773907601833344,29.6783447265625,95.611572265625,-21.759033203125
1.5299999,1.1252747774124146,-11.489773750305176,-0.05746084079146385,17.486572265625,99.029541015625,-22.5677490234375
1.5499999,1.316810965538025,-12.09311294555664,0.09816227108240128,-7.4920654296875,81.634521484375,-23.773193359375
1.5699999,1.5394717454910278,-12.631808280944824,0.38067805767059326,-25.4669189453125,63.9495849609375,-34.637451171875
1.5899999,1.7621324062347412,-13.113042831420898,0.6416460275650024,-26.0162353515625,62.0269775390625,-47.393798828125
1.6099999,1.9512743949890137,-13.385981559753418,0.6799532771110535,-35.46142578125,60.48583984375,-60.1348876953125
1.6299999,2.1164743900299072,-13.390769958496094,0.6488286852836609,-41.3055419921875,59.5703125,-66.22314453125
1.6499999,2.279279947280884,-13.266271591186523,0.586579442024231,-39.7796630859375,55.206298828125,-65.338134765625
1.6699999,2.4229321479797363,-12.986149787902832,0.47405192255973816,-46.0357666015625,45.196533203125,-74.3865966796875
1.6899998999999999,2.561795711517334,-12.749124526977539,0.31603461503982544,-36.285400390625,43.6859130859375,-88.3636474609375
1.7099999,2.7078421115875244,-12.476184844970703,0.1149216815829277,-20.2178955078125,46.142578125,-100.4638671875
1.7299999,2.8658595085144043,-12.196063041687012,-0.0454898327589035,-18.49365234375,44.708251953125,-107.6812744140625
1.7499999,3.0550012588500977,-11.78665542602539,-0.0933738648891449,-19.6380615234375,40.5120849609375,-116.51611328125
1.7699999,3.292027235031128,-11.322179794311523,0.07422025501728058,-12.359619140625,36.07177734375,-123.077392578125
1.7899999,3.5697548389434814,-10.778696060180664,0.4572925269603729,-1.678466796875,29.9224853515625,-126.9683837890625
1.8099999,3.861847400665283,-10.160991668701172,0.9457096457481384,-1.2359619140625,16.9677734375,-131.0577392578125
1.8299999,4.144362926483154,-9.47146224975586,1.3718775510787964,-17.547607421875,-1.708984375,-132.080078125
1.8499999,4.398148536682129,-8.789113998413086,1.6974890232086182,-36.2396240234375,-9.368896484375,-126.6326904296875
1.8699999,4.6040496826171875,-8.097189903259277,1.7932571172714233,-36.8804931640625,-11.53564453125,-123.1689453125
1.8899999,4.764461517333984,-7.390900611877441,1.7980455160140991,-28.3660888671875,-18.3258056640625,-123.7640380859375
1.9099999,4.900930881500244,-6.761225700378418,1.778891921043396,-14.7247314453125,-28.4576416015625,-120.7733154296875
1.9299998999999999,4.970362663269043,-6.004657745361328,1.699883222579956,-10.7574462890625,-40.283203125,-117.2332763671875
1.9499999,5.020640850067139,-5.262455463409424,1.6543933153152466,-10.406494140625,-44.7998046875,-108.2611083984375
1.9699999,5.032611846923828,-4.467580318450928,1.625662922859192,-6.072998046875,-50.933837890625,-97.747802734375
1.9899999,5.018246650695801,-3.7205893993377686,1.6160861253738403,-7.5225830078125,-68.5272216796875,-90.240478515625
2.0099999,4.9799394607543945,-2.983175277709961,1.6065093278884888,-4.302978515625,-81.634521484375,-85.1898193359375
2.0299999,4.886565685272217,-2.1811177730560303,1.4891934394836426,4.9285888671875,-86.2884521484375,-72.2198486328125
2.0499999,4.745307922363281,-1.3838485479354858,1.194706678390503,13.48876953125,-90.850830078125,-47.1038818359375
2.0699999,4.563348293304443,-0.5961562395095825,0.768538773059845,33.447265625,-98.2818603515625,-22.7508544921875
2.0899999,4.333505153656006,-0.040701430290937424,0.20111294090747833,45.5474853515625,-109.130859375,-3.41796875
2.1099999,4.10366153717041,0.21308395266532898,-0.4165911078453064,37.3992919921875,-117.7215576171875,14.3890380859375
2.1299999,3.8498764038085938,0.05506663769483566,-1.2497732639312744,27.587890625,-123.748779296875,27.4505615234375
2.1499999,3.5913026332855225,-0.3974374830722809,-2.3774423599243164,39.1082763671875,-122.772216796875,33.0657958984375
2.1699999,3.315969467163086,-0.8978256583213806,-3.5434184074401855,72.2198486328125,-99.30419921875,33.38623046875
2.1899999,3.0119056701660156,-1.455674648284912,-4.754884719848633,72.296142578125,-88.31787109375,52.8411865234375
2.2099999,2.6671407222747803,-1.944091796875,-5.767632007598877,42.4041748046875,-92.34619140625,81.1004638671875
2.2299999,2.3511061668395996,-2.715024709701538,-6.588842868804932,37.322998046875,-86.151123046875,97.1527099609375
2.2499999,2.049436569213867,-3.624821424484253,-7.319074630737305,54.6875,-66.802978515625,85.601806640625
2.2699999,1.843535304069519,-4.649539470672607,-7.922413349151611,44.98291015625,-47.515869140625,78.857421875
2.2899999,1.7357962131500244,-5.535394191741943,-8.415618896484375,-2.0751953125,-44.952392578125,97.7630615234375
2.3099999,1.7621324062347412,-6.320692539215088,-8.588001251220703,-11.077880859375,-36.376953125,116.2567138671875
2.3299999,1.9177556037902832,-7.096413612365723,-8.544905662536621,39.85595703125,-20.81298828125,105.316162109375
2.3499999,2.1715409755706787,-7.915230751037598,-8.339004516601562,64.8651123046875,-11.444091796875,84.503173828125
2.3699999,2.473210334777832,-8.738836288452148,-8.022970199584961,45.5474853515625,-6.5460205078125,83.3282470703125
2.3899999,2.7269957065582275,-9.378087997436523,-7.783549785614014,27.923583984375,-4.791259765625,89.019775390625
2.4099999,2.913743495941162,-9.797073364257812,-7.594407558441162,26.55029296875,3.692626953125,83.831787109375
2.4299999,3.1004912853240967,-10.182539939880371,-7.180211067199707,41.19873046875,20.782470703125,75.6683349609375
2.4499999,3.203441858291626,-10.465055465698242,-6.756437301635742,15.625,14.2059326171875,74.249267578125
2.4699999,3.2130186557769775,-10.742782592773438,-6.308721542358398,-8.9111328125,0.6866455078125,75.1800537109375
2.4899999,3.0119056701660156,-10.831368446350098,-6.303933143615723,0.67138671875,6.0272216796875,69.427490234375
2.5099999,2.628833532333374,-10.742782592773438,-6.72531270980835,35.675048828125,35.888671875,57.6934814453125
2.5299999,2.207453966140747,-10.615890502929688,-7.0317702293396,49.774169921875,74.0509033203125,59.9822998046875
2.5499999,1.86508309841156,-10.529699325561523,-7.010222434997559,33.1268310546875,73.18115234375,64.910888671875
2.5699999,1.6208745241165161,-10.457873344421387,-6.615179061889648,32.6080322265625,54.9774169921875,55.17578125
2.5899999,1.3862427473068237,-10.307038307189941,-6.174646377563477,58.7921142578125,68.54248046875,41.3818359375
2.6099999,1.192312479019165,-10.127472877502441,-5.78678560256958,77.2247314453125,106.8572998046875,44.0673828125
2.6299999,1.1563993692398071,-10.299856185913086,-4.32871675491333,28.656005859375,104.98046875,49.285888671875
2.6499999,1.3431471586227417,-10.776301383972168,-3.2369606494903564,29.1290283203125,85.2203369140625,31.341552734375
2.6699999,1.5634137392044067,-11.382035255432129,-2.4636335372924805,22.796630859375,85.296630859375,24.200439453125
2.6899999,1.7405846118927002,-12.047622680664062,-1.9967641830444336,-2.99072265625,103.8055419921875,32.3028564453125
2.7099999,1.8483237028121948,-12.63899040222168,-1.9728221893310547,-38.2537841796875,101.1962890625,27.6947021484375
2.7299999,1.9369091987609863,-13.261483192443848,-2.140416383743286,-37.04833984375,89.17236328125,9.6282958984375
2.7499999,2.011129379272461,-13.73314094543457,-2.341529369354248,-0.1983642578125,104.4464111328125,-10.7269287109375
2.7699999,2.10210919380188,-13.998897552490234,-2.473210334777832,14.46533203125,125.213623046875,-23.4527587890625
2.7899999,2.2912509441375732,-14.235923767089844,-2.169146776199341,1.190185546875,125.1068115234375,-26.702880859375
2.8099999,2.6168625354766846,-14.518439292907715,-1.414973258972168,-25.390625,96.588134765625,-40.1153564453125
2.8299999,3.002328872680664,-14.810531616210938,-0.38307225704193115,-25.8331298828125,75.98876953125,-68.42041015625
2.8499999,3.3255462646484375,-14.9182710647583,0.4596867263317108,-10.6201171875,71.8994140625,-94.4366455078125
2.8699999,3.490746021270752,-14.690821647644043,0.8092401623725891,-25.2838134765625,66.7572021484375,-101.9134521484375
2.8899999,3.514688014984131,-14.140154838562012,0.8643068075180054,-37.109375,61.6912841796875,-103.1341552734375
2.9099999,3.4739866256713867,-13.390769958496094,0.7015010714530945,-35.3240966796875,53.0242919921875,-110.8245849609375
2.9299999,3.466804027557373,-12.588712692260742,0.6320692300796509,-34.85107421875,44.281005859375,-121.9635009765625
2.9499999,3.514688014984131,-11.767500877380371,0.5506663918495178,-35.9039306640625,33.0963134765625,-128.72314453125
2.9699999,3.627215623855591,-10.896012306213379,0.5315127968788147,-29.3121337890625,26.824951171875,-132.8582763671875
2.9899999,3.773261785507202,-9.99100399017334,0.5003881454467773,-20.1568603515625,24.0325927734375,-135.3607177734375
3.0099999,3.93367338180542,-9.0859956741333,0.4381389021873474,-17.8985595703125,15.045166015625,-134.8876953125
3.0299999,4.101267337799072,-8.238448143005371,0.3902548849582672,-15.289306640625,7.354736328125,-135.07080078125
3.0499999,4.268861770629883,-7.46033239364624,0.3447650372982025,-15.7470703125,1.8310546875,-135.5438232421875
3.0699999,4.448426723480225,-6.718130111694336,0.38067805767059326,-6.317138671875,0.6561279296875,-136.322021484375
3.0899999,4.649539470672607,-5.963956356048584,0.5817909836769104,6.4544677734375,-5.3253173828125,-131.89697265625
3.1099999,4.845864295959473,-5.166687488555908,0.8643068075180054,5.0506591796875,-25.8941650390625,-120.17822265625
3.1299999,5.0254292488098145,-4.331110954284668,1.213860273361206,0.06103515625,-42.694091796875,-111.38916015625
3.1499999,5.142745018005371,-3.4763808250427246,1.5179238319396973,4.45556640625,-51.7425537109375,-103.485107421875
3.1699999,5.171475887298584,-2.6192567348480225,1.6136919260025024,-11.65771484375,-66.436767578125,-91.6595458984375
3.1899999,5.109226226806641,-1.699883222579956,1.45806884765625,-32.7606201171875,-81.634521484375,-76.35498046875
3.2099999,4.989516258239746,-0.790086567401886,1.1516109704971313,-29.388427734375,-81.878662109375,-55.1300048828125
3.2299999,4.845864295959473,0.09816227108240128,0.730231523513794,-21.42333984375,-85.99853515625,-29.571533203125
3.2499999,4.728548526763916,0.7015010714530945,0.2801215946674347,-1.15966796875,-98.663330078125,-5.157470703125
3.2699999,4.668693542480469,0.8834604024887085,-0.17477671802043915,26.7181396484375,-107.6202392578125,8.575439453125
3.2899999,4.620809078216553,0.689530074596405,-0.7637503147125244,54.7027587890625,-108.5052490234375,5.67626953125
3.3099999,4.575319290161133,0.2346317619085312,-1.53707754611969,82.977294921875,-102.325439453125,4.2724609375
3.3299999000000002,4.481945514678955,-0.1867477297782898,-2.3965959548950195,92.8955078125,-94.940185546875,16.4031982421875
3.3499999,4.268861770629883,-0.48602294921875,-3.222595453262329,78.6590576171875,-93.3685302734375,40.7562255859375
3.3699999,3.8594532012939453,-0.8259995579719543,-4.1156325340271,49.957275390625,-101.0589599609375,71.990966796875
3.3899999,3.3255462646484375,-1.4891934394836426,-5.2049946784973145,24.6124267578125,-103.21044921875,94.6807861328125
3.4099999,2.827552318572998,-2.5785553455352783,-6.315904140472412,33.3709716796875,-74.2950439453125,90.9423828125
3.4299999,2.518700122833252,-3.7445313930511475,-7.2783732414245605,62.9119873046875,-47.7447509765625,68.145751953125
3.4499999,2.5450363159179688,-4.659116744995117,-7.575253963470459,96.2066650390625,-34.759521484375,57.6934814453125
3.4699999,2.8107926845550537,-4.987122058868408,-6.950367450714111,85.9832763671875,-40.2984619140625,76.2786865234375
3.4899999,3.1052796840667725,-4.8937482833862305,-5.918466567993164,9.7198486328125,-80.535888671875,114.3951416015625
3.5099999,3.315969467163086,-5.1116204261779785,-5.044582843780518,-25.08544921875,-106.597900390625,143.707275390625
3.5299999,3.354276657104492,-5.659893035888672,-4.613626480102539,7.8125,-88.653564453125,121.6278076171875
3.5499999,3.19865345954895,-6.739677906036377,-4.606443881988525,40.46630859375,-69.549560546875,100.6622314453125
3.5699999,2.7916390895843506,-7.9415669441223145,-5.152322292327881,-6.16455078125,-97.9766845703125,114.837646484375
3.5899999,2.1978771686553955,-9.394847869873047,-6.244078159332275,-48.583984375,-122.6043701171875,139.7552490234375
3.6099999,1.4963760375976562,-10.714052200317383,-7.915230751037598,-12.51220703125,-86.212158203125,113.1439208984375
3.6299999,0.828393816947937,-11.887211799621582,-9.727641105651855,59.844970703125,-14.7247314453125,62.1185302734375
3.6499999,0.3998316824436188,-12.557587623596191,-11.14500904083252,62.5457763671875,3.5858154296875,53.192138671875
3.6699999,0.22266076505184174,-12.797008514404297,-11.63103199005127,20.5230712890625,-0.9307861328125,72.9522705078125
3.6899999,0.24899697303771973,-12.619836807250977,-11.314997673034668,27.3895263671875,11.4288330078125,61.8438720703125
3.7099999,0.33997663855552673,-12.231976509094238,-10.702081680297852,49.5758056640625,35.5377197265625,30.2734375
3.7299999,0.3974374830722809,-11.81059741973877,-10.012551307678223,67.8253173828125,57.708740234375,18.6614990234375
3.7499999,0.3016694188117981,-11.164162635803223,-9.428366661071777,70.556640625,74.03564453125,21.9573974609375
3.7699999,0.10534487664699554,-10.400412559509277,-8.911218643188477,79.3914794921875,93.6431884765625,16.29638671875
3.7899999,-0.0694318488240242,-9.885659217834473,-8.17380428314209,87.34130859375,121.7041015625,19.5465087890625
3.8099999,-0.11971008777618408,-9.576807022094727,-7.2137298583984375,55.877685546875,129.2877197265625,21.392822265625
3.8299999000000002,0.033518824726343155,-9.53849983215332,-6.0190229415893555,23.101806640625,116.546630859375,19.1802978515625
3.8499999,0.40940847992897034,-9.78989028930664,-4.606443881988525,12.5885009765625,112.3046875,21.0113525390625
3.8699999,0.9528923034667969,-10.283096313476562,-3.2561142444610596,-17.9290771484375,105.194091796875,30.0750732421875
3.8899999,1.534683346748352,-10.931924819946289,-2.3726539611816406,-54.6722412109375,80.8868408203125,23.4527587890625
3.9099999,2.054224967956543,-11.585541725158691,-2.0470423698425293,-32.135009765625,74.005126953125,-5.706787109375
3.9299999,2.434903144836426,-11.99255657196045,-2.1571757793426514,16.1590576171875,93.2769775390625,-31.55517578125
3.9499999,2.6623523235321045,-12.155362129211426,-2.499546527862549,0.6103515625,95.3521728515625,-26.458740234375
3.9699999,2.786850690841675,-12.071564674377441,-2.851494312286377,-54.3212890625,68.817138671875,-14.7552490234375
3.9899999,2.873042106628418,-11.93509578704834,-3.098097085952759,-71.624755859375,54.534912109375,-17.6239013671875
4.0099999,2.9233202934265137,-11.839327812194824,-3.466804027557373,-53.6956787109375,65.9942626953125,-32.501220703125
4.029999900000001,2.9472622871398926,-11.683704376220703,-3.892971992492676,-35.919189453125,85.8306884765625,-46.9818115234375
4.0499999,2.983175277709961,-11.441889762878418,-4.220977783203125,-48.1414794921875,89.019775390625,-48.5992431640625
4.069999900000001,3.0621838569641113,-11.18092155456543,-4.185064792633057,-56.57958984375,83.7860107421875,-41.5191650390625
4.0899999000000005,3.2082302570343018,-10.924742698669434,-3.9863457679748535,-54.38232421875,75.8209228515625,-40.8935546875
4.1099999,3.4141316413879395,-10.795455932617188,-3.622427225112915,-37.6129150390625,79.89501953125,-52.5360107421875
4.1299999000000005,3.6774938106536865,-10.656591415405273,-3.2082302570343018,-26.641845703125,86.700439453125,-70.6634521484375
4.1499999,4.010287761688232,-10.431536674499512,-2.7317841053009033,-43.701171875,79.2694091796875,-80.2001953125
4.1699999000000005,4.886565685272217,-9.385271072387695,-1.256955862045288,-45.71533203125,50.506591796875,-78.033447265625
4.1899999,5.343858242034912,-8.827422142028809,-0.6919242739677429,-46.783447265625,33.966064453125,-76.3397216796875
4.209999900000001,5.738901615142822,-8.465897560119629,-0.5003881454467773,-42.7398681640625,31.219482421875,-81.8939208984375
4.2299999,6.0190229415893555,-8.250418663024902,-0.6584054827690125,-41.0614013671875,34.4085693359375,-94.90966796875
4.249999900000001,6.229712963104248,-8.154650688171387,-0.8786720037460327,-12.4664306640625,36.68212890625,-104.00390625
4.2699999,6.354211330413818,-7.929595947265625,-1.0438719987869263,3.509521484375,25.421142578125,-108.0780029296875
4.289999900000001,6.452373504638672,-7.546523571014404,-0.9145850539207458,5.6304931640625,13.397216796875,-111.14501953125
4.3099999,6.495469093322754,-6.993463039398193,-0.6512228846549988,6.4239501953125,1.1749267578125,-114.1204833984375
4.329999900000001,6.466738700866699,-6.234501361846924,-0.40462008118629456,8.4075927734375,-12.0849609375,-116.668701171875
4.3499999,6.3949127197265625,-5.305551052093506,-0.12928688526153564,18.7530517578125,-15.7928466796875,-111.38916015625
4.369999900000001,6.320692539215088,-4.424484729766846,0.2968810200691223,33.2489013671875,-20.7061767578125,-92.9107666015625
4.3899999,6.22731876373291,-3.6104562282562256,0.7134721279144287,8.514404296875,-53.64990234375,-78.582763671875
4.409999900000001,6.095637321472168,-3.0310592651367188,0.9792284965515137,-18.06640625,-86.456298828125,-74.1119384765625
4.4299999,5.892130374908447,-2.6144683361053467,0.9385270476341248,-3.082275390625,-86.0137939453125,-70.556640625
4.449999900000001,5.602431774139404,-2.3080103397369385,0.5937620401382446,30.792236328125,-73.0438232421875,-65.2618408203125
4.4699999,5.212177276611328,-1.9057846069335938,0.12210428714752197,54.62646484375,-82.94677734375,-60.3485107421875
4.489999900000001,4.7836151123046875,-1.5394717454910278,-0.33279404044151306,59.63134765625,-109.31396484375,-41.6259765625
4.5099999,4.331110954284668,-1.1851298809051514,-0.9361328482627869,42.694091796875,-126.7852783203125,-14.2364501953125
4.529999900000001,3.936067581176758,-1.0414776802062988,-1.680729627609253,29.754638671875,-118.3319091796875,1.9378662109375
4.5499999,3.6846764087677,-1.1875240802764893,-2.4133553504943848,57.2662353515625,-103.3477783203125,-1.1444091796875
4.569999900000001,3.5194764137268066,-1.4700398445129395,-2.8371291160583496,95.2911376953125,-107.0709228515625,-11.3983154296875
4.5899999000000005,3.3279404640197754,-1.6663644313812256,-3.2297780513763428,60.638427734375,-139.3280029296875,1.3580322265625
4.609999900000001,3.0190882682800293,-1.8722656965255737,-3.914519786834717,43.76220703125,-145.01953125,29.1748046875
4.6299999000000005,2.609679937362671,-1.9728221893310547,-4.977545261383057,128.875732421875,-99.639892578125,25.6500244140625
4.6499999,2.209848165512085,-2.075772762298584,-5.884947776794434,256.3323974609375,-47.7447509765625,2.4261474609375
4.6699999000000005,1.7286136150360107,-2.030282974243164,-6.57926607131958,220.2301025390625,-65.8721923828125,21.087646484375
4.6899999,1.173158884048462,-2.032677173614502,-7.115567684173584,93.1854248046875,-109.2681884765625,89.9505615234375
4.709999900000001,0.5267243981361389,-2.5665841102600098,-7.931990146636963,62.774658203125,-93.597412109375,142.39501953125
4.7299999,-0.016759412363171577,-3.622427225112915,-8.983044624328613,105.743408203125,-28.5186767578125,129.7760009765625
4.749999900000001,-0.17477671802043915,-5.351040840148926,-9.5408935546875,156.4788818359375,20.904541015625,98.1597900390625
4.7699999,0.06464344263076782,-7.163451671600342,-9.38048267364502,117.919921875,0.79345703125,109.771728515625
4.789999900000001,0.5386953949928284,-8.765172004699707,-8.554482460021973,28.7933349609375,-31.280517578125,139.0380859375
4.8099999,0.9600749015808105,-9.99100399017334,-7.99184513092041,36.68212890625,-17.2576904296875,127.8533935546875
4.829999900000001,1.2282254695892334,-10.754754066467285,-7.757213592529297,110.1226806640625,30.364990234375,91.8426513671875
4.8499999,1.3431471586227417,-11.319786071777344,-7.69735860824585,102.0050048828125,48.40087890625,99.4415283203125
4.869999900000001,1.3335703611373901,-11.688492774963379,-7.671022415161133,7.9803466796875,27.801513671875,127.3956298828125
4.8899999,1.2090718746185303,-12.047622680664062,-7.692570209503174,-11.566162109375,27.313232421875,117.706298828125
4.909999900000001,0.9864110946655273,-12.562376022338867,-7.833827972412109,45.7611083984375,64.8956298828125,83.8470458984375
4.9299999,0.7398083209991455,-13.019668579101562,-7.979874134063721,46.966552734375,98.7548828125,70.281982421875
4.949999900000001,0.5770025849342346,-13.321338653564453,-7.773972988128662,3.997802734375,102.8900146484375,73.3489990234375
4.9699999,0.5410895943641663,-13.340492248535156,-7.062894821166992,9.6435546875,96.435546875,60.455322265625
4.989999900000001,0.569819986820221,-13.024456977844238,-6.009446144104004,50.8575439453125,106.7047119140625,38.299560546875
5.0099999,0.7015010714530945,-12.591106414794922,-4.7189717292785645,46.051025390625,116.3482666015625,32.806396484375
5.029999900000001,0.9600749015808105,-12.325350761413574,-3.112462282180786,-10.55908203125,107.9864501953125,46.173095703125
5.0499999,1.3048399686813354,-12.229581832885742,-1.5825673341751099,-51.483154296875,68.9849853515625,34.149169921875
5.069999900000001,1.6041151285171509,-12.282255172729492,-0.3974374830722809,-14.4195556640625,43.8079833984375,0.5035400390625
5.0899999000000005,1.8363527059555054,-12.301408767700195,0.2753331959247589,16.3726806640625,53.1463623046875,-14.7705078125
5.109999900000001,1.9129672050476074,-12.052411079406738,0.4141969084739685,-14.190673828125,56.1370849609375,-13.5040283203125
5.1299999000000005,2.013523578643799,-11.729193687438965,0.5530605912208557,-37.261962890625,34.759521484375,-12.8326416015625
5.1499999,2.185906171798706,-11.41555404663086,0.8020575642585754,-31.73828125,9.429931640625,-23.4527587890625
5.1699999000000005,2.3295583724975586,-11.05642318725586,0.9457096457481384,-27.28271484375,-9.552001953125,-37.353515625
5.1899999,2.367865562438965,-10.527304649353027,0.8331822156906128,-30.1055908203125,-9.979248046875,-39.886474609375
5.209999900000001,2.2816741466522217,-9.840168952941895,0.4189853072166443,-38.0096435546875,-6.805419921875,-26.9775390625
5.2299999,2.10210919380188,-9.17697525024414,-0.26575639843940735,-47.66845703125,-17.27294921875,-13.8397216796875
5.249999900000001,1.9345149993896484,-8.719682693481445,-0.9217676520347595,-46.722412109375,-19.95849609375,-12.359619140625
5.2699999,1.8052281141281128,-8.607154846191406,-1.625662922859192,-35.125732421875,-14.58740234375,-16.2200927734375
5.289999900000001,1.702277421951294,-8.681375503540039,-2.3032219409942627,-12.5274658203125,-7.8277587890625,-21.8505859375
5.3099999,1.6400281190872192,-8.851364135742188,-2.9233202934265137,-1.3885498046875,-2.5787353515625,-20.81298828125
5.329999900000001,1.6136919260025024,-8.937555313110352,-3.404554843902588,0.3814697265625,2.532958984375,-18.37158203125
5.3499999,1.6065093278884888,-8.884882926940918,-3.6846764087677,7.9193115234375,8.2855224609375,-15.9912109375
5.369999900000001,1.6304513216018677,-8.767566680908203,-3.737348794937134,9.674072265625,8.026123046875,-12.481689453125
5.3899999,1.6855180263519287,-8.556877136230469,-3.584120035171509,7.720947265625,3.7078857421875,-9.58251953125
5.409999900000001,1.7525556087493896,-8.372523307800293,-3.332728862762451,-4.302978515625,-4.2266845703125,-5.157470703125
5.4299999,1.8363527059555054,-8.257601737976074,-3.160346269607544,-8.331298828125,-9.185791015625,-1.2054443359375
5.449999900000001,1.900996208190918,-8.20492935180664,-3.177105665206909,-7.6751708984375,-9.0789794921875,-1.800537109375
5.4699999,1.9393033981323242,-8.2312650680542,-3.361459255218506,-6.04248046875,-3.8604736328125,-1.46484375
5.489999900000001,1.9560627937316895,-8.367734909057617,-3.6750996112823486,-12.39013671875,-2.4566650390625,3.5247802734375
5.5099999,1.9608511924743652,-8.549694061279297,-4.022258758544922,-16.8914794921875,-2.8839111328125,5.3863525390625
5.529999900000001,1.9823989868164062,-8.798690795898438,-4.256890773773193,-7.7667236328125,2.838134765625,1.953125
5.5499999,2.027888774871826,-9.02135181427002,-4.367023944854736,1.7242431640625,6.3323974609375,-1.1749267578125
5.569999900000001,2.0925323963165283,-9.186552047729492,-4.321534156799316,3.082275390625,4.3182373046875,-1.007080078125
5.5899999000000005,2.161964178085327,-9.246406555175781,-4.165910720825195,1.52587890625,1.77001953125,-0.30517578125
5.609999900000001,2.212242364883423,-9.241618156433105,-3.974374771118164,1.4190673828125,2.1514892578125,-0.6866455078125
5.6299999000000005,2.22660756111145,-9.167398452758789,-3.799597978591919,1.953125,3.2501220703125,-2.38037109375
5.6499999,2.212242364883423,-9.071630477905273,-3.667917013168335,7.049560546875,2.9296875,-3.509521484375
5.6699999000000005,2.1739351749420166,-8.937555313110352,-3.514688014984131,10.7879638671875,1.7852783203125,-3.509521484375
5.6899999,2.1140801906585693,-8.746018409729004,-3.354276657104492,-5.2642822265625,-6.683349609375,0.6561279296875
5.709999900000001,2.097320795059204,-8.724471092224121,-3.406949043273926,-5.4168701171875,-6.2713623046875,-0.244140625
5.7299999,2.0853497982025146,-8.774748802185059,-3.552995204925537,-2.0599365234375,-2.9144287109375,-1.46484375
5.749999900000001,2.070984363555908,-8.858546257019043,-3.73016619682312,0,-0.7781982421875,-1.7852783203125
5.7699999,2.056619167327881,-8.944737434387207,-3.8810009956359863,-2.0751953125,-1.2359619140625,-1.7242431640625
5.789999900000001,2.0446481704711914,-9.009381294250488,-3.9863457679748535,-3.84521484375,-0.91552734375,-2.1209716796875
5.8099999,2.0446481704711914,-9.006986618041992,-4.017470359802246,-0.06103515625,1.2969970703125,-3.2958984375
5.829999900000001,2.051830768585205,-8.947132110595703,-3.995922565460205,1.190185546875,1.64794921875,-2.7618408203125
5.8499999,2.0685901641845703,-8.829815864562988,-3.936067581176758,-1.0223388671875,-0.396728515625,-1.0223388671875
5.869999900000001,2.0877439975738525,-8.712499618530273,-3.8498764038085938,-0.091552734375,-0.8087158203125,0
5.8899999,2.10210919380188,-8.616731643676758,-3.77565598487854,0.3509521484375,-0.579833984375,0.213623046875
5.909999900000001,2.1140801906585693,-8.573636054992676,-3.732560396194458,-0.946044921875,-1.312255859375,1.15966796875
5.9299999,2.1164743900299072,-8.595184326171875,-3.7229835987091064,-2.105712890625,-2.0599365234375,1.922607421875
5.949999900000001,2.1164743900299072,-8.655038833618164,-3.7277719974517822,-5.4168701171875,-0.885009765625,1.953125
5.9699999,2.1092917919158936,-8.757989883422852,-3.7636849880218506,-8.5906982421875,-0.5950927734375,2.0904541015625
5.989999900000001,2.1068975925445557,-8.860940933227539,-3.8067808151245117,-6.8817138671875,-0.5340576171875,1.678466796875
6.0099999,2.099714994430542,-8.942343711853027,-3.8594532012939453,-4.974365234375,-0.1068115234375,1.068115234375
6.029999900000001,2.0877439975738525,-8.995016098022461,-3.907337188720703,-2.74658203125,1.1138916015625,0.1373291015625
6.0499999,2.070984363555908,-8.99740982055664,-3.9408559799194336,-0.1983642578125,2.2735595703125,-0.5035400390625
6.069999900000001,2.051830768585205,-8.978256225585938,-3.9647979736328125,2.7923583984375,2.1209716796875,-0.6866455078125
6.0899999000000005,2.0398597717285156,-8.927978515625,-3.9408559799194336,3.11279296875,2.5634765625,-0.762939453125
6.109999900000001,2.0446481704711914,-8.892065048217773,-3.9001545906066895,1.40380859375,1.861572265625,-0.2288818359375
6.1299999000000005,2.0590133666992188,-8.865729331970215,-3.8546648025512695,-0.7171630859375,0.640869140625,-0.2288818359375
6.149999900000001,2.0829553604125977,-8.856152534484863,-3.8067808151245117,-1.312255859375,0.732421875,-0.6561279296875
6.1699999000000005,2.099714994430542,-8.856152534484863,-3.794809579849243,0.42724609375,1.0833740234375,-1.129150390625
6.1899999,2.1045033931732178,-8.846575736999512,-3.7924153804779053,1.3427734375,1.2359619140625,-1.129150390625
6.209999900000001,2.1045033931732178,-8.832210540771484,-3.8163576126098633,-0.9613037109375,0.5645751953125,-0.6866455078125
6.2299999,2.10210919380188,-8.81784439086914,-3.8331170082092285,-1.15966796875,0.732421875,-0.5645751953125
6.249999900000001,2.099714994430542,-8.80587387084961,-3.845088005065918,-1.3885498046875,1.251220703125,-0.48828125
6.2699999,2.1092917919158936,-8.808267593383789,-3.840299606323242,0.1983642578125,1.2664794921875,-0.1678466796875
6.289999900000001,2.1164743900299072,-8.810662269592285,-3.821146011352539,0.1068115234375,0.885009765625,-0.213623046875
6.3099999,2.126051187515259,-8.820239067077637,-3.801992416381836,-1.6021728515625,0.8697509765625,-0.1373291015625
6.329999900000001,2.1284453868865967,-8.825027465820312,-3.7828385829925537,-1.8310546875,0.9002685546875,0.274658203125
6.3499999,2.1308395862579346,-8.834604263305664,-3.7876269817352295,-2.3956298828125,-0.1373291015625,0.48828125
6.369999900000001,2.123656988143921,-8.834604263305664,-3.799597978591919,-2.8839111328125,-0.54931640625,0.18310546875
6.3899999,2.1164743900299072,-8.846575736999512,-3.8283286094665527,-3.082275390625,-0.3509521484375,0.030517578125
6.409999900000001,2.1045033931732178,-8.844181060791016,-3.861847400665283,-1.953125,0.1678466796875,-0.762939453125
6.4299999,2.099714994430542,-8.83939266204834,-3.885789394378662,-1.3580322265625,0.7171630859375,-0.79345703125
6.449999900000001,2.097320795059204,-8.832210540771484,-3.907337188720703,-2.2125244140625,0.2899169921875,-0.1983642578125
6.4699999,2.099714994430542,-8.80587387084961,-3.9001545906066895,-2.8076171875,0.5340576171875,-0.518798828125
6.489999900000001,2.1045033931732178,-8.791508674621582,-3.8762125968933105,-3.143310546875,0.06103515625,-0.06103515625
6.5099999,2.1092917919158936,-8.774748802185059,-3.8570590019226074,-3.814697265625,-1.0833740234375,0.457763671875
6.529999900000001,2.1140801906585693,-8.774748802185059,-3.8498764038085938,-2.105712890625,-0.946044921875,0.1983642578125
6.5499999,2.121262788772583,-8.777143478393555,-3.8522706031799316,2.3651123046875,0.6103515625,-1.2359619140625
6.569999900000001,2.1164743900299072,-8.774748802185059,-3.885789394378662,-0.1373291015625,-0.3814697265625,-1.312255859375
6.5899999000000005,2.1116859912872314,-8.762778282165527,-3.9001545906066895,-0.5645751953125,-0.5950927734375,-0.1220703125
6.609999900000001,2.099714994430542,-8.741230010986328,-3.9217023849487305,-1.03759765625,-0.67138671875,0.244140625
6.6299999000000005,2.0829553604125977,-8.724471092224121,-3.950432777404785,-2.410888671875,-0.8697509765625,0.823974609375
6.649999900000001,2.0685901641845703,-8.724471092224121,-3.97916316986084,-1.3580322265625,0.18310546875,0.7476806640625
6.6699999000000005,2.056619167327881,-8.738836288452148,-4.017470359802246,-0.640869140625,0.5035400390625,0.335693359375
6.6899999,2.051830768585205,-8.757989883422852,-4.036623954772949,0.54931640625,1.4190673828125,0.2593994140625
6.709999900000001,2.054224967956543,-8.78193187713623,-4.048594951629639,0.91552734375,1.40380859375,0.48828125
6.7299999,2.0638017654418945,-8.801085472106934,-4.022258758544922,2.74658203125,2.1209716796875,0.06103515625
6.749999900000001,2.078166961669922,-8.820239067077637,-3.9887399673461914,2.9144287109375,1.953125,-0.0762939453125
6.7699999,2.0901381969451904,-8.83699893951416,-3.9432501792907715,2.38037109375,1.40380859375,0.18310546875
6.789999900000001,2.10210919380188,-8.841787338256836,-3.892971992492676,0.8087158203125,1.1749267578125,-0.1068115234375
6.8099999,2.1116859912872314,-8.851364135742188,-3.8594532012939453,-1.03759765625,0.335693359375,0.091552734375
6.829999900000001,2.1092917919158936,-8.841787338256836,-3.845088005065918,-1.40380859375,0.030517578125,-0.0762939453125
6.8499999,2.1092917919158936,-8.827422142028809,-3.8522706031799316,-0.518798828125,0.3662109375,-0.0762939453125
6.869999900000001,2.10210919380188,-8.808267593383789,-3.866635799407959,0.1220703125,0.9002685546875,0.2288818359375
6.8899999,2.10210919380188,-8.789113998413086,-3.885789394378662,-0.7476806640625,0.335693359375,0.5950927734375
6.909999900000001,2.1045033931732178,-8.789113998413086,-3.88818359375,-0.946044921875,-0.0152587890625,0.6103515625
6.9299999,2.10210919380188,-8.798690795898438,-3.9025487899780273,-0.640869140625,-0.3814697265625,0.3814697265625
6.949999900000001,2.0901381969451904,-8.822632789611816,-3.9193081855773926,-1.6632080078125,0.244140625,0.1678466796875
6.9699999,2.075772762298584,-8.83699893951416,-3.9384617805480957,-1.800537109375,1.373291015625,0.030517578125
6.989999900000001,2.0638017654418945,-8.83939266204834,-3.957615375518799,-1.4801025390625,1.312255859375,0.030517578125
7.0099999,2.0590133666992188,-8.841787338256836,-3.974374771118164,-1.3275146484375,0.5950927734375,0.091552734375
7.029999900000001,2.0614075660705566,-8.83939266204834,-3.971980571746826,-0.42724609375,1.7852783203125,0.244140625
7.0499999,2.070984363555908,-8.83939266204834,-3.957615375518799,-0.701904296875,2.1820068359375,-0.30517578125
7.069999900000001,2.0829553604125977,-8.829815864562988,-3.9193081855773926,-0.30517578125,1.312255859375,-0.762939453125
7.0899999000000005,2.094926595687866,-8.80587387084961,-3.8738183975219727,-0.732421875,-0.244140625,-0.48828125
7.109999900000001,2.10210919380188,-8.767566680908203,-3.840299606323242,-1.64794921875,-0.946044921875,0.3509521484375
7.1299999000000005,2.099714994430542,-8.736441612243652,-3.8498764038085938,-3.5400390625,-0.79345703125,0.8697509765625
7.149999900000001,2.0877439975738525,-8.710105895996094,-3.892971992492676,-2.7923583984375,-0.030517578125,0.9002685546875
7.1699999000000005,2.078166961669922,-8.71489429473877,-3.950432777404785,-2.7008056640625,0.5340576171875,1.068115234375
7.1899999,2.0685901641845703,-8.7268648147583,-3.993528366088867,-2.0294189453125,0.9613037109375,0.701904296875
7.209999900000001,2.054224967956543,-8.765172004699707,-4.02465295791626,-2.655029296875,0.1678466796875,0.244140625
7.2299999,2.0446481704711914,-8.774748802185059,-4.02465295791626,-2.3956298828125,0.7171630859375,0.518798828125
7.249999900000001,2.032677173614502,-8.767566680908203,-4.039018154144287,-2.9296875,1.2359619140625,0.67138671875
7.2699999,2.0254945755004883,-8.75080680847168,-4.07014274597168,-4.364013671875,1.617431640625,1.0223388671875
7.289999900000001,2.030282974243164,-8.736441612243652,-4.094084739685059,-4.57763671875,3.3111572265625,2.1514892578125
7.3099999,2.051830768585205,-8.729259490966797,-4.067748546600342,-2.25830078125,4.6844482421875,2.227783203125
7.329999900000001,2.073378562927246,-8.734047889709473,-4.031835556030273,-2.838134765625,1.03759765625,1.9683837890625
7.3499999,2.0877439975738525,-8.741230010986328,-3.9695863723754883,-3.4027099609375,-1.373291015625,1.5411376953125
7.369999900000001,2.0877439975738525,-8.75080680847168,-3.9264907836914062,-1.9683837890625,-0.5645751953125,2.1514892578125
7.3899999,2.0638017654418945,-8.760383605957031,-3.9695863723754883,-3.1890869140625,-0.823974609375,2.166748046875
7.409999900000001,2.0398597717285156,-8.769960403442383,-4.034229755401611,-2.01416015625,0.7476806640625,1.1138916015625
7.4299999,2.0231003761291504,-8.78193187713623,-4.0964789390563965,-0.4425048828125,2.716064453125,-0.0762939453125
7.449999900000001,2.0159177780151367,-8.786720275878906,-4.120420932769775,-0.91552734375,1.8157958984375,0.1220703125
7.4699999,2.013523578643799,-8.78193187713623,-4.101267337799072,-2.0294189453125,-0.244140625,0.30517578125
7.489999900000001,2.0183119773864746,-8.777143478393555,-4.060565948486328,-3.4942626953125,-1.15966796875,0.6256103515625
7.5099999,2.0207061767578125,-8.767566680908203,-4.031835556030273,-3.173828125,-0.213623046875,0.48828125
7.529999900000001,2.0207061767578125,-8.757989883422852,-4.031835556030273,-2.7618408203125,-0.3662109375,0.18310546875
7.5499999,2.0207061767578125,-8.736441612243652,-4.0533833503723145,-2.471923828125,-0.6103515625,0.274658203125
7.569999900000001,2.013523578643799,-8.702922821044922,-4.089296340942383,-2.7923583984375,-0.5035400390625,0.6103515625
7.5899999000000005,2.0039467811584473,-8.667010307312012,-4.134786128997803,-2.8228759765625,-0.244140625,1.373291015625
7.609999900000001,1.9919757843017578,-8.645462036132812,-4.173093795776367,-3.3111572265625,0.030517578125,1.9989013671875
7.6299999000000005,1.9847931861877441,-8.643068313598633,-4.1874589920043945,-2.349853515625,0.3814697265625,1.1749267578125
7.649999900000001,1.9800047874450684,-8.669404029846191,-4.197035789489746,-1.1138916015625,-0.030517578125,0.274658203125
7.6699999000000005,1.9776105880737305,-8.698134422302246,-4.182670593261719,-1.373291015625,0.1068115234375,0.244140625
7.6899999,1.9776105880737305,-8.731653213500977,-4.165910720825195,-1.617431640625,0.3509521484375,0.7476806640625
7.709999900000001,1.9823989868164062,-8.753201484680176,-4.146757125854492,-0.701904296875,-0.0152587890625,0.30517578125
7.7299999,1.9919757843017578,-8.767566680908203,-4.134786128997803,-1.2664794921875,-0.6256103515625,-0.335693359375
7.749999900000001,1.9991583824157715,-8.774748802185059,-4.125209331512451,-2.0904541015625,-0.7476806640625,-0.5645751953125
7.7699999,1.9967641830444336,-8.765172004699707,-4.146757125854492,-3.1585693359375,-1.0528564453125,-0.4425048828125
7.789999900000001,1.987187385559082,-8.743624687194824,-4.182670593261719,-2.0294189453125,-0.2288818359375,-0.5340576171875
7.8099999,1.9728221893310547,-8.724471092224121,-4.2329487800598145,-1.3580322265625,0.823974609375,-0.1983642578125
7.829999900000001,1.9608511924743652,-8.705317497253418,-4.268861770629883,-0.8697509765625,1.52587890625,-0.2593994140625
7.8499999,1.9560627937316895,-8.69095230102539,-4.28322696685791,0.030517578125,1.5716552734375,-0.67138671875
7.869999900000001,1.9584569931030273,-8.678980827331543,-4.266467571258545,-0.732421875,1.28173828125,-0.3204345703125
7.8899999,1.965639591217041,-8.669404029846191,-4.235342979431152,-1.28173828125,1.0528564453125,0.0457763671875
7.909999900000001,1.9728221893310547,-8.662221908569336,-4.206612586975098,-0.732421875,0.5340576171875,-0.1220703125
7.9299999,1.9800047874450684,-8.65743350982666,-4.199429988861084,-0.1220703125,0.457763671875,-0.5035400390625
7.949999900000001,1.987187385559082,-8.671798706054688,-4.197035789489746,0.396728515625,1.495361328125,-0.1678466796875
7.9699999,1.987187385559082,-8.674192428588867,-4.201824188232422,0.79345703125,1.64794921875,-0.640869140625
7.989999900000001,1.987187385559082,-8.671798706054688,-4.199429988861084,0.4730224609375,1.0986328125,-0.3814697265625
8.0099999,1.9847931861877441,-8.65982723236084,-4.19224739074707,-0.8087158203125,0.5645751953125,0.54931640625
8.0299999,1.9823989868164062,-8.645462036132812,-4.182670593261719,-1.1749267578125,0.48828125,0.79345703125
8.049999900000001,1.987187385559082,-8.635885238647461,-4.185064792633057,-0.274658203125,0.4425048828125,0.5035400390625
8.069999900000001,1.98958158493042,-8.633491516113281,-4.180276393890381,0.244140625,0.457763671875,0.48828125
8.0899999,1.9943699836730957,-8.638279914855957,-4.173093795776367,-0.6561279296875,0.1373291015625,0.8544921875
8.1099999,1.9919757843017578,-8.640673637390137,-4.168305397033691,-2.5177001953125,-0.457763671875,1.434326171875
8.129999900000001,1.9823989868164062,-8.655038833618164,-4.170699596405029,-1.6632080078125,-0.42724609375,1.5716552734375
8.149999900000001,1.968033790588379,-8.671798706054688,-4.194641590118408,-0.42724609375,-0.3662109375,0.9918212890625
8.1699999,1.9536685943603516,-8.705317497253418,-4.230554580688477,-1.03759765625,0.1373291015625,1.15966796875
8.1899999,1.941697597503662,-8.738836288452148,-4.268861770629883,-1.312255859375,0.91552734375,0.640869140625
8.2099999,1.9393033981323242,-8.772355079650879,-4.290409564971924,-0.3204345703125,1.3580322265625,-0.3204345703125
8.229999900000001,1.9512743949890137,-8.78193187713623,-4.2760443687438965,-0.1220703125,1.5106201171875,-0.823974609375
8.2499999,1.9632453918457031,-8.779537200927734,-4.244919776916504,-1.2359619140625,0.8392333984375,-0.518798828125
8.2699999,1.9728221893310547,-8.746018409729004,-4.2090067863464355,-2.3651123046875,-0.1068115234375,-0.1678466796875
8.2899999,1.9728221893310547,-8.712499618530273,-4.194641590118408,-2.8076171875,-0.3204345703125,0.244140625
8.309999900000001,1.968033790588379,-8.674192428588867,-4.211400985717773,-1.9378662109375,0.3204345703125,0.1678466796875
8.3299999,1.9584569931030273,-8.650250434875488,-4.244919776916504,-0.946044921875,1.007080078125,0.0152587890625
8.3499999,1.9512743949890137,-8.628703117370605,-4.273650169372559,-1.52587890625,1.3275146484375,0.0762939453125
8.3699999,1.946485996246338,-8.633491516113281,-4.278438568115234,-1.7852783203125,0.701904296875,0.3509521484375
8.389999900000001,1.944091796875,-8.643068313598633,-4.261679172515869,-1.068115234375,0.2899169921875,0.030517578125
8.4099999,1.9488801956176758,-8.655038833618164,-4.2329487800598145,-1.7242431640625,0.1678466796875,-0.152587890625
8.4299999,1.9584569931030273,-8.669404029846191,-4.223371982574463,-3.72314453125,-0.3814697265625,0.4425048828125
8.4499999,1.9632453918457031,-8.662221908569336,-4.2329487800598145,-2.899169921875,-0.3509521484375,0.4425048828125
8.469999900000001,1.9632453918457031,-8.655038833618164,-4.264073371887207,-2.532958984375,0,0.42724609375
8.4899999,1.9560627937316895,-8.645462036132812,-4.304774761199951,-2.86865234375,0.30517578125,0.48828125
8.5099999,1.944091796875,-8.640673637390137,-4.335899353027344,-1.5716552734375,0.7476806640625,0.1678466796875
8.5299999,1.9369091987609863,-8.643068313598633,-4.347870349884033,-0.4119873046875,0.9002685546875,0.152587890625
8.549999900000001,1.9345149993896484,-8.645462036132812,-4.331110954284668,-1.068115234375,0.54931640625,0.1373291015625
8.569999900000001,1.9321208000183105,-8.638279914855957,-4.323928356170654,-3.021240234375,-0.7781982421875,0.2593994140625
8.5899999,1.9297266006469727,-8.635885238647461,-4.311957359313965,-1.9989013671875,-0.1678466796875,0.42724609375
8.6099999,1.9273324012756348,-8.628703117370605,-4.32871675491333,-0.762939453125,0.8697509765625,0.3662109375
8.629999900000001,1.9273324012756348,-8.635885238647461,-4.347870349884033,-0.213623046875,1.0833740234375,0.1373291015625
8.649999900000001,1.9321208000183105,-8.647856712341309,-4.3622355461120605,-1.2054443359375,0.79345703125,-0.18310546875
8.6699999,1.9393033981323242,-8.65982723236084,-4.357447147369385,-1.0986328125,0.7781982421875,-0.2593994140625
8.6899999,1.944091796875,-8.65743350982666,-4.338293552398682,-0.9613037109375,0.91552734375,-0.335693359375
8.709999900000001,1.944091796875,-8.652645111083984,-4.3191399574279785,-1.40380859375,0.4425048828125,-0.030517578125
8.729999900000001,1.941697597503662,-8.633491516113281,-4.307168960571289,-2.0904541015625,0.0152587890625,-0.030517578125
8.7499999,1.941697597503662,-8.60236644744873,-4.32871675491333,-1.7547607421875,0.67138671875,0.42724609375
8.7699999,1.9369091987609863,-8.585607528686523,-4.347870349884033,-0.885009765625,0.274658203125,-0.06103515625
8.7899999,1.9345149993896484,-8.580819129943848,-4.367023944854736,-1.28173828125,-0.457763671875,0.152587890625
8.809999900000001,1.9297266006469727,-8.564059257507324,-4.383783340454102,-1.861572265625,0.274658203125,0.8392333984375
8.8299999,1.920149803161621,-8.573636054992676,-4.4077253341674805,-1.2054443359375,0.8697509765625,1.46484375
8.8499999,1.9105730056762695,-8.571242332458496,-4.426878929138184,-0.6561279296875,1.0223388671875,0.579833984375
8.8699999,1.9081788063049316,-8.60236644744873,-4.422090530395508,0.5035400390625,1.0223388671875,0.274658203125
8.889999900000001,1.9105730056762695,-8.619126319885254,-4.405331134796143,0.6103515625,0.5950927734375,0.2593994140625
8.9099999,1.9153614044189453,-8.633491516113281,-4.378994941711426,-0.5645751953125,0.457763671875,0.6256103515625
8.9299999,1.920149803161621,-8.645462036132812,-4.359841346740723,-0.823974609375,0.1678466796875,1.1444091796875
8.9499999,1.9249382019042969,-8.645462036132812,-4.350264549255371,-1.64794921875,-0.0152587890625,0.67138671875
8.969999900000001,1.9249382019042969,-8.655038833618164,-4.350264549255371,-3.0364990234375,-0.1220703125,0.5645751953125
8.9899999,1.920149803161621,-8.664615631103516,-4.359841346740723,-3.5552978515625,-0.4425048828125,0.0762939453125
9.0099999,1.9129672050476074,-8.655038833618164,-4.37420654296875,-3.96728515625,-0.6561279296875,-0.9002685546875
9.0299999,1.9081788063049316,-8.640673637390137,-4.402936935424805,-2.0294189453125,-0.274658203125,-0.8392333984375
9.049999900000001,1.8986018896102905,-8.607154846191406,-4.434061527252197,-0.1678466796875,0.42724609375,-0.48828125
9.069999900000001,1.8986018896102905,-8.571242332458496,-4.458003520965576,-0.457763671875,0.79345703125,0.030517578125
9.0899999,1.8962076902389526,-8.544905662536621,-4.46518611907959,0.0457763671875,0.54931640625,-0.06103515625
9.1099999,1.8938134908676147,-8.530540466308594,-4.467580318450928,0.152587890625,0.30517578125,-0.3204345703125
9.129999900000001,1.889025092124939,-8.530540466308594,-4.455609321594238,-0.1678466796875,0.213623046875,0.18310546875
9.149999900000001,1.8842366933822632,-8.53532886505127,-4.455609321594238,0.6256103515625,0.579833984375,0.1373291015625
9.1699999,1.8794482946395874,-8.540117263793945,-4.448426723480225,-0.6561279296875,0.5645751953125,0.2593994140625
9.1899999,1.886630892753601,-8.561665534973145,-4.443638324737549,-1.6021728515625,0.18310546875,0.5950927734375
9.209999900000001,1.8914192914962769,-8.588001251220703,-4.438849925994873,-1.2054443359375,0.0457763671875,0.4119873046875
9.229999900000001,1.900996208190918,-8.621520042419434,-4.434061527252197,-0.8392333984375,0.4425048828125,0.152587890625
9.2499999,1.9081788063049316,-8.650250434875488,-4.436455726623535,-0.2899169921875,0.7171630859375,-0.2899169921875
9.2699999,1.9081788063049316,-8.655038833618164,-4.441244125366211,-0.48828125,0.3814697265625,-0.4730224609375
9.2899999,1.9057846069335938,-8.647856712341309,-4.4508209228515625,-0.213623046875,0.640869140625,-0.1983642578125
9.309999900000001,1.900996208190918,-8.619126319885254,-4.4532151222229,-0.3814697265625,0.885009765625,-0.18310546875
9.3299999,1.8962076902389526,-8.595184326171875,-4.4532151222229,-0.79345703125,0.6866455078125,-0.06103515625
9.3499999,1.8938134908676147,-8.56884765625,-4.448426723480225,-0.946044921875,0.4425048828125,-0.0457763671875
9.3699999,1.8962076902389526,-8.552088737487793,-4.434061527252197,-0.701904296875,0.823974609375,0.0762939453125
9.389999900000001,1.8986018896102905,-8.540117263793945,-4.422090530395508,-0.5340576171875,0.0457763671875,0.030517578125
9.4099999,1.900996208190918,-8.540117263793945,-4.422090530395508,-0.5035400390625,-0.640869140625,0.42724609375
9.4299999,1.900996208190918,-8.552088737487793,-4.4292731285095215,-0.7781982421875,-0.152587890625,0.7476806640625
9.4499999,1.8962076902389526,-8.56884765625,-4.455609321594238,-1.6632080078125,0.1373291015625,0.244140625
9.469999900000001,1.8914192914962769,-8.585607528686523,-4.474762916564941,-0.6256103515625,0.7781982421875,-0.274658203125
9.4899999,1.886630892753601,-8.595184326171875,-4.479551315307617,0.6256103515625,0.9613037109375,-0.1373291015625
9.5099999,1.8842366933822632,-8.592789649963379,-4.477157115936279,-0.518798828125,0,-0.1220703125
9.5299999,1.886630892753601,-8.583212852478027,-4.458003520965576,-1.190185546875,-0.18310546875,-0.06103515625
9.549999900000001,1.886630892753601,-8.578424453735352,-4.443638324737549,-0.6256103515625,0.152587890625,0.1068115234375
9.569999900000001,1.8914192914962769,-8.580819129943848,-4.41969633102417,0.2593994140625,0.1068115234375,-0.1068115234375
9.5899999,1.8914192914962769,-8.576030731201172,-4.417302131652832,-0.1220703125,-0.67138671875,-0.457763671875
9.6099999,1.889025092124939,-8.592789649963379,-4.412513732910156,-1.46484375,-1.15966796875,-0.091552734375
9.629999900000001,1.8842366933822632,-8.592789649963379,-4.424484729766846,-0.6561279296875,-0.8087158203125,-0.2899169921875
9.649999900000001,1.867477297782898,-8.5903959274292,-4.462791919708252,0.0152587890625,-1.3427734375,-0.6866455078125
9.6699999,1.8387469053268433,-8.56884765625,-4.551377296447754,1.068115234375,-1.9073486328125,-1.0833740234375
9.6899999,1.8076223134994507,-8.523358345031738,-4.642356872558594,4.1656494140625,0.823974609375,-1.068115234375
9.709999900000001,1.7908629179000854,-8.47547435760498,-4.697423934936523,5.767822265625,3.814697265625,-0.9307861328125
9.729999900000001,1.8052281141281128,-8.446743965148926,-4.680664539337158,3.387451171875,2.86865234375,0.3204345703125
9.7499999,1.8531121015548706,-8.461109161376953,-4.563348293304443,1.373291015625,1.03759765625,1.1749267578125
9.7699999,1.920149803161621,-8.523358345031738,-4.395754337310791,1.373291015625,0.701904296875,1.0223388671875
9.7899999,1.9776105880737305,-8.616731643676758,-4.2544965744018555,-1.6632080078125,-0.762939453125,1.0833740234375
9.809999900000001,2.0039467811584473,-8.71728801727295,-4.173093795776367,-4.486083984375,-2.2735595703125,0.8392333984375
9.8299999,1.9967641830444336,-8.789113998413086,-4.185064792633057,-4.913330078125,-2.349853515625,0.1220703125
9.8499999,1.9584569931030273,-8.815450668334961,-4.268861770629883,-4.791259765625,-1.6937255859375,-0.3662109375
9.8699999,1.9057846069335938,-8.78193187713623,-4.398148536682129,-3.3111572265625,-0.7171630859375,-0.8697509765625
9.889999900000001,1.8602946996688843,-8.707711219787598,-4.517858505249023,-0.9307861328125,0.30517578125,-1.03759765625
9.9099999,1.824381709098816,-8.607154846191406,-4.599261283874512,-1.2664794921875,0.5950927734375,-0.8544921875
9.9299999,1.8124107122421265,-8.516175270080566,-4.623203277587891,-1.7852783203125,0.7171630859375,-0.1373291015625
9.9499999,1.8100165128707886,-8.465897560119629,-4.594472885131836,-1.3275146484375,0.3814697265625,0.2899169921875
9.969999900000001,1.8171991109848022,-8.453926086425781,-4.541800498962402,-0.640869140625,-0.091552734375,-0.0762939453125
9.9899999,1.8291701078414917,-8.47547435760498,-4.49870491027832,-2.13623046875,-0.8087158203125,-0.48828125
10.0099999,1.843535304069519,-8.520963668823242,-4.474762916564941,-2.0599365234375,-0.5035400390625,-0.1068115234375
10.0299999,1.8531121015548706,-8.561665534973145,-4.481945514678955,-1.4801025390625,-0.152587890625,-0.213623046875
10.049999900000001,1.8602946996688843,-8.597578048706055,-4.51067590713501,-1.800537109375,-0.0762939453125,-0.54931640625
10.069999900000001,1.8626888990402222,-8.619126319885254,-4.537012100219727,-1.7547607421875,-0.06103515625,-0.8544921875
10.0899999,1.8579005002975464,-8.614337921142578,-4.572925090789795,-1.03759765625,0.18310546875,-1.129150390625
10.1099999,1.8531121015548706,-8.576030731201172,-4.58968448638916,-0.18310546875,1.2664794921875,-1.220703125
10.129999900000001,1.8483237028121948,-8.518569946289062,-4.587290287017822,0.152587890625,1.5106201171875,-0.5340576171875
10.149999900000001,1.8507179021835327,-8.44434928894043,-4.563348293304443,-0.5035400390625,0.6256103515625,0.030517578125
10.1699999,1.8531121015548706,-8.389283180236816,-4.522646903991699,-0.3204345703125,-0.152587890625,0.701904296875
10.1899999,1.8626888990402222,-8.374917984008789,-4.491522312164307,0.6866455078125,-0.274658203125,1.52587890625
10.209999900000001,1.867477297782898,-8.4108304977417,-4.491522312164307,0.6866455078125,-0.5340576171875,1.3427734375
10.229999900000001,1.8698714971542358,-8.489839553833008,-4.5154643058776855,0.4119873046875,-0.1983642578125,0.7781982421875
10.2499999,1.86508309841156,-8.580819129943848,-4.565742492675781,-0.06103515625,0.4119873046875,0.1983642578125
10.2699999,1.8531121015548706,-8.676587104797363,-4.613626480102539,0.274658203125,1.9683837890625,-0.3662109375
10.2899999,1.8531121015548706,-8.662221908569336,-4.592078685760498,-0.54931640625,0.9613037109375,-0.3204345703125
10.309999900000001,1.8555063009262085,-8.619126319885254,-4.54419469833374,-0.9002685546875,0.30517578125,-0.1068115234375
10.3299999,1.8579005002975464,-8.56884765625,-4.503493309020996,-1.46484375,0.1373291015625,0.1068115234375
10.3499999,1.8579005002975464,-8.520963668823242,-4.486733913421631,-1.3275146484375,0.152587890625,0.3662109375
10.3699999,1.8602946996688843,-8.49941635131836,-4.486733913421631,0.7476806640625,0.7171630859375,0.335693359375
10.389999900000001,1.8579005002975464,-8.480262756347656,-4.501099109649658,0.8087158203125,0.701904296875,0.030517578125
10.4099999,1.8555063009262085,-8.489839553833008,-4.517858505249023,-0.9002685546875,-0.0762939453125,0.640869140625
10.4299999,1.845929503440857,-8.482656478881836,-4.529829502105713,-0.7781982421875,0.274658203125,0.4119873046875
10.4499999,1.8387469053268433,-8.492233276367188,-4.534617900848389,-0.640869140625,0.701904296875,0.6866455078125
10.469999900000001,1.8267759084701538,-8.501810073852539,-4.548983097076416,-0.4730224609375,0.4425048828125,1.2054443359375
10.4899999,1.8195933103561401,-8.525752067565918,-4.5609540939331055,-1.007080078125,0.396728515625,1.3427734375
10.5099999,1.8124107122421265,-8.554482460021973,-4.580107688903809,-1.40380859375,0.579833984375,0.9307861328125
10.5299999,1.8076223134994507,-8.5903959274292,-4.594472885131836,0.244140625,0.9002685546875,0.4119873046875
10.549999900000001,1.802833914756775,-8.597578048706055,-4.60165548324585,1.068115234375,1.068115234375,-0.18310546875
10.569999900000001,1.8076223134994507,-8.604761123657227,-4.592078685760498,-1.8310546875,0.7476806640625,0.518798828125
10.5899999,1.8171991109848022,-8.585607528686523,-4.570530891418457,-1.9683837890625,0.946044921875,0.579833984375
10.6099999,1.8291701078414917,-8.576030731201172,-4.541800498962402,-0.0762939453125,0.6561279296875,0.152587890625
10.629999900000001,1.8363527059555054,-8.561665534973145,-4.520252704620361,0.4425048828125,0.1983642578125,-0.1068115234375
10.649999900000001,1.8363527059555054,-8.556877136230469,-4.525041103363037,-1.2359619140625,0.0762939453125,0.244140625
10.6699999,1.8291701078414917,-8.556877136230469,-4.546588897705078,-1.007080078125,0.5340576171875,0.3814697265625
10.6899999,1.821987509727478,-8.547300338745117,-4.563348293304443,-1.03759765625,1.3275146484375,-0.1678466796875
10.709999900000001,1.824381709098816,-8.554482460021973,-4.563348293304443,-2.5482177734375,0.579833984375,0.2288818359375
10.729999900000001,1.8315643072128296,-8.547300338745117,-4.532223701477051,-3.2196044921875,-0.4730224609375,0.396728515625
10.7499999,1.8339585065841675,-8.554482460021973,-4.522646903991699,-5.2642822265625,-1.983642578125,0.579833984375
10.7699999,1.8339585065841675,-8.559270858764648,-4.522646903991699,-1.953125,-0.457763671875,0.06103515625
10.7899999,1.8267759084701538,-8.561665534973145,-4.5609540939331055,-0.79345703125,0.48828125,-0.5035400390625
10.809999900000001,1.824381709098816,-8.559270858764648,-4.577713489532471,2.044677734375,1.15966796875,-0.91552734375
10.8299999,1.821987509727478,-8.544905662536621,-4.596867084503174,-0.030517578125,-0.3662109375,-0.3662109375
10.8499999,1.8291701078414917,-8.544905662536621,-4.575319290161133,0.030517578125,-0.6256103515625,0.1068115234375
10.8699999,1.8267759084701538,-8.53293514251709,-4.565742492675781,-0.1220703125,-0.6561279296875,-0.579833984375
10.889999900000001,1.821987509727478,-8.537723541259766,-4.568136692047119,-2.6397705078125,-1.3580322265625,-0.2593994140625
10.9099999,1.8124107122421265,-8.53532886505127,-4.58968448638916,-2.5482177734375,-1.0833740234375,-0.1373291015625
10.9299999,1.800439715385437,-8.528146743774414,-4.611232280731201,-2.2735595703125,-0.3662109375,-0.48828125
10.9499999,1.7908629179000854,-8.518569946289062,-4.63517427444458,-1.3885498046875,-0.2899169921875,-0.54931640625
10.969999900000001,1.7860745191574097,-8.506598472595215,-4.6471452713012695,-0.1220703125,-0.640869140625,-0.54931640625
10.9899999,1.7836803197860718,-8.497021675109863,-4.649539470672607,-0.030517578125,-0.732421875,-0.42724609375
11.0099999,1.7884687185287476,-8.49941635131836,-4.6471452713012695,-0.5340576171875,-0.3662109375,0.030517578125
11.0299999,1.7908629179000854,-8.516175270080566,-4.644751071929932,-1.15966796875,-0.3814697265625,-0.3204345703125
11.049999900000001,1.7932571172714233,-8.53293514251709,-4.642356872558594,-1.46484375,-0.7476806640625,-0.8697509765625
11.069999900000001,1.7932571172714233,-8.547300338745117,-4.6471452713012695,-0.67138671875,-0.79345703125,-1.129150390625
11.0899999,1.7908629179000854,-8.544905662536621,-4.6471452713012695,0.0762939453125,-0.030517578125,-1.28173828125
11.1099999,1.7884687185287476,-8.528146743774414,-4.649539470672607,-1.3885498046875,0.091552734375,-1.5106201171875
11.129999900000001,1.7836803197860718,-8.49941635131836,-4.6471452713012695,-1.4190673828125,-0.06103515625,-1.373291015625
11.149999900000001,1.7860745191574097,-8.468291282653809,-4.661510944366455,-0.5950927734375,-0.8392333984375,-0.91552734375
11.1699999,1.766920804977417,-8.425195693969727,-4.730942726135254,-0.1373291015625,-1.46484375,-0.823974609375
11.1899999,1.7334020137786865,-8.398859977722168,-4.881777286529541,-1.15966796875,-0.5950927734375,-0.3814697265625
11.209999900000001,1.6711528301239014,-8.343792915344238,-5.106832027435303,4.6844482421875,3.7689208984375,-1.64794921875
11.229999900000001,1.5873557329177856,-8.24084186553955,-5.427655220031738,3.8909912109375,5.706787109375,-2.8228759765625
11.2499999,1.501164436340332,-8.073247909545898,-5.825092792510986,-0.579833984375,6.28662109375,-0.54931640625
11.2699999,1.3982137441635132,-7.802703380584717,-6.327875137329102,-1.46484375,10.223388671875,2.9449462890625
11.2899999,1.2880805730819702,-7.489062786102295,-6.825869083404541,2.532958984375,21.4080810546875,7.4615478515625
11.309999900000001,1.1468225717544556,-7.16584587097168,-7.309497833251953,3.143310546875,27.9388427734375,12.451171875
11.3299999,0.9816226959228516,-6.916848659515381,-7.687781810760498,1.190185546875,32.5164794921875,17.88330078125
11.3499999,0.7996633648872375,-6.744466304779053,-7.905653953552246,-2.01416015625,42.8314208984375,23.01025390625
11.3699999,0.629675030708313,-6.627150535583496,-7.989450931549072,-1.40380859375,54.5806884765625,27.1148681640625
11.389999900000001,0.5363011956214905,-6.672640323638916,-7.771578788757324,0.3814697265625,66.650390625,36.1175537109375
11.4099999,0.5602431893348694,-6.897695064544678,-7.177816867828369,2.044677734375,73.8372802734375,42.449951171875
11.4299999,0.7326257228851318,-7.333439826965332,-6.167463779449463,-5.8135986328125,70.892333984375,42.48046875
11.4499999,1.1037269830703735,-8.106766700744629,-4.668693542480469,-13.763427734375,63.0950927734375,44.3572998046875
11.469999900000001,1.6759412288665771,-9.167398452758789,-2.8107926845550537,-14.984130859375,50.5218505859375,44.0673828125
11.4899999,2.4468741416931152,-10.587160110473633,-0.5770025849342346,-23.712158203125,29.1748046875,36.9415283203125
11.5099999,3.2561142444610596,-12.136208534240723,1.6041151285171509,-41.93115234375,-8.0108642578125,15.5181884765625
11.5299999,3.912125587463379,-13.615824699401855,3.512293815612793,-32.257080078125,-40.4510498046875,-11.2152099609375
11.549999900000001,4.19224739074707,-14.750677108764648,4.659116744995117,-38.9404296875,-64.300537109375,-26.3671875
11.569999900000001,4.062960147857666,-15.241488456726074,5.080495834350586,-62.3779296875,-81.878662109375,-39.36767578125
11.5899999,3.584120035171509,-15.210363388061523,4.709394931793213,-76.5838623046875,-105.255126953125,-49.4384765625
11.6099999,2.892195701599121,-14.709975242614746,3.7660791873931885,-62.68310546875,-124.6185302734375,-64.849853515625
11.629999900000001,2.1068975925445557,-13.907917976379395,2.293645143508911,-28.1829833984375,-131.011962890625,-87.738037109375
11.649999900000001,1.3311761617660522,-13.019668579101562,0.5626373887062073,3.6163330078125,-121.429443359375,-101.1962890625
11.6699999,0.5937620401382446,-12.090718269348145,-1.194706678390503,9.3994140625,-118.65234375,-106.4453125
11.6899999,-0.0694318488240242,-11.152191162109375,-2.940079689025879,-5.0811767578125,-129.669189453125,-111.5264892578125
11.709999900000001,-0.6248866319656372,-10.247182846069336,-4.431667327880859,13.1072998046875,-122.467041015625,-119.4305419921875
11.729999900000001,-1.137245774269104,-9.184157371520996,-5.758055210113525,43.426513671875,-103.118896484375,-130.9661865234375
11.7499999,-1.6112977266311646,-7.9415669441223145,-6.981492042541504,46.142578125,-105.2703857421875,-130.6610107421875
11.7699999,-2.1092917919158936,-6.358999729156494,-8.276755332946777,20.965576171875,-115.8447265625,-111.968994140625
11.7899999,-3.0885202884674072,-2.7988216876983643,-11.719616889953613,-6.7138671875,-69.305419921875,-49.8046875
11.809999900000001,-3.4596214294433594,-1.2473790645599365,-13.670891761779785,-11.1541748046875,-28.50341796875,-29.78515625
11.8299999,-3.6559460163116455,-0.2059013396501541,-15.313314437866211,-21.1334228515625,-2.1514892578125,-6.8511962890625
11.8499999,-3.6822822093963623,0.3878606855869293,-16.328454971313477,-10.4522705078125,26.092529296875,8.0718994140625
11.8699999,-3.550601005554199,0.49559974670410156,-16.622941970825195,2.3956298828125,59.2803955078125,23.040771484375
11.889999900000001,-3.2968156337738037,0.24420857429504395,-16.225505828857422,9.6893310546875,86.822509765625,39.642333984375
11.9099999,-2.9735984802246094,-0.2992752194404602,-15.169661521911621,16.7694091796875,107.7880859375,53.985595703125
11.9299999,-2.5905263423919678,-1.0558429956436157,-13.548787117004395,16.021728515625,122.711181640625,68.511962890625
11.9499999,-2.1930887699127197,-2.0398597717285156,-11.654973983764648,-2.38037109375,125.213623046875,88.0279541015625
11.969999900000001,-1.8315643072128296,-3.181894063949585,-9.715670585632324,-6.378173828125,125.1983642578125,98.7548828125
11.9899999,-1.4987702369689941,-4.501099109649658,-7.903259754180908,1.2969970703125,130.0201416015625,100.2349853515625
12.0099999,-1.216254472732544,-5.793968200683594,-6.3949127197265625,9.33837890625,132.6904296875,100.006103515625
12.0299999,-0.9026140570640564,-7.062894821166992,-4.967968463897705,10.9710693359375,131.77490234375,104.888916015625
12.049999900000001,-0.5410895943641663,-8.142680168151855,-3.627215623855591,-7.99560546875,118.5760498046875,113.616943359375
12.069999900000001,-0.033518824726343155,-9.339780807495117,-2.2601263523101807,-11.41357421875,102.508544921875,119.56787109375
12.0899999,0.7015010714530945,-10.730812072753906,-0.7541735172271729,9.70458984375,96.6949462890625,108.245849609375
12.1099999,1.7381904125213623,-12.641385078430176,1.0271124839782715,14.312744140625,85.6781005859375,89.019775390625
12.129999900000001,3.0095114707946777,-14.896722793579102,3.2130186557769775,-1.7547607421875,49.835205078125,55.633544921875
12.149999900000001,4.170699596405029,-16.862361907958984,5.07570743560791,-49.5452880859375,-19.439697265625,13.7176513671875
12.1699999,4.953603267669678,-18.27494239807129,6.452373504638672,-54.2144775390625,-52.154541015625,-11.7034912109375
12.1899999,5.085284233093262,-18.622100830078125,6.71334171295166,-54.534912109375,-58.6090087890625,-27.7557373046875
12.209999900000001,4.613626480102539,-18.090587615966797,5.980715751647949,-77.8656005859375,-66.9708251953125,-43.8690185546875
12.229999900000001,3.8594532012939453,-17.094600677490234,4.750096321105957,-82.9925537109375,-82.03125,-59.38720703125
12.2499999,3.0382418632507324,-15.878345489501953,3.3470940589904785,-63.7359619140625,-94.7723388671875,-78.826904296875
12.2699999,2.293645143508911,-14.592658996582031,1.86508309841156,-38.970947265625,-106.414794921875,-99.3194580078125
12.289999900000002,1.647210717201233,-13.316550254821777,0.5027823448181152,-8.36181640625,-109.19189453125,-114.349365234375
12.309999900000001,0.9911994934082031,-11.884817123413086,-1.0055646896362305,16.8914794921875,-120.452880859375,-124.4354248046875
12.3299999,0.31842881441116333,-10.486603736877441,-2.6791117191314697,38.5284423828125,-127.6092529296875,-125.8697509765625
12.3499999,-0.43335050344467163,-8.942343711853027,-4.55616569519043,64.14794921875,-112.97607421875,-130.5999755859375
12.3699999,-1.213860273361206,-7.400477409362793,-6.581660270690918,99.0753173828125,-94.451904296875,-135.0250244140625
12.389999900000001,-2.013523578643799,-5.724536418914795,-8.595184326171875,95.4437255859375,-92.2088623046875,-121.7803955078125
12.4099999,-2.7892448902130127,-4.10366153717041,-10.496180534362793,51.239013671875,-95.3216552734375,-86.0595703125
12.4299999,-3.5170822143554688,-2.650381326675415,-12.646173477172852,2.5482177734375,-87.8448486328125,-48.858642578125
12.4499999,-4.141968727111816,-1.4915876388549805,-14.798561096191406,-11.3067626953125,-47.66845703125,-27.740478515625
12.469999900000001,-4.659116744995117,-0.6703764796257019,-16.90066909790039,-14.312744140625,10.9405517578125,-17.364501953125
12.4899999,-5.008669853210449,-0.08379705995321274,-18.452112197875977,-8.9569091796875,42.816162109375,1.861572265625
12.5099999,-5.17626428604126,0.3016694188117981,-19.244592666625977,-2.960205078125,65.0787353515625,25.909423828125
12.5299999,-5.200206279754639,0.5291185975074768,-19.141643524169922,-0.7171630859375,98.9532470703125,46.5545654296875
12.549999900000001,-5.130774021148682,0.5722141861915588,-18.260576248168945,-3.4942626953125,135.7879638671875,65.24658203125
12.569999900000001,-4.972756862640381,0.2346317619085312,-16.668432235717773,-20.7061767578125,156.646728515625,96.74072265625
12.5899999,-4.786009311676025,-0.5889736413955688,-14.451401710510254,-33.75244140625,167.5262451171875,129.730224609375
12.6099999,-4.58968448638916,-1.8794482946395874,-11.93748950958252,-19.9737548828125,176.3916015625,136.6424560546875
12.629999900000001,-4.244919776916504,-3.847482204437256,-9.131484985351562,9.124755859375,190.6890869140625,139.312744140625
12.649999900000001,-3.6990416049957275,-6.169857978820801,-6.191405773162842,8.6669921875,192.5811767578125,145.843505859375
12.6699999,-2.5905263423919678,-9.255983352661133,-2.6144683361053467,-4.8980712890625,183.9599609375,158.02001953125
12.6899999,-0.7637503147125244,-13.129801750183105,1.5466543436050415,-26.4892578125,141.1895751953125,151.519775390625
12.709999900000001,1.525106430053711,-17.231069564819336,5.475539207458496,-75.408935546875,58.8226318359375,97.4884033203125
12.729999900000001,3.845088005065918,-20.793642044067383,8.62391471862793,-105.9112548828125,6.7901611328125,28.778076171875
12.7499999,5.5976433753967285,-22.704214096069336,10.326191902160645,-68.42041015625,2.5634765625,-25.390625
12.7699999,6.4164605140686035,-22.54619789123535,10.472238540649414,-53.89404296875,-18.9056396484375,-43.51806640625
12.789999900000002,6.382941722869873,-20.84391975402832,9.861717224121094,-50.8575439453125,-47.05810546875,-45.654296875
12.809999900000001,5.702988624572754,-18.46647834777832,8.681375503540039,-63.9495849609375,-84.77783203125,-59.2498779296875
12.8299999,4.60165548324585,-16.148889541625977,7.084442615509033,-73.089599609375,-119.140625,-79.04052734375
12.8499999,3.2632968425750732,-14.211980819702148,5.018246650695801,-61.82861328125,-133.7738037109375,-103.1341552734375
12.8699999,1.802833914756775,-12.531251907348633,2.477998733520508,-51.5899658203125,-136.7645263671875,-121.368408203125
12.889999900000001,0.3974374830722809,-11.077971458435059,-0.2849099934101105,-48.5076904296875,-139.129638671875,-123.321533203125
12.9099999,-0.8068459630012512,-9.86650562286377,-3.071760892868042,-27.8472900390625,-142.1051025390625,-120.4681396484375
12.9299999,-1.7501614093780518,-8.901641845703125,-5.762843608856201,28.045654296875,-135.101318359375,-131.4697265625
12.9499999,-2.477998733520508,-8.006210327148438,-8.17141056060791,83.3587646484375,-110.2752685546875,-151.3824462890625
12.969999900000001,-3.064578056335449,-7.060500621795654,-10.29746150970459,132.598876953125,-88.287353515625,-162.139892578125
12.9899999,-3.5434184074401855,-5.70777702331543,-11.942277908325195,190.1702880859375,-70.098876953125,-157.1807861328125
13.0099999,-3.88818359375,-3.93367338180542,-13.218387603759766,167.6483154296875,-64.788818359375,-139.2822265625
13.0299999,-4.062960147857666,-2.2385785579681396,-14.147337913513184,109.9090576171875,-56.4422607421875,-96.74072265625
13.049999900000001,-4.067748546600342,-0.6943184733390808,-15.002067565917969,76.3397216796875,-54.2755126953125,-57.647705078125
13.069999900000001,-3.971980571746826,0.16759411990642548,-15.849615097045898,29.1748046875,-37.29248046875,-22.27783203125
13.0899999,-3.9193081855773926,0.6009446382522583,-16.790536880493164,-7.5531005859375,-1.617431640625,2.349853515625
13.1099999,-3.9815573692321777,0.667982280254364,-17.889474868774414,-57.2967529296875,23.406982421875,24.6734619140625
13.129999900000001,-4.182670593261719,0.6177040338516235,-18.727445602416992,-51.69677734375,78.3233642578125,45.0592041015625
13.149999900000001,-4.426878929138184,0.38307225704193115,-19.007566452026367,-5.859375,129.3792724609375,60.9283447265625
13.1699999,-4.592078685760498,-0.05267243832349777,-18.40901756286621,18.463134765625,157.867431640625,76.5533447265625
13.1899999,-4.563348293304443,-0.9169792532920837,-16.71392250061035,21.3623046875,177.764892578125,95.2606201171875
13.209999900000001,-4.381389141082764,-2.1284453868865967,-14.267047882080078,18.9208984375,191.375732421875,108.0780029296875
13.229999900000001,-4.015076160430908,-3.7900211811065674,-11.286267280578613,15.716552734375,195.648193359375,117.431640625
13.2499999,-3.5482068061828613,-5.767632007598877,-8.221688270568848,-4.0130615234375,189.5599365234375,125.8544921875
13.2699999,-3.0166940689086914,-7.8314337730407715,-5.413290023803711,-21.4080810546875,177.032470703125,119.5831298828125
13.289999900000002,-2.3942017555236816,-9.804255485534668,-2.875436305999756,-15.7928466796875,176.81884765625,111.1602783203125
13.309999900000001,-1.4197616577148438,-12.00452709197998,-0.0933738648891449,-8.758544921875,178.7872314453125,116.88232421875
13.3299999,1.525106430053711,-16.199169158935547,5.614402770996094,-75.3936767578125,60.0128173828125,65.826416015625
13.3499999,3.201047658920288,-17.956512451171875,8.02536392211914,-99.12109375,28.717041015625,38.482666015625
13.3699999,4.570530891418457,-18.88785743713379,9.672574996948242,-83.8623046875,11.1541748046875,13.18359375
13.389999900000001,5.351040840148926,-18.978836059570312,10.278307914733887,-73.5321044921875,-22.5982666015625,-17.1356201171875
13.4099999,5.5976433753967285,-18.385074615478516,10.431536674499512,-63.1103515625,-51.544189453125,-35.888671875
13.4299999,5.360617637634277,-17.424999237060547,10.02452278137207,-67.56591796875,-83.099365234375,-45.3643798828125
13.4499999,4.721365928649902,-16.306907653808594,9.030928611755371,-85.235595703125,-120.880126953125,-56.732177734375
13.469999900000001,3.7900211811065674,-15.27979564666748,7.572859764099121,-77.8656005859375,-142.303466796875,-76.416015625
13.4899999,2.6168625354766846,-14.403517723083496,5.494692802429199,-56.45751953125,-157.012939453125,-100.189208984375
13.5099999,1.3000515699386597,-13.61103630065918,2.9233202934265137,-50.872802734375,-172.332763671875,-119.5068359375
13.5299999,-0.035913024097681046,-12.947842597961426,0.10773907601833344,-42.29736328125,-166.80908203125,-130.7830810546875
13.549999900000001,-1.2880805730819702,-12.318167686462402,-2.7916390895843506,-24.0325927734375,-152.4505615234375,-144.2108154296875
13.569999900000001,-2.3774423599243164,-11.583148002624512,-5.453991413116455,9.5367431640625,-135.711669921875,-165.6341552734375
13.5899999,-3.270479440689087,-10.714052200317383,-7.793126583099365,69.580078125,-117.2027587890625,-180.5572509765625
13.6099999,-4.0078935623168945,-9.337387084960938,-9.816226959228516,134.124755859375,-97.2137451171875,-193.29833984375
13.629999900000001,-4.508281707763672,-7.536946773529053,-11.619060516357422,200.86669921875,-68.6492919921875,-186.6912841796875
13.649999900000001,-4.680664539337158,-5.458779811859131,-12.957419395446777,247.25341796875,-40.2984619140625,-158.3709716796875
13.6699999,-4.467580318450928,-3.40216064453125,-13.75468921661377,227.9052734375,-33.87451171875,-125.6256103515625
13.6899999,-3.9025487899780273,-1.9369091987609863,-13.962984085083008,144.0887451171875,-51.3153076171875,-81.787109375
13.709999900000001,-3.203441858291626,-1.2449848651885986,-14.271836280822754,65.4754638671875,-74.4476318359375,-44.403076171875
13.729999900000001,-2.5737667083740234,-1.194706678390503,-14.350845336914062,31.1279296875,-13.580322265625,-31.036376953125
13.7499999,-2.212242364883423,-1.6065093278884888,-15.088258743286133,-21.148681640625,5.2642822265625,-2.0904541015625
13.7699999,-2.10210919380188,-2.1380221843719482,-15.861586570739746,-23.834228515625,0.152587890625,18.5699462890625
13.789999900000002,-2.22660756111145,-2.5067291259765625,-16.46731948852539,50.5828857421875,53.8177490234375,3.47900390625
13.809999900000001,-2.4396915435791016,-2.7509377002716064,-16.795324325561523,49.285888671875,84.9456787109375,12.420654296875
13.8299999,-2.6599581241607666,-2.8874073028564453,-16.378734588623047,6.805419921875,106.353759765625,38.9404296875
13.8499999,-2.829946517944336,-3.0142998695373535,-15.377957344055176,-55.0994873046875,110.107421875,66.9403076171875
13.8699999,-2.875436305999756,-3.287238836288452,-13.876792907714844,-65.948486328125,118.7591552734375,86.456298828125
13.889999900000001,-2.8107926845550537,-3.7900211811065674,-12.164938926696777,-55.96923828125,135.0555419921875,94.0399169921875
13.9099999,-2.5522189140319824,-4.486733913421631,-10.108319282531738,-51.08642578125,148.2696533203125,101.0589599609375
13.9299999,-2.166752576828003,-5.2265424728393555,-8.008605003356934,-95.184326171875,124.5880126953125,125.5340576171875
13.9499999,-1.7932571172714233,-6.004657745361328,-6.098031520843506,-118.438720703125,93.44482421875,147.247314453125
13.969999900000001,-1.482010841369629,-6.88332986831665,-4.833893299102783,-83.221435546875,88.92822265625,146.6827392578125
13.9899999,-1.2425906658172607,-8.08043098449707,-3.9600095748901367,-50.1861572265625,113.3880615234375,145.4315185546875
14.0099999,-1.0989385843276978,-9.495404243469238,-3.5482068061828613,-70.0531005859375,106.8115234375,142.4102783203125
14.0299999,-0.9624691009521484,-10.946290016174316,-3.2106244564056396,-70.2972412109375,85.693359375,130.92041015625
14.049999900000001,-0.6967126727104187,-12.354081153869629,-2.5330653190612793,-38.6810302734375,93.56689453125,122.1160888671875
14.069999900000001,-0.21308395266532898,-13.773842811584473,-1.4293384552001953,-18.1121826171875,107.91015625,117.401123046875
14.0899999,0.6775590777397156,-15.37077522277832,0.5386953949928284,-15.716552734375,88.8671875,100.6622314453125
14.1099999,1.889025092124939,-17.269376754760742,2.956839084625244,-50.6439208984375,26.947021484375,72.20458984375
14.129999900000001,3.1699230670928955,-19.14882469177246,5.281609058380127,-74.005126953125,-18.00537109375,36.0107421875
14.149999900000001,4.120420932769775,-20.396203994750977,6.840234279632568,-41.7022705078125,-16.4794921875,-12.9852294921875
14.1699999,4.517858505249023,-20.693084716796875,7.311892032623291,-11.0321044921875,-16.5863037109375,-51.8951416015625
14.1899999,4.3622355461120605,-19.898210525512695,7.103596210479736,-18.9056396484375,-36.3922119140625,-68.2220458984375
14.209999900000001,3.794809579849243,-18.215085983276367,6.493074893951416,-41.4581298828125,-64.9261474609375,-78.43017578125
14.229999900000001,3.002328872680664,-16.180015563964844,5.525817394256592,-62.591552734375,-91.73583984375,-81.7413330078125
14.2499999,2.0901381969451904,-14.207192420959473,4.153939723968506,-65.582275390625,-108.856201171875,-90.6982421875
14.2699999,1.1468225717544556,-12.555193901062012,2.47560453414917,-39.5660400390625,-115.41748046875,-105.9722900390625
14.289999900000002,0.21547815203666687,-11.334151268005371,0.43335050344467163,-17.1966552734375,-126.0223388671875,-116.27197265625
14.309999900000001,-0.6392518281936646,-10.285490036010742,-1.778891921043396,-2.1820068359375,-131.2103271484375,-125.579833984375
14.3299999,-1.3623007535934448,-9.394847869873047,-3.936067581176758,30.09033203125,-119.9188232421875,-130.6915283203125
14.3499999,-1.9991583824157715,-8.506598472595215,-6.0621185302734375,63.201904296875,-117.1875,-131.622314453125
14.3699999,-2.5306711196899414,-7.762001991271973,-8.075642585754395,95.3216552734375,-117.5994873046875,-133.8653564453125
14.389999900000001,-2.9951462745666504,-7.187393665313721,-9.93593692779541,129.7760009765625,-97.3968505859375,-134.6282958984375
14.4099999,-3.3638534545898438,-6.5912370681762695,-11.671732902526855,142.1051025390625,-73.1353759765625,-139.58740234375
14.4299999,-3.5865142345428467,-5.91128396987915,-12.904747009277344,146.270751953125,-49.49951171875,-133.544921875
14.4499999,-3.6343982219696045,-4.874594688415527,-13.668497085571289,110.1226806640625,-53.40576171875,-111.9232177734375
14.469999900000001,-3.5625722408294678,-3.5410242080688477,-13.931859970092773,36.80419921875,-57.3577880859375,-70.1141357421875
14.4899999,-3.445256233215332,-2.434903144836426,-14.113819122314453,-18.0511474609375,-39.6728515625,-24.658203125
14.5099999,-3.399766445159912,-1.5897499322891235,-14.425065040588379,-28.533935546875,-12.87841796875,-5.584716796875
14.5299999,-3.471592426300049,-1.173158884048462,-14.947001457214355,4.7760009765625,16.265869140625,-12.5732421875
14.549999900000001,-3.667917013168335,-0.9816226959228516,-15.49527359008789,29.9530029296875,46.20361328125,-6.8206787109375
14.569999900000001,-3.93367338180542,-0.7613561153411865,-15.753847122192383,8.30078125,70.00732421875,21.1639404296875
14.5899999,-4.151545524597168,-0.5841852426528931,-15.567099571228027,-13.031005859375,93.4906005859375,50.72021484375
14.6099999,-4.2760443687438965,-0.5961562395095825,-14.870387077331543,-13.824462890625,112.9302978515625,68.450927734375
14.629999900000001,-4.235342979431152,-1.0319008827209473,-13.539210319519043,-10.7879638671875,134.4757080078125,84.8846435546875
14.649999900000001,-4.0533833503723145,-1.9393033981323242,-11.954249382019043,-34.5306396484375,136.9171142578125,107.0404052734375
14.6699999,-3.663128614425659,-3.4093432426452637,-9.895236015319824,-45.83740234375,139.4195556640625,124.2523193359375
14.6899999,-3.1244332790374756,-5.331887245178223,-7.893682956695557,-59.8907470703125,130.218505859375,135.3607177734375
14.709999900000001,-2.4899697303771973,-7.438784599304199,-5.904101371765137,-61.7828369140625,119.0185546875,127.0904541015625
14.729999900000001,-1.8076223134994507,-9.378087997436523,-4.177882194519043,-69.793701171875,110.1531982421875,121.27685546875
14.7499999,-1.1779472827911377,-10.991780281066895,-3.004723072052002,-95.9625244140625,86.1968994140625,132.293701171875
14.7699999,-0.6033388376235962,-12.179304122924805,-2.1739351749420166,-94.17724609375,83.19091796875,133.11767578125
14.789999900000002,0.0694318488240242,-13.21599292755127,-1.5131354331970215,-56.5643310546875,89.7216796875,113.494873046875
14.809999900000001,0.9576807022094727,-14.496891021728516,-0.6105214357376099,-30.76171875,88.8824462890625,100.006103515625
14.8299999,2.140416383743286,-16.045940399169922,0.9457096457481384,-17.578125,71.9451904296875,73.4710693359375
14.8499999,4.69024133682251,-18.866310119628906,4.613626480102539,-18.6767578125,3.753662109375,0.152587890625
14.8699999,5.446808815002441,-19.359514236450195,5.846640586853027,-5.1116943359375,-13.153076171875,-27.4505615234375
14.889999900000001,5.56173038482666,-19.100940704345703,6.320692539215088,-17.5933837890625,-32.8826904296875,-42.9534912109375
14.9099999,5.032611846923828,-18.200721740722656,5.992686748504639,-45.7763671875,-61.1572265625,-59.75341796875
14.9299999,3.998316764831543,-16.994043350219727,4.857835292816162,-61.5081787109375,-85.723876953125,-77.4383544921875
14.9499999,2.7222073078155518,-15.619771957397461,3.2297780513763428,-51.849365234375,-86.5020751953125,-95.4132080078125
14.969999900000001,1.4844050407409668,-14.255077362060547,1.381454348564148,-21.9573974609375,-82.9620361328125,-112.579345703125
14.9899999,0.4812345504760742,-12.902353286743164,-0.2992752194404602,7.537841796875,-95.2301025390625,-122.9705810546875
15.0099999,-0.22266076505184174,-11.54005241394043,-1.6065093278884888,14.2974853515625,-116.0125732421875,-127.4566650390625
15.0299999,-0.6919242739677429,-10.314221382141113,-2.760514497756958,14.6026611328125,-133.8653564453125,-123.2147216796875
15.049999900000001,-1.139639973640442,-9.117119789123535,-4.022258758544922,13.824462890625,-142.181396484375,-123.626708984375
15.069999900000001,-1.6400281190872192,-8.042123794555664,-5.6455278396606445,23.6663818359375,-140.9759521484375,-130.2947998046875
15.0899999,-2.229001760482788,-6.971915245056152,-7.556100368499756,68.84765625,-123.6419677734375,-138.5040283203125
15.1099999,-2.806004285812378,-5.710171222686768,-9.423578262329102,109.31396484375,-102.3101806640625,-139.617919921875
15.129999900000001,-3.2585084438323975,-4.412513732910156,-10.900800704956055,122.222900390625,-87.9058837890625,-123.10791015625
15.149999900000001,-3.555389642715454,-2.873042106628418,-11.90157699584961,72.052001953125,-91.7510986328125,-100.2044677734375
15.1699999,-3.7660791873931885,-1.4532804489135742,-12.559982299804688,3.7841796875,-88.68408203125,-56.5948486328125
15.1899999,-4.000710964202881,-0.21787235140800476,-13.33809757232666,-11.71875,-71.258544921875,-25.1617431640625
15.209999900000001,-4.359841346740723,0.6368576288223267,-14.444218635559082,14.5416259765625,-37.872314453125,-7.9803466796875
15.229999900000001,-4.920084476470947,1.0319008827209473,-15.933412551879883,17.730712890625,-2.3040771484375,7.904052734375
15.2499999,-5.580883979797363,0.9792284965515137,-17.513586044311523,8.48388671875,30.9906005859375,26.3824462890625
15.2699999,-6.222530364990234,0.6033388376235962,-18.83039665222168,-5.31005859375,76.5228271484375,47.7142333984375
15.289999900000002,-6.629544734954834,0.035913024097681046,-19.285295486450195,1.4190673828125,130.126953125,61.798095703125
15.309999900000001,-6.552929878234863,-0.7613561153411865,-18.4066219329834,16.05224609375,173.065185546875,76.2786865234375
15.3299999,-5.980715751647949,-1.6879122257232666,-16.297330856323242,0.9307861328125,174.49951171875,93.07861328125
15.3499999,-5.114014625549316,-2.6575639247894287,-13.417106628417969,-8.2855224609375,162.994384765625,101.8829345703125
15.3699999,-4.1180267333984375,-3.861847400665283,-10.230423927307129,-8.8043212890625,172.027587890625,120.361328125
15.389999900000001,-3.251325845718384,-5.298368453979492,-7.491456985473633,-26.336669921875,172.1954345703125,140.8233642578125
15.4099999,-2.6886885166168213,-6.876147270202637,-5.473145008087158,-27.9693603515625,157.4554443359375,132.50732421875
15.4299999,-2.315192937850952,-8.549694061279297,-3.8953661918640137,-7.3089599609375,162.322998046875,115.447998046875
15.4499999,-2.0661959648132324,-10.204087257385254,-2.7748796939849854,0.1983642578125,168.9300537109375,119.81201171875
15.469999900000001,-1.8914192914962769,-11.463438034057617,-2.0183119773864746,-9.1552734375,154.998779296875,114.0899658203125
15.4899999,-1.5466543436050415,-12.536040306091309,-1.091755986213684,18.12744140625,152.099609375,95.1080322265625
15.5099999,-0.9050082564353943,-13.46020221710205,0.19153612852096558,38.75732421875,156.585693359375,85.540771484375
15.5299999,-0.08140286058187485,-14.077905654907227,1.4844050407409668,2.197265625,120.66650390625,74.554443359375
15.549999900000001,1.0462661981582642,-14.63814926147461,3.1747114658355713,-13.671875,83.984375,62.07275390625
15.569999900000001,2.315192937850952,-15.442601203918457,4.841075897216797,-30.517578125,53.6346435546875,57.67822265625
15.5899999,3.529053211212158,-16.213533401489258,6.184223175048828,-57.06787109375,14.34326171875,27.8167724609375
15.6099999,4.525041103363037,-16.903064727783203,7.177816867828369,-42.17529296875,-14.8468017578125,-19.1497802734375
15.629999900000001,5.0685248374938965,-17.06826400756836,7.680599212646484,-5.1727294921875,-32.6995849609375,-48.27880859375
15.649999900000001,5.044582843780518,-16.433799743652344,7.637503623962402,-17.974853515625,-63.6138916015625,-52.3223876953125
15.6699999,4.458003520965576,-15.342044830322266,7.029376029968262,-69.610595703125,-102.8289794921875,-41.5802001953125
15.6899999,3.4763808250427246,-14.24071216583252,5.822698593139648,-93.9788818359375,-129.6234130859375,-46.93603515625
15.709999900000001,2.2816741466522217,-13.412318229675293,4.206612586975098,-64.0869140625,-129.1046142578125,-79.2083740234375
15.729999900000001,1.0606313943862915,-12.88559341430664,2.27209734916687,-33.538818359375,-132.5531005859375,-106.597900390625
15.7499999,-0.06224924325942993,-12.29662036895752,0.3447650372982025,-28.3660888671875,-147.674560546875,-117.1722412109375
15.7699999,-0.9911994934082031,-11.669339179992676,-1.359906554222107,-37.750244140625,-160.0494384765625,-111.0687255859375
15.789999900000002,-1.8100165128707886,-10.8720703125,-3.0406360626220703,-27.77099609375,-168.2891845703125,-113.6016845703125
15.809999900000001,-2.540247917175293,-10.007762908935547,-4.8051629066467285,5.218505859375,-166.595458984375,-134.6588134765625
15.8299999,-3.2297780513763428,-8.937555313110352,-6.703764915466309,50.567626953125,-147.7508544921875,-155.853271484375
15.8499999,-3.8570590019226074,-7.429207801818848,-8.688557624816895,86.334228515625,-127.5634765625,-161.2548828125
15.869999900000002,-4.381389141082764,-5.501875400543213,-10.680533409118652,91.2628173828125,-115.1123046875,-136.8408203125
15.889999900000001,-4.6950297355651855,-3.3877954483032227,-12.437877655029297,69.366455078125,-100.2044677734375,-100.03662109375
15.9099999,-4.797980308532715,-1.522712230682373,-14.041993141174316,37.567138671875,-83.5723876953125,-64.8193359375
15.9299999,-4.680664539337158,-0.17238251864910126,-15.128960609436035,26.7486572265625,-41.1529541015625,-38.2080078125
15.9499999,-4.441244125366211,0.4884171485900879,-15.8903169631958,3.0059814453125,-15.1214599609375,-14.5263671875
15.969999900000001,-4.153939723968506,0.586579442024231,-16.117765426635742,-8.6822509765625,5.5389404296875,8.148193359375
15.9899999,-3.909731388092041,0.2825157940387726,-16.010026931762695,18.7225341796875,31.6009521484375,14.8162841796875
16.0099999,-3.6942532062530518,-0.24899697303771973,-15.528792381286621,37.200927734375,60.882568359375,21.8505859375
16.0299999,-3.442862033843994,-0.9840168952941895,-14.681244850158691,30.0750732421875,81.7413330078125,39.947509765625
16.0499999,-3.1004912853240967,-1.8171991109848022,-13.417106628417969,21.2249755859375,93.9483642578125,55.1300048828125
16.0699999,-2.631227731704712,-2.693476915359497,-11.750741958618164,15.6707763671875,101.3336181640625,60.821533203125
16.089999900000002,-2.0925323963165283,-3.689464807510376,-9.945513725280762,5.0201416015625,101.1962890625,72.479248046875
16.109999900000002,-1.6136919260025024,-4.666299343109131,-8.35336971282959,-12.75634765625,99.212646484375,88.3026123046875
16.1299999,-1.1683704853057861,-5.808333396911621,-6.933608055114746,-13.48876953125,109.588623046875,98.5107421875
16.1499999,-0.6823474764823914,-7.321468830108643,-5.588066577911377,-15.8843994140625,117.828369140625,105.865478515625
16.1699999,-0.08858546614646912,-9.035717010498047,-4.24970817565918,-30.242919921875,100.6927490234375,93.8262939453125
16.1899999,0.5961562395095825,-10.699687004089355,-2.956839084625244,-30.3192138671875,76.2481689453125,69.9615478515625
16.2099999,1.3886369466781616,-12.040440559387207,-1.6855180263519287,-11.7340087890625,64.9261474609375,56.5185546875
16.2299999,2.123656988143921,-12.90953540802002,-0.6799532771110535,2.7618408203125,61.7218017578125,53.1768798828125
16.249999900000002,2.7246015071868896,-13.208810806274414,0.004788403399288654,-29.3426513671875,30.94482421875,39.8101806640625
16.269999900000002,3.1531636714935303,-13.18008041381836,0.4189853072166443,-15.4571533203125,13.2293701171875,21.9268798828125
16.2899999,3.3470940589904785,-12.902353286743164,0.4572925269603729,7.6751708984375,6.2408447265625,10.101318359375
16.3099999,3.335123062133789,-12.389993667602539,0.2992752194404602,16.0980224609375,3.11279296875,4.7149658203125
16.3299999,3.1675288677215576,-11.860875129699707,-0.026336219161748886,0.7781982421875,-15.44189453125,2.7618408203125
16.3499999,2.959233283996582,-11.499350547790527,-0.2801215946674347,-5.0201416015625,-34.5611572265625,1.15966796875
16.3699999,2.6839001178741455,-11.257535934448242,-0.7086837291717529,2.655029296875,-49.13330078125,-11.1083984375
16.3899999,2.0661959648132324,-11.099518775939941,-2.1140801906585693,3.2196044921875,-58.5479736328125,-34.4085693359375
16.4099999,1.8124107122421265,-11.094730377197266,-2.8155810832977295,3.2806396484375,-64.1021728515625,-38.2080078125
16.429999900000002,1.6089035272598267,-11.094730377197266,-3.445256233215332,0.4425048828125,-76.873779296875,-44.708251953125
16.4499999,1.4484920501708984,-11.094730377197266,-3.8714241981506348,-3.23486328125,-85.0982666015625,-56.94580078125
16.4699999,1.2449848651885986,-10.99896240234375,-4.398148536682129,-8.880615234375,-88.0126953125,-64.9871826171875
16.4899999,0.9911994934082031,-10.706870079040527,-4.944026470184326,-16.387939453125,-83.892822265625,-68.84765625
16.5099999,0.6919242739677429,-10.287884712219238,-5.5760955810546875,-30.9600830078125,-83.099365234375,-66.83349609375
16.5299999,0.3758896589279175,-9.799467086791992,-6.320692539215088,-37.2772216796875,-83.526611328125,-69.51904296875
16.5499999,0.0694318488240242,-9.334992408752441,-7.156269073486328,-29.3121337890625,-74.52392578125,-78.1707763671875
16.5699999,-0.22744916379451752,-8.868123054504395,-8.090007781982422,-10.1165771484375,-52.825927734375,-82.4432373046875
16.589999900000002,-0.507570743560791,-8.429984092712402,-9.105149269104004,-17.181396484375,-39.6881103515625,-74.2034912109375
16.609999900000002,-0.7230489253997803,-8.152256965637207,-10.017339706420898,-39.7796630859375,-28.9459228515625,-63.3392333984375
16.6299999,-0.8619126081466675,-8.068459510803223,-10.903194427490234,-46.56982421875,-14.4500732421875,-68.66455078125
16.6499999,-0.9074024558067322,-8.003816604614258,-11.547234535217285,-27.3590087890625,12.1917724609375,-86.883544921875
16.6699999,-0.8619126081466675,-7.8745293617248535,-11.923124313354492,-7.8582763671875,32.684326171875,-91.7205810546875
16.6899999,-0.7637503147125244,-7.441178798675537,-12.081141471862793,-12.5732421875,35.2935791015625,-80.4290771484375
16.7099999,-0.6200982332229614,-6.797138690948486,-11.872846603393555,-17.3797607421875,43.2281494140625,-72.2503662109375
16.7299999,-0.507570743560791,-6.0597243309021,-11.671732902526855,-33.7677001953125,55.1605224609375,-66.3299560546875
16.749999900000002,-0.43335050344467163,-5.310339450836182,-11.468226432800293,-35.919189453125,74.554443359375,-60.24169921875
16.769999900000002,-0.3902548849582672,-4.5154643058776855,-11.171344757080078,-19.1802978515625,100.09765625,-56.21337890625
16.7899999,-0.31842881441116333,-3.689464807510376,-10.745177268981934,-14.1754150390625,111.6790771484375,-43.8385009765625
16.8099999,-0.15322890877723694,-2.940079689025879,-10.050858497619629,-31.2652587890625,112.73193359375,-21.0723876953125
16.8299999,0.14604631066322327,-2.456450939178467,-9.107542991638184,-41.748046875,117.0501708984375,-0.9918212890625
16.8499999,0.5530605912208557,-2.2888567447662354,-8.032546997070312,-30.8380126953125,121.6888427734375,2.838134765625
16.8699999,0.993593692779541,-2.4444799423217773,-7.007828235626221,-21.8353271484375,118.896484375,3.2806396484375
16.8899999,1.414973258972168,-2.669534921646118,-6.107608318328857,-18.7530517578125,116.6534423828125,7.7972412109375
16.9099999,1.8195933103561401,-2.9735984802246094,-5.317522048950195,-20.6146240234375,118.255615234375,23.37646484375
16.929999900000002,2.161964178085327,-3.1435868740081787,-4.7189717292785645,-32.8826904296875,113.128662109375,33.5693359375
16.9499999,2.4420857429504395,-3.1651346683502197,-4.268861770629883,-32.3486328125,106.7962646484375,34.66796875
16.9699999,2.693476915359497,-3.1076738834381104,-3.864241600036621,-28.3966064453125,106.2469482421875,44.7998046875
16.9899999,2.9065608978271484,-3.050212860107422,-3.4404678344726562,-23.162841796875,109.0545654296875,62.9119873046875
17.0099999,3.098097085952759,-2.999934673309326,-2.9448680877685547,-15.594482421875,99.42626953125,66.40625
17.0299999,3.251325845718384,-2.9975404739379883,-2.454056739807129,-3.47900390625,83.4808349609375,63.446044921875
17.0499999,3.361459255218506,-3.1220390796661377,-1.9632453918457031,12.8631591796875,78.79638671875,73.4100341796875
17.0699999,3.404554843902588,-3.2561142444610596,-1.5514427423477173,14.95361328125,80.3375244140625,88.531494140625
17.089999900000002,3.4093432426452637,-3.576937437057495,-1.1276689767837524,2.6702880859375,68.3746337890625,99.7772216796875
17.109999900000002,3.3638534545898438,-4.010287761688232,-0.7589619159698486,-0.8087158203125,44.0521240234375,103.5919189453125
17.1299999,3.3016040325164795,-4.584896087646484,-0.5315127968788147,7.4310302734375,28.1829833984375,107.818603515625
17.1499999,3.2130186557769775,-5.195417881011963,-0.49559974670410156,12.786865234375,27.740478515625,116.241455078125
17.1699999,3.0765492916107178,-5.705382823944092,-0.6392518281936646,15.8538818359375,24.322509765625,119.232177734375
17.1899999,2.96162748336792,-6.270414352416992,-0.7422025203704834,24.200439453125,12.420654296875,125.7781982421875
17.2099999,2.940079689025879,-7.158663272857666,-0.5315127968788147,41.900634765625,5.4779052734375,138.2598876953125
17.2299999,2.978386878967285,-8.267178535461426,-0.14604631066322327,47.5311279296875,-10.1318359375,127.5482177734375
17.249999900000002,3.045424461364746,-9.473855972290039,0.35673606395721436,29.693603515625,-35.6903076171875,106.4300537109375
17.269999900000002,3.0310592651367188,-10.60391902923584,0.5315127968788147,4.9896240234375,-56.640625,109.771728515625
17.2899999,2.9496564865112305,-11.688492774963379,0.5626373887062073,31.585693359375,-54.4586181640625,112.6861572265625
17.3099999,2.6839001178741455,-12.509703636169434,0.2346317619085312,25.2838134765625,-58.2275390625,96.61865234375
17.3299999,2.3582887649536133,-13.532028198242188,-0.24420857429504395,-15.533447265625,-85.5712890625,84.3658447265625
17.3499999,1.867477297782898,-14.39872932434082,-1.235408067703247,-35.5224609375,-101.8829345703125,70.3887939453125
17.3699999,1.3000515699386597,-15.052346229553223,-2.5067291259765625,-11.5203857421875,-81.5582275390625,45.0286865234375
17.3899999,0.7398083209991455,-15.301342964172363,-3.9839515686035156,22.2930908203125,-49.7894287109375,16.693115234375
17.409999900000003,0.35673606395721436,-15.162479400634766,-5.0900726318359375,14.7857666015625,-45.0286865234375,-1.40380859375
17.429999900000002,0.20350714027881622,-14.590265274047852,-5.592854976654053,-2.6702880859375,-52.0782470703125,-6.6680908203125
17.4499999,0.22505496442317963,-13.606247901916504,-5.6670756340026855,-12.1917724609375,-54.229736328125,-7.720947265625
17.4699999,0.3471592366695404,-12.42351245880127,-5.434837818145752,-3.0364990234375,-42.0989990234375,-7.8277587890625
17.4899999,0.4812345504760742,-11.190498352050781,-5.16429328918457,-1.708984375,-35.3240966796875,-7.9498291015625
17.5099999,0.6392518281936646,-10.125079154968262,-4.663905143737793,-4.39453125,-37.0635986328125,-6.7138671875
17.5299999,0.7733271718025208,-9.3828763961792,-4.0749311447143555,-13.9312744140625,-48.553466796875,-0.8392333984375
17.5499999,0.8403648138046265,-9.042900085449219,-3.600879430770874,-29.144287109375,-61.3861083984375,1.678466796875
17.5699999,0.7948749661445618,-9.016563415527344,-3.3877954483032227,-20.294189453125,-58.2427978515625,-10.3302001953125
17.589999900000002,0.6344634294509888,-9.131484985351562,-3.490746021270752,-7.5836181640625,-49.25537109375,-21.9573974609375
17.609999900000002,0.42377370595932007,-9.308655738830566,-3.7612907886505127,-17.9901123046875,-51.3153076171875,-16.54052734375
17.6299999,0.22744916379451752,-9.440337181091309,-4.055777549743652,-31.7535400390625,-59.8907470703125,-11.6729736328125
17.6499999,0.07182604819536209,-9.50737476348877,-4.316745758056641,-34.1033935546875,-62.744140625,-19.0277099609375
17.6699999,-0.031124621629714966,-9.536105155944824,-4.541800498962402,-30.0140380859375,-58.7615966796875,-27.0843505859375
17.6899999,-0.10534487664699554,-9.461885452270508,-4.759673118591309,-29.1900634765625,-55.206298828125,-26.6876220703125
17.7099999,-0.15083470940589905,-9.308655738830566,-4.874594688415527,-33.02001953125,-54.412841796875,-24.5208740234375
17.7299999,-0.15322890877723694,-9.232041358947754,-4.869806289672852,-37.8875732421875,-55.999755859375,-23.98681640625
17.749999900000002,-0.12928688526153564,-9.339780807495117,-4.831499099731445,-43.64013671875,-59.5855712890625,-28.4881591796875
17.769999900000002,-0.12210428714752197,-9.536105155944824,-4.8482584953308105,-37.17041015625,-57.525634765625,-42.5262451171875
17.7899999,-0.1412578970193863,-9.718064308166504,-4.932055473327637,-20.6756591796875,-49.1180419921875,-52.30712890625
17.8099999,-0.18914192914962769,-9.732429504394531,-5.125985622406006,-24.3072509765625,-47.027587890625,-49.9725341796875
17.8299999,-0.23942017555236816,-9.59596061706543,-5.274426460266113,-27.7099609375,-47.3480224609375,-45.928955078125
17.8499999,-0.2801215946674347,-9.406818389892578,-5.458779811859131,-23.5137939453125,-48.4771728515625,-47.1038818359375
17.8699999,-0.33758243918418884,-9.107542991638184,-5.774814605712891,-10.1165771484375,-46.7987060546875,-54.4586181640625
17.8899999,-0.395043283700943,-8.815450668334961,-6.169857978820801,15.7012939453125,-34.912109375,-55.5419921875
17.909999900000003,-0.3447650372982025,-8.250418663024902,-6.708553314208984,4.3792724609375,-23.2696533203125,-37.29248046875
17.929999900000002,-0.16519992053508759,-8.343792915344238,-6.617573261260986,-21.270751953125,-38.2232666015625,-37.7655029296875
17.9499999,0.09816227108240128,-8.767566680908203,-6.332663536071777,-32.806396484375,-46.4019775390625,-47.42431640625
17.9699999,0.31842881441116333,-9.301473617553711,-6.200982570648193,-34.423828125,-43.060302734375,-63.4765625
17.9899999,0.4644751250743866,-9.72285270690918,-6.275202751159668,-21.8658447265625,-33.660888671875,-75.164794921875
18.0099999,0.4812345504760742,-9.919178009033203,-6.521805286407471,-21.54541015625,-31.3720703125,-76.9195556640625
18.0299999,0.38067805767059326,-9.981427192687988,-7.015010833740234,-46.08154296875,-37.506103515625,-73.944091796875
18.0499999,0.181959331035614,-10.043676376342773,-7.625532627105713,-51.3458251953125,-26.763916015625,-80.6884765625
18.0699999,-0.0933738648891449,-10.098742485046387,-8.506598472595215,-43.2586669921875,-8.636474609375,-99.1668701171875
18.089999900000002,-0.3926490843296051,-10.005369186401367,-9.53849983215332,-36.1175537109375,10.07080078125,-114.227294921875
18.109999900000002,-0.6607996821403503,-9.564835548400879,-10.481815338134766,-38.75732421875,31.7535400390625,-117.5079345703125
18.1299999,-0.8595184087753296,-8.83699893951416,-11.23598861694336,-45.3948974609375,50.537109375,-110.748291015625
18.1499999,-0.9624691009521484,-7.920019149780273,-11.767500877380371,-44.7540283203125,68.90869140625,-106.658935546875
18.1699999,-0.9840168952941895,-6.919242858886719,-11.980585098266602,-29.60205078125,95.9014892578125,-113.037109375
18.1899999,-0.9361328482627869,-5.784391403198242,-11.920730590820312,-16.143798828125,122.6348876953125,-113.46435546875
18.2099999,-0.7972691655158997,-4.503493309020996,-11.592724800109863,-21.7437744140625,136.8255615234375,-97.4273681640625
18.2299999,-0.5841852426528931,-3.0573954582214355,-11.02051067352295,-18.707275390625,150.543212890625,-75.1953125
18.249999900000002,-0.2346317619085312,-1.659181833267212,-10.096348762512207,9.8419189453125,172.760009765625,-59.112548828125
18.269999900000002,0.28969839215278625,-0.5626373887062073,-8.75080680847168,12.5274658203125,181.7474365234375,-38.0706787109375
18.2899999,1.01753568649292,0.002394201699644327,-6.971915245056152,-18.24951171875,166.839599609375,-7.50732421875
18.3099999,1.9081788063049316,0.021547814831137657,-5.023035049438477,-47.4090576171875,139.8773193359375,16.998291015625
18.3299999,2.8586769104003906,-0.5841852426528931,-3.1747114658355713,-41.6412353515625,129.3182373046875,24.90234375
18.3499999,3.7421371936798096,-1.45806884765625,-1.7046716213226318,-25.8026123046875,123.9471435546875,22.1099853515625
18.3699999,4.424484729766846,-2.4013843536376953,-0.8020575642585754,-25.08544921875,105.1483154296875,24.749755859375
18.3899999,4.865017890930176,-3.114856481552124,-0.3423708379268646,-33.477783203125,84.9456787109375,33.2794189453125
18.409999900000003,5.051765441894531,-3.5936968326568604,-0.33279404044151306,-39.6728515625,76.4312744140625,45.3948974609375
18.429999900000002,5.003881454467773,-3.77565598487854,-0.6847416758537292,-35.797119140625,74.2645263671875,49.896240234375
18.4499999,4.788403511047363,-3.756502389907837,-1.2042834758758545,-22.2625732421875,73.883056640625,51.9561767578125
18.4699999,4.55616569519043,-3.6774938106536865,-1.4245500564575195,-16.3116455078125,74.8443603515625,65.0177001953125
18.4899999,4.347870349884033,-3.576937437057495,-1.4772224426269531,-33.233642578125,60.9283447265625,82.6873779296875
18.5099999,4.197035789489746,-3.529053211212158,-1.381454348564148,-33.538818359375,43.2281494140625,87.860107421875
18.5299999,4.10366153717041,-3.5673606395721436,-1.3287819623947144,0.1068115234375,46.2188720703125,88.470458984375
18.5499999,4.050989151000977,-3.756502389907837,-1.2497732639312744,11.1236572265625,55.1605224609375,101.3946533203125
18.5699999,4.022258758544922,-4.062960147857666,-1.137245774269104,-9.6588134765625,43.4417724609375,116.8060302734375
18.589999900000002,3.976768970489502,-4.4723687171936035,-0.9744400978088379,-18.6004638671875,20.6146240234375,123.2452392578125
18.609999900000002,3.9264907836914062,-5.07570743560791,-0.9433154463768005,-4.302978515625,12.1917724609375,128.387451171875
18.6299999,3.8498764038085938,-5.851428985595703,-0.9624691009521484,5.9814453125,28.3660888671875,138.9923095703125
18.6499999,3.7612907886505127,-6.811503887176514,-0.8403648138046265,-12.5732421875,27.435302734375,142.1051025390625
18.6699999,3.6391866207122803,-7.800309181213379,-0.768538773059845,-38.5894775390625,-15.289306640625,137.0697021484375
18.6899999,3.512293815612793,-9.114726066589355,-0.7422025203704834,-20.599365234375,-38.3758544921875,134.27734375
18.7099999,3.354276657104492,-10.204087257385254,-0.849941611289978,24.2919921875,-13.5498046875,113.1439208984375
18.7299999,3.1747114658355713,-11.188104629516602,-1.1109095811843872,44.25048828125,-3.997802734375,90.5303955078125
18.749999900000002,3.0095114707946777,-11.836933135986328,-1.2617442607879639,20.751953125,-31.55517578125,91.7205810546875
18.769999900000002,2.80361008644104,-12.160150527954102,-1.4101848602294922,-26.2603759765625,-59.051513671875,105.7586669921875
18.7899999,2.5929205417633057,-12.497733116149902,-1.6855180263519287,-12.6953125,-52.947998046875,100.189208984375
18.8099999,2.346317768096924,-12.775460243225098,-2.207453966140747,22.9644775390625,-35.2325439453125,69.4732666015625
18.8299999,2.1356279850006104,-13.287819862365723,-2.7557260990142822,14.46533203125,-34.97314453125,56.3201904296875
18.8499999,2.011129379272461,-13.740324020385742,-2.983175277709961,3.35693359375,-42.1600341796875,52.0172119140625
18.8699999,1.9105730056762695,-13.943830490112305,-3.071760892868042,-6.4849853515625,-49.3621826171875,39.337158203125
18.8899999,1.8387469053268433,-13.891158103942871,-3.004723072052002,-7.2479248046875,-50.323486328125,25.6500244140625
18.909999900000003,1.7573440074920654,-13.548787117004395,-2.911349296569824,2.716064453125,-48.2025146484375,16.2506103515625
18.929999900000002,1.6160861253738403,-12.952630996704102,-2.8850131034851074,-3.5247802734375,-52.6275634765625,10.833740234375
18.9499999,1.4437036514282227,-12.270283699035645,-2.868253707885742,-17.5018310546875,-55.7708740234375,6.8359375
18.9699999,1.2545616626739502,-11.619060516357422,-2.985569477081299,-17.4560546875,-56.21337890625,-0.9002685546875
18.9899999,1.1037269830703735,-10.984597206115723,-3.095702886581421,-9.09423828125,-51.055908203125,-10.31494140625
19.0099999,0.9911994934082031,-10.44350814819336,-3.1699230670928955,-15.411376953125,-50.1556396484375,-9.4451904296875
19.0299999,0.8930372595787048,-9.976638793945312,-3.162740468978882,-31.4483642578125,-58.990478515625,-4.94384765625
19.0499999,0.7805097699165344,-9.68933391571045,-3.1268274784088135,-46.5545654296875,-69.244384765625,-2.838134765625
19.0699999,0.6320692300796509,-9.610325813293457,-3.201047658920288,-50.811767578125,-72.4334716796875,-6.4239501953125
19.089999900000002,0.44771572947502136,-9.682151794433594,-3.4596214294433594,-45.2728271484375,-70.4193115234375,-15.411376953125
19.109999900000002,0.2561795711517334,-9.782708168029785,-3.8307228088378906,-38.63525390625,-64.971923828125,-22.8424072265625
19.1299999,0.08140286058187485,-9.801861763000488,-4.194641590118408,-39.36767578125,-64.1937255859375,-26.2603759765625
19.1499999,-0.06224924325942993,-9.68933391571045,-4.517858505249023,-42.1142578125,-67.5506591796875,-27.52685546875
19.1699999,-0.17238251864910126,-9.481039047241211,-4.754884719848633,-41.1224365234375,-67.5201416015625,-30.09033203125
19.1899999,-0.22505496442317963,-9.308655738830566,-4.922478675842285,-38.5894775390625,-64.453125,-31.5093994140625
19.2099999,-0.23942017555236816,-9.17936897277832,-5.073313236236572,-39.36767578125,-64.4378662109375,-36.7431640625
19.2299999,-0.22266076505184174,-9.153033256530762,-5.173870086669922,-37.750244140625,-64.51416015625,-42.755126953125
19.249999900000002,-0.20111294090747833,-9.14345645904541,-5.264849662780762,-37.2161865234375,-64.1632080078125,-47.1038818359375
19.269999900000002,-0.19871874153614044,-9.057265281677246,-5.386953830718994,-36.5753173828125,-63.018798828125,-51.116943359375
19.2899999,-0.2059013396501541,-8.913613319396973,-5.494692802429199,-32.40966796875,-61.4776611328125,-52.3681640625
19.3099999,-0.2082955539226532,-8.753201484680176,-5.626373767852783,-33.905029296875,-63.140869140625,-52.0782470703125
19.3299999,-0.20111294090747833,-8.628703117370605,-5.770026206970215,-38.9862060546875,-64.7125244140625,-54.7332763671875
19.3499999,-0.18914192914962769,-8.552088737487793,-5.937620162963867,-37.7655029296875,-61.8743896484375,-60.760498046875
19.3699999,-0.17956513166427612,-8.480262756347656,-6.138733386993408,-31.7230224609375,-56.9305419921875,-63.446044921875
19.3899999,-0.20350714027881622,-8.310274124145508,-6.45476770401001,-35.5987548828125,-57.31201171875,-62.8509521484375
19.409999900000003,-0.22505496442317963,-8.121131896972656,-6.777985095977783,-35.125732421875,-52.3223876953125,-60.9588623046875
19.429999900000002,-0.2322375625371933,-7.967903137207031,-7.158663272857666,-32.2723388671875,-44.7998046875,-60.760498046875
19.4499999,-0.19153612852096558,-7.860164165496826,-7.908048152923584,-32.7301025390625,-36.5753173828125,-66.5435791015625
19.4699999,-0.16519992053508759,-7.898471355438232,-8.312667846679688,-29.266357421875,-28.99169921875,-65.91796875
19.4899999,-0.14604631066322327,-7.960720539093018,-8.741230010986328,-26.763916015625,-16.78466796875,-66.3299560546875
19.5099999,-0.13407529890537262,-7.979874134063721,-9.232041358947754,-28.8543701171875,-7.4462890625,-70.61767578125
19.5299999,-0.09816227108240128,-7.91283655166626,-9.636661529541016,-28.472900390625,2.716064453125,-73.5931396484375
19.5499999,-0.05267243832349777,-7.69735860824585,-9.988609313964844,-32.04345703125,11.23046875,-69.64111328125
19.5699999,0.004788403399288654,-7.4316020011901855,-10.290278434753418,-40.10009765625,18.310546875,-62.98828125
19.589999900000002,0.043095629662275314,-7.132327079772949,-10.587160110473633,-42.6788330078125,30.1513671875,-63.6444091796875
19.609999900000002,0.05985504388809204,-6.84981107711792,-10.857705116271973,-36.8804931640625,47.1954345703125,-68.3746337890625
19.6299999,0.06703764945268631,-6.531382083892822,-11.061211585998535,-31.0821533203125,62.6373291015625,-70.2972412109375
19.6499999,0.0933738648891449,-6.074089527130127,-11.08994197845459,-28.25927734375,75.3936767578125,-68.328857421875
19.6699999,0.181959331035614,-5.501875400543213,-10.848128318786621,-25.57373046875,86.8072509765625,-62.835693359375
19.6899999,0.31364041566848755,-4.855441093444824,-10.44350814819336,-25.7110595703125,92.437744140625,-55.84716796875
19.7099999,0.5171475410461426,-4.213795185089111,-9.947908401489258,-28.0609130859375,97.6715087890625,-47.210693359375
19.7299999,0.7852981686592102,-3.6822822093963623,-9.394847869873047,-22.88818359375,109.80224609375,-37.0941162109375
19.749999900000002,1.1444283723831177,-3.2609026432037354,-8.779537200927734,-21.0418701171875,118.8507080078125,-28.778076171875
19.769999900000002,1.5849615335464478,-2.9927520751953125,-8.085219383239746,-27.4505615234375,118.4844970703125,-18.218994140625
19.7899999,2.0853497982025146,-2.8443117141723633,-7.287950038909912,-30.853271484375,114.166259765625,-8.544921875
19.8099999,2.5785553455352783,-2.808398485183716,-6.519411087036133,-25.4058837890625,112.1978759765625,-1.15966796875
19.8299999,2.9664158821105957,-2.715024709701538,-5.975927352905273,-23.040771484375,108.88671875,1.312255859375
19.8499999,3.2585084438323975,-2.626439332962036,-5.568912982940674,-8.9263916015625,114.19677734375,8.23974609375
19.8699999,3.471592426300049,-2.5282769203186035,-5.152322292327881,-9.7503662109375,119.5526123046875,25.421142578125
19.8899999,3.670311212539673,-2.5234885215759277,-4.663905143737793,-36.19384765625,108.123779296875,41.839599609375
19.909999900000003,3.8355112075805664,-2.5761611461639404,-4.173093795776367,-41.6412353515625,90.0726318359375,41.80908203125
19.929999900000002,3.9240965843200684,-2.542642116546631,-3.8810009956359863,-16.66259765625,86.883544921875,35.94970703125
19.9499999,3.9647979736328125,-2.451662540435791,-3.6990416049957275,11.77978515625,102.96630859375,48.2635498046875
19.9699999,4.003105163574219,-2.4444799423217773,-3.3423056602478027,3.7384033203125,112.1978759765625,75.3326416015625
19.9899999,4.094084739685059,-2.6024973392486572,-2.7509377002716064,-20.32470703125,88.3331298828125,85.44921875
20.0099999,4.220977783203125,-2.96162748336792,-1.9704279899597168,-18.61572265625,60.7147216796875,80.291748046875
20.0299999,4.256890773773193,-3.177105665206909,-1.501164436340332,5.767822265625,53.314208984375,75.68359375
20.0499999,4.175487995147705,-3.203441858291626,-1.3024457693099976,26.9622802734375,66.3604736328125,92.6513671875
