# Time (seconds),Accel_X,Accel_Y,Accel_Z,Gyro_X,Gyro_Y,Gyro_Z
0.0099999,1.170764684677124,-2.6815059185028076,-9.524134635925293,-2.1820068359375,0.8087158203125,2.7313232421875
0.029999900000000003,1.3096283674240112,-2.674323320388794,-9.622296333312988,0.8392333984375,-2.3345947265625,4.4708251953125
0.0499999,1.5083470344543457,-2.7078421115875244,-9.68694019317627,-1.220703125,2.1209716796875,6.195068359375
0.0699999,1.7334020137786865,-2.784456491470337,-9.710882186889648,-2.044677734375,7.32421875,6.3323974609375
0.08999990000000001,1.9608511924743652,-2.8778305053710938,-9.701305389404297,1.7547607421875,5.43212890625,4.9285888671875
0.10999990000000001,2.126051187515259,-2.9951462745666504,-9.66299819946289,4.7454833984375,5.218505859375,7.2479248046875
0.1299999,2.169146776199341,-3.141192674636841,-9.591172218322754,3.1280517578125,8.97216796875,9.5977783203125
0.14999990000000002,2.0805611610412598,-3.3255462646484375,-9.495404243469238,2.1820068359375,10.4217529296875,6.4544677734375
0.1699999,1.889025092124939,-3.5027170181274414,-9.385271072387695,4.486083984375,7.2174072265625,-0.946044921875
0.1899999,1.6496049165725708,-3.6511576175689697,-9.277531623840332,4.4708251953125,4.94384765625,-1.0986328125
0.20999990000000002,1.41257905960083,-3.7205893993377686,-9.20091724395752,1.52587890625,10.9100341796875,6.500244140625
0.2299999,1.1971008777618408,-3.7469255924224854,-9.138668060302734,2.0751953125,12.75634765625,4.669189453125
0.2499999,1.0079588890075684,-3.7445313930511475,-9.105149269104004,3.9825439453125,6.500244140625,-6.317138671875
0.2699999,0.912190854549408,-3.670311212539673,-9.050082206726074,7.537841796875,-4.1656494140625,-16.41845703125
0.28999990000000003,0.849941611289978,-3.6320040225982666,-9.016563415527344,-0.7171630859375,1.46484375,-0.4119873046875
0.3099999,0.8547300100326538,-3.5865142345428467,-8.942343711853027,-6.8206787109375,12.3138427734375,7.14111328125
0.3299999,0.8236053586006165,-3.691859006881714,-8.858546257019043,-2.288818359375,3.8909912109375,-7.75146484375
0.34999990000000003,0.8643068075180054,-3.6942532062530518,-8.722076416015625,1.15966796875,-5.6304931640625,-35.1104736328125
0.3699999,0.871489405632019,-3.825934410095215,-8.62391471862793,-6.1187744140625,-11.383056640625,-16.41845703125
0.3899999,0.9313444495201111,-3.818751811981201,-8.576030731201172,-15.7623291015625,-6.28662109375,0.640869140625
0.40999990000000003,0.9097966551780701,-3.931279182434082,-8.609549522399902,-10.3607177734375,-9.21630859375,-18.8140869140625
0.4299999,0.9145850539207458,-3.825934410095215,-8.664615631103516,-1.7547607421875,-19.317626953125,-51.7730712890625
0.4499999,0.811634361743927,-3.8067808151245117,-8.789113998413086,-7.87353515625,-24.9176025390625,-26.5960693359375
0.4699999,0.689530074596405,-3.6296098232269287,-8.937555313110352,-24.627685546875,-14.0838623046875,4.08935546875
0.4899999,0.5291185975074768,-3.512293815612793,-9.10993766784668,-19.6075439453125,-3.875732421875,-22.03369140625
0.5099999,0.3471592366695404,-3.4141316413879395,-9.275136947631836,-10.8642578125,-10.711669921875,-50.2166748046875
0.5299999,0.1843535304069519,-3.35667085647583,-9.433155059814453,-11.1236572265625,-23.223876953125,-36.62109375
0.5499999,0.1149216815829277,-3.224989652633667,-9.536105155944824,-25.665283203125,-9.27734375,-13.00048828125
0.5699999,0.10534487664699554,-3.066972494125366,-9.619902610778809,-31.494140625,9.124755859375,-19.95849609375
0.5899998999999999,0.16759411990642548,-2.889801502227783,-9.691728591918945,-26.7181396484375,5.645751953125,-39.24560546875
0.6099998999999999,0.2849099934101105,-2.6431987285614014,-9.727641105651855,-19.989013671875,-9.1400146484375,-42.0379638671875
0.6299999,0.40462008118629456,-2.3511061668395996,-9.739612579345703,-25.0396728515625,-8.6822509765625,-23.98681640625
0.6499999,0.5482721924781799,-2.0207061767578125,-9.768342971801758,-29.9530029296875,0.946044921875,-20.3704833984375
0.6699999,0.6775590777397156,-1.6974890232086182,-9.763554573059082,-30.8380126953125,9.613037109375,-28.38134765625
0.6899999,0.7206547260284424,-1.4173674583435059,-9.75397777557373,-34.8663330078125,-0.3204345703125,-34.7137451171875
0.7099999,0.7493851184844971,-1.1827356815338135,-9.694122314453125,-26.092529296875,-10.6353759765625,-24.3072509765625
0.7299998999999999,0.6943184733390808,-0.9433154463768005,-9.639056205749512,-24.0020751953125,-7.62939453125,-22.6287841796875
0.7499998999999999,0.5626373887062073,-0.790086567401886,-9.586383819580078,-24.0325927734375,-3.5552978515625,-20.9808349609375
0.7699999,0.3998316824436188,-0.6943184733390808,-9.548076629638672,-20.0653076171875,-5.55419921875,-22.6593017578125
0.7899999,0.26815059781074524,-0.6536170840263367,-9.519346237182617,-16.5557861328125,-12.603759765625,-25.57373046875
0.8099999,0.20350714027881622,-0.646434485912323,-9.521739959716797,-20.20263671875,-7.4005126953125,-23.9410400390625
0.8299999,0.22026655077934265,-0.6727706789970398,-9.576807022094727,-17.2576904296875,-8.0718994140625,-25.7415771484375
0.8499998999999999,0.26815059781074524,-0.7493851184844971,-9.62947940826416,-8.575439453125,-7.6904296875,-37.4603271484375
0.8699998999999999,0.38067805767059326,-0.7733271718025208,-9.648633003234863,-0.5950927734375,-8.7890625,-52.3529052734375
0.8899999,0.4644751250743866,-0.828393816947937,-9.641449928283691,-8.11767578125,-8.6822509765625,-38.299560546875
0.9099999,0.586579442024231,-0.8259995579719543,-9.567230224609375,-15.472412109375,-6.8817138671875,-25.3143310546875
0.9299999,0.6703764796257019,-0.8451532125473022,-9.512163162231445,-14.678955078125,-9.521484375,-24.1241455078125
0.9499999,0.727837324142456,-0.8547300100326538,-9.464279174804688,-12.5579833984375,-12.14599609375,-30.5633544921875
0.9699998999999999,0.7326257228851318,-0.8834604024887085,-9.452308654785156,-9.2620849609375,-16.6473388671875,-28.01513671875
0.9899998999999999,0.6512228846549988,-0.9097966551780701,-9.500192642211914,-13.153076171875,-17.39501953125,-16.510009765625
1.0099999,0.5123591423034668,-0.9169792532920837,-9.57441234588623,-14.892578125,-13.427734375,-16.9219970703125
1.0299999,0.28969839215278625,-0.9385270476341248,-9.696516990661621,-13.97705078125,-13.641357421875,-21.636962890625
1.0499999,0.014365210197865963,-0.933738648891449,-9.84256362915039,-7.9193115234375,-19.1497802734375,-24.8565673828125
1.0699999,-0.2537853717803955,-0.8834604024887085,-10.002974510192871,-8.7432861328125,-18.157958984375,-21.026611328125
1.0899999,-0.5003881454467773,-0.7972691655158997,-10.165780067443848,-12.9547119140625,-9.6282958984375,-16.815185546875
1.1099999,-0.6991068720817566,-0.6919242739677429,-10.307038307189941,-9.27734375,-8.026123046875,-19.04296875
1.1299999,-0.8475474119186401,-0.608127236366272,-10.390835762023926,-2.44140625,-10.3912353515625,-22.8729248046875
1.1499999,-0.9193734526634216,-0.5363011956214905,-10.407594680786133,-0.701904296875,-8.880615234375,-26.397705078125
1.1699998999999999,-0.9002198576927185,-0.44771572947502136,-10.383652687072754,-1.312255859375,-5.035400390625,-28.0303955078125
1.1899998999999999,-0.8164227604866028,-0.35434186458587646,-10.323798179626465,1.4801025390625,-3.143310546875,-28.1524658203125
1.2099999,-0.6607996821403503,-0.24181437492370605,-10.247182846069336,1.983642578125,-0.1678466796875,-29.9530029296875
1.2299999,-0.4812345504760742,-0.1388636976480484,-10.14902114868164,1.4801025390625,2.6702880859375,-29.8309326171875
1.2499999,-0.2944868206977844,-0.05506663769483566,-10.017339706420898,0.79345703125,4.8828125,-31.06689453125
1.2699999,-0.12449848651885986,0.023942016065120697,-9.888052940368652,1.40380859375,3.8604736328125,-33.599853515625
1.2899999,0.023942016065120697,0.12210428714752197,-9.763554573059082,1.068115234375,4.39453125,-34.0576171875
1.3099999,0.14365209639072418,0.22026655077934265,-9.66539192199707,-1.6021728515625,4.7607421875,-32.623291015625
1.3299999,0.22266076505184174,0.3280056416988373,-9.603142738342285,-1.5716552734375,3.1280517578125,-30.21240234375
1.3499999,0.24181437492370605,0.4118026793003082,-9.588777542114258,-0.3509521484375,0.0152587890625,-29.11376953125
1.3699999,0.2082955539226532,0.4572925269603729,-9.63187313079834,0.8697509765625,-0.9918212890625,-29.8309326171875
1.3899999,0.13407529890537262,0.47644615173339844,-9.708487510681152,1.15966796875,1.373291015625,-30.029296875
1.4099999,0.05746084079146385,0.4644751250743866,-9.792284965515137,-0.152587890625,4.94384765625,-29.632568359375
1.4299998999999999,-0.0071826050989329815,0.4189853072166443,-9.859322547912598,-2.9144287109375,6.7291259765625,-29.327392578125
1.4499999,-0.009576806798577309,0.3902548849582672,-9.895236015319824,1.678466796875,3.875732421875,-32.440185546875
1.4699999,0.033518824726343155,0.3758896589279175,-9.904812812805176,4.5928955078125,2.685546875,-34.72900390625
1.4899999,0.11013327538967133,0.3711012601852417,-9.856928825378418,4.2266845703125,5.340576171875,-31.4483642578125
1.5099999,0.21547815203666687,0.3687070608139038,-9.780313491821289,-0.9918212890625,8.4075927734375,-29.6478271484375
1.5299999,0.3280056416988373,0.38067805767059326,-9.667786598205566,-1.5869140625,6.8817138671875,-31.219482421875
1.5499999,0.42616790533065796,0.3758896589279175,-9.555258750915527,4.6844482421875,0.1983642578125,-30.4718017578125
1.5699999,0.45250412821769714,0.37828385829925537,-9.47146224975586,4.852294921875,0.6256103515625,-25.93994140625
1.5899999,0.40462008118629456,0.363918662071228,-9.428366661071777,0.1983642578125,2.166748046875,-22.9949951171875
1.6099999,0.3208230137825012,0.35673606395721436,-9.440337181091309,-2.227783203125,0.91552734375,-26.702880859375
1.6299999,0.2082955539226532,0.3471592366695404,-9.469067573547363,1.3580322265625,0.1983642578125,-27.984619140625
1.6499999,0.1364694982767105,0.3471592366695404,-9.533711433410645,2.13623046875,0.1220703125,-25.1617431640625
1.6699999,0.11252748221158981,0.3519476354122162,-9.593565940856934,1.15966796875,2.3956298828125,-23.101806640625
1.6899998999999999,0.1149216815829277,0.33279404044151306,-9.615114212036133,5.6915283203125,1.983642578125,-26.2298583984375
1.7099999,0.14604631066322327,0.3232172429561615,-9.610325813293457,6.134033203125,2.6092529296875,-29.23583984375
1.7299999,0.2298433631658554,0.3519476354122162,-9.586383819580078,5.5084228515625,0.8392333984375,-27.6031494140625
1.7499999,0.33279404044151306,0.4118026793003082,-9.533711433410645,5.79833984375,1.312255859375,-26.2298583984375
1.7699999,0.42377370595932007,0.45250412821769714,-9.478644371032715,5.4168701171875,2.349853515625,-25.20751953125
1.7899999,0.5171475410461426,0.47644615173339844,-9.457097053527832,1.5411376953125,4.730224609375,-25.9246826171875
1.8099999,0.6200982332229614,0.4836287498474121,-9.469067573547363,2.4566650390625,5.8441162109375,-30.1666259765625
1.8299999,0.7254431247711182,0.5027823448181152,-9.531316757202148,3.6468505859375,4.8980712890625,-26.153564453125
1.8499999,0.828393816947937,0.5506663918495178,-9.641449928283691,0.8544921875,5.3558349609375,-17.4713134765625
1.8699999,0.9313444495201111,0.608127236366272,-9.768342971801758,7.5531005859375,0.152587890625,-18.5699462890625
1.8899999,0.9911994934082031,0.629675030708313,-9.9000244140625,13.458251953125,-1.5869140625,-22.03369140625
1.9099999,0.9864110946655273,0.6009446382522583,-10.022128105163574,7.32421875,6.7138671875,-18.3258056640625
1.9299998999999999,0.9361328482627869,0.5291185975074768,-10.110713958740234,3.082275390625,12.1917724609375,-17.6849365234375
1.9499999,0.8738836050033569,0.42616790533065796,-10.15141487121582,5.5999755859375,11.0321044921875,-25.20751953125
1.9699999,0.8307880163192749,0.33039984107017517,-10.144232749938965,6.53076171875,12.8021240234375,-28.076171875
1.9899999,0.8523358106613159,0.2968810200691223,-10.122684478759766,4.608154296875,16.4031982421875,-26.6876220703125
2.0099999,0.8930372595787048,0.3232172429561615,-10.096348762512207,5.2490234375,18.6920166015625,-24.017333984375
2.0299999,0.9074024558067322,0.3447650372982025,-10.089165687561035,13.0462646484375,14.0380859375,-25.2227783203125
2.0499999,0.8762778043746948,0.3232172429561615,-10.11550235748291,14.8773193359375,13.3056640625,-27.4200439453125
2.0699999,0.8427590131759644,0.28969839215278625,-10.139444351196289,9.82666015625,25.0701904296875,-31.79931640625
2.0899999,0.8188169598579407,0.2585737705230713,-10.17296314239502,10.2386474609375,29.0679931640625,-32.379150390625
2.1099999,0.8523358106613159,0.21308395266532898,-10.18493366241455,24.2919921875,14.5721435546875,-30.6243896484375
2.1299999,0.9481038451194763,0.19393034279346466,-10.177751541137695,23.956298828125,14.129638671875,-32.7606201171875
2.1499999,1.1635819673538208,0.2059013396501541,-10.108319282531738,16.571044921875,29.327392578125,-37.7960205078125
2.1699999,1.482010841369629,0.23942017555236816,-9.998186111450195,17.059326171875,32.1502685546875,-33.294677734375
2.1899999,1.8100165128707886,0.3208230137825012,-9.837775230407715,23.0865478515625,23.162841796875,-24.2462158203125
2.2099999,2.073378562927246,0.3471592366695404,-9.66299819946289,29.083251953125,11.1236572265625,-21.6827392578125
2.2299999,2.212242364883423,0.31842881441116333,-9.519346237182617,24.2156982421875,14.9383544921875,-24.5513916015625
2.2499999,2.2361843585968018,0.2059013396501541,-9.397241592407227,18.1732177734375,24.8260498046875,-21.1029052734375
2.2699999,2.2242133617401123,0.090979665517807,-9.318233489990234,18.4783935546875,20.0347900390625,-9.4757080078125
2.2899999,2.1475989818573,-0.08140286058187485,-9.289502143859863,16.90673828125,12.4969482421875,1.8157958984375
2.3099999,2.0829553604125977,-0.2561795711517334,-9.260771751403809,14.251708984375,16.0369873046875,-2.1514892578125
2.3299999,2.078166961669922,-0.43335050344467163,-9.263166427612305,11.3677978515625,25.08544921875,-4.1351318359375
2.3499999,2.126051187515259,-0.6512228846549988,-9.265560150146484,10.3912353515625,23.2391357421875,11.0015869140625
2.3699999,2.3056161403656006,-0.8092401623725891,-9.244012832641602,20.111083984375,7.4920654296875,8.4381103515625
2.3899999,2.5115175247192383,-0.9409212470054626,-9.220070838928223,25.2685546875,-1.64794921875,-1.15966796875
2.4099999,2.715024709701538,-1.1109095811843872,-9.210494041442871,21.881103515625,10.955810546875,8.2550048828125
2.4299999,2.8562827110290527,-1.256955862045288,-9.172186851501465,16.54052734375,24.871826171875,17.8985595703125
2.4499999,2.913743495941162,-1.414973258972168,-9.126696586608887,18.6309814453125,13.0462646484375,15.93017578125
2.4699999,2.868253707885742,-1.5179238319396973,-9.059659004211426,20.233154296875,3.2196044921875,7.232666015625
2.4899999,2.7772738933563232,-1.625662922859192,-8.971074104309082,19.927978515625,6.16455078125,8.30078125
2.5099999,2.6216509342193604,-1.6879122257232666,-8.880094528198242,15.655517578125,10.650634765625,10.040283203125
2.5299999,2.4851813316345215,-1.7357962131500244,-8.801085472106934,14.190673828125,-0.8544921875,2.2125244140625
2.5499999,2.4133553504943848,-1.778891921043396,-8.746018409729004,15.3961181640625,-10.345458984375,-1.953125
2.5699999,2.449268341064453,-1.7980455160140991,-8.69095230102539,15.625,-3.72314453125,-0.7781982421875
2.5899999,2.6216509342193604,-1.7621324062347412,-8.662221908569336,15.1214599609375,-1.6021728515625,2.01416015625
2.6099999,2.853888511657715,-1.7070658206939697,-8.655038833618164,13.6871337890625,-5.8441162109375,6.683349609375
2.6299999,3.064578056335449,-1.6160861253738403,-8.707711219787598,14.5416259765625,-14.22119140625,9.33837890625
2.6499999,3.179499864578247,-1.558625340461731,-8.827422142028809,13.092041015625,-15.3961181640625,9.002685546875
2.6699999,3.1890766620635986,-1.5658079385757446,-8.947132110595703,9.490966796875,2.3193359375,13.8397216796875
2.6899999,3.1316158771514893,-1.659181833267212,-9.057265281677246,11.322021484375,-5.5084228515625,16.9677734375
2.7099999,3.0142998695373535,-1.8579005002975464,-9.102754592895508,10.2386474609375,-16.448974609375,16.8914794921875
2.7299999,2.827552318572998,-2.070984363555908,-9.11233139038086,9.6282958984375,-17.7459716796875,15.19775390625
2.7499999,2.652775526046753,-2.2409727573394775,-9.121908187866211,12.7410888671875,-20.4925537109375,8.8348388671875
2.7699999,2.559401512145996,-2.341529369354248,-9.131484985351562,10.1165771484375,-14.0228271484375,9.124755859375
2.7899999,2.580949544906616,-2.346317768096924,-9.126696586608887,3.0670166015625,-2.4261474609375,15.8843994140625
2.8099999,2.7102363109588623,-2.2816741466522217,-9.11233139038086,0.701904296875,-1.0986328125,21.17919921875
2.8299999,2.8802247047424316,-2.142810583114624,-9.05487060546875,2.44140625,-2.50244140625,23.3001708984375
2.8499999,2.9951462745666504,-1.9943699836730957,-8.932766914367676,3.173828125,-2.0294189453125,25.87890625
2.8699999,3.047818660736084,-1.8531121015548706,-8.746018409729004,-2.105712890625,-2.655029296875,28.6102294921875
2.8899999,3.0190882682800293,-1.7717092037200928,-8.56884765625,-6.1798095703125,-10.5133056640625,33.538818359375
2.9099999,2.9328970909118652,-1.7621324062347412,-8.480262756347656,-3.2958984375,-19.287109375,39.2913818359375
2.9299999,2.801215887069702,-1.7980455160140991,-8.53293514251709,-4.45556640625,-13.61083984375,40.7562255859375
2.9499999,2.647987127304077,-1.8962076902389526,-8.698134422302246,-7.598876953125,-8.6212158203125,43.3807373046875
2.9699999,2.5234885215759277,-1.9800047874450684,-8.899248123168945,-9.3536376953125,-3.60107421875,45.928955078125
2.9899999,2.382230758666992,-2.10210919380188,-9.097966194152832,-8.6822509765625,-6.3018798828125,50.72021484375
3.0099999,2.2409727573394775,-2.212242364883423,-9.282320022583008,-4.8675537109375,-17.6849365234375,49.7894287109375
3.0299999,2.073378562927246,-2.2840683460235596,-9.454702377319336,-5.9967041015625,-16.7388916015625,41.778564453125
3.0499999,1.9249382019042969,-2.31758713722229,-9.560047149658203,-10.7269287109375,-3.265380859375,40.34423828125
3.0699999,1.8531121015548706,-2.2649147510528564,-9.531316757202148,-16.2200927734375,9.6282958984375,46.44775390625
3.0899999,1.8626888990402222,-2.1475989818573,-9.344569206237793,-20.1568603515625,12.054443359375,49.9267578125
3.1099999,1.9129672050476074,-2.049436569213867,-9.08838939666748,-18.8751220703125,-3.2196044921875,51.5594482421875
3.1299999,1.9297266006469727,-1.987187385559082,-8.863334655761719,-14.0838623046875,-21.5301513671875,48.828125
3.1499999,1.8698714971542358,-1.987187385559082,-8.767566680908203,-15.777587890625,-22.0794677734375,45.928955078125
3.1699999,1.778891921043396,-2.032677173614502,-8.813055992126465,-20.81298828125,-13.397216796875,50.5218505859375
3.1899999,1.721431016921997,-2.118868589401245,-8.925583839416504,-25.390625,-7.1563720703125,57.220458984375
3.2099999,1.766920804977417,-2.185906171798706,-8.99740982055664,-29.266357421875,-2.25830078125,53.7109375
3.2299999,1.9488801956176758,-2.2026655673980713,-9.006986618041992,-28.1829833984375,-9.6282958984375,53.28369140625
3.2499999,2.1523873805999756,-2.229001760482788,-9.004592895507812,-29.0985107421875,-20.8587646484375,66.5740966796875
3.2699999,2.346317768096924,-2.2002713680267334,-9.038111686706543,-28.8848876953125,-24.23095703125,70.73974609375
3.2899999,2.3965959548950195,-2.2026655673980713,-9.193734169006348,-28.2440185546875,-23.284912109375,67.81005859375
3.3099999,2.3127987384796143,-2.2242133617401123,-9.533711433410645,-25.93994140625,-26.5045166015625,69.4122314453125
3.3299999000000002,2.1092917919158936,-2.231395959854126,-10.014945983886719,-26.9622802734375,-16.6015625,75.6072998046875
3.3499999,1.8267759084701538,-2.2577321529388428,-10.556035041809082,-27.4505615234375,3.6468505859375,78.7811279296875
3.3699999,1.53707754611969,-2.2601263523101807,-10.982203483581543,-24.688720703125,16.78466796875,75.68359375
3.3899999,1.259350061416626,-2.296039342880249,-11.18092155456543,-21.5911865234375,16.1285400390625,74.40185546875
3.4099999,1.0199298858642578,-2.322375535964966,-11.101913452148438,-17.2576904296875,9.796142578125,72.9217529296875
3.4299999,0.8451532125473022,-2.315192937850952,-10.824186325073242,-13.1988525390625,5.5694580078125,68.7713623046875
3.4499999,0.6871358752250671,-2.3295583724975586,-10.450690269470215,-13.7176513671875,15.13671875,69.64111328125
3.4699999,0.5985504388809204,-2.2864625453948975,-10.022128105163574,-15.5181884765625,22.247314453125,64.1326904296875
3.4899999,0.5841852426528931,-2.2170307636260986,-9.59596061706543,-18.9361572265625,21.1029052734375,60.11962890625
3.5099999,0.5937620401382446,-2.1499931812286377,-9.196128845214844,-21.1181640625,17.1356201171875,59.0362548828125
3.5299999,0.6272808313369751,-2.0829553604125977,-8.920795440673828,-13.7176513671875,5.43212890625,49.3927001953125
3.5499999,0.6512228846549988,-1.9057846069335938,-8.846575736999512,-5.5694580078125,-19.3328857421875,24.0325927734375
3.5699999,0.6177040338516235,-1.764526605606079,-9.040505409240723,-7.110595703125,-21.2554931640625,35.0799560546875
3.5899999,0.545877993106842,-1.5969325304031372,-9.435548782348633,-16.0675048828125,7.6751708984375,59.051513671875
3.6099999,0.40940847992897034,-1.599326729774475,-9.904812812805176,-12.847900390625,15.7318115234375,41.7022705078125
3.6299999,0.2513911724090576,-1.659181833267212,-10.350133895874023,0.091552734375,-2.4871826171875,3.7689208984375
3.6499999,0.1867477297782898,-1.7190368175506592,-10.66137981414795,13.4429931640625,-24.993896484375,-8.97216796875
3.6699999,0.1173158809542656,-1.8148049116134644,-10.934319496154785,-5.18798828125,0.4730224609375,34.5916748046875
3.6899999,0.2322375625371933,-1.7741034030914307,-11.05642318725586,-7.476806640625,32.501220703125,33.782958984375
3.7099999,0.3232172429561615,-1.9153614044189453,-11.12106704711914,1.312255859375,33.1878662109375,12.3748779296875
3.7299999,0.49799394607543945,-1.9991583824157715,-10.991780281066895,17.242431640625,11.962890625,-13.092041015625
3.7499999,0.6799532771110535,-2.121262788772583,-10.742782592773438,16.6015625,-0.5645751953125,-1.9073486328125
3.7699999,0.7972691655158997,-2.2170307636260986,-10.45547866821289,-8.23974609375,25.2685546875,30.1513671875
3.7899999,0.8259995579719543,-2.3319525718688965,-10.189722061157227,-10.040283203125,36.2701416015625,20.6451416015625
3.8099999,0.727837324142456,-2.470816135406494,-10.022128105163574,1.3427734375,17.7459716796875,-2.38037109375
3.8299999000000002,0.5841852426528931,-2.5785553455352783,-9.914389610290527,1.3580322265625,12.3138427734375,-5.2947998046875
3.8499999,0.42616790533065796,-2.6192567348480225,-9.895236015319824,-12.5885009765625,26.9775390625,9.3994140625
3.8699999,0.3495534360408783,-2.557007312774658,-9.873687744140625,-10.1776123046875,31.6314697265625,-4.180908203125
3.8899999,0.37828385829925537,-2.38462495803833,-9.856928825378418,2.777099609375,15.2740478515625,-29.510498046875
3.9099999,0.5171475410461426,-2.123656988143921,-9.81143856048584,5.950927734375,2.99072265625,-30.1971435546875
3.9299999,0.768538773059845,-1.7549498081207275,-9.765948295593262,-10.009765625,13.824462890625,-4.57763671875
3.9499999,1.0606313943862915,-1.357512354850769,-9.727641105651855,-18.5394287109375,26.7486572265625,11.566162109375
3.9699999,1.256955862045288,-1.0821791887283325,-9.72285270690918,-11.8560791015625,19.989013671875,14.373779296875
3.9899999,1.3335703611373901,-0.9313444495201111,-9.732429504394531,-0.823974609375,4.1351318359375,2.44140625
4.0099999,1.2473790645599365,-0.9002198576927185,-9.768342971801758,2.3040771484375,-3.7384033203125,-1.373291015625
4.029999900000001,1.0414776802062988,-0.9313444495201111,-9.854534149169922,-5.462646484375,3.7384033203125,11.0931396484375
4.0499999,0.8475474119186401,-0.9457096457481384,-9.93354320526123,-10.2996826171875,18.341064453125,12.4969482421875
4.069999900000001,0.7254431247711182,-0.9888052940368652,-9.974244117736816,-11.8408203125,22.9339599609375,9.979248046875
4.0899999000000005,0.7015010714530945,-1.0845733880996704,-9.90241813659668,-5.401611328125,14.495849609375,3.021240234375
4.1099999,0.8259995579719543,-1.2521674633026123,-9.72285270690918,3.997802734375,-0.823974609375,-4.8370361328125
4.1299999000000005,1.0438719987869263,-1.381454348564148,-9.509769439697266,-5.18798828125,-1.0223388671875,-19.4244384765625
4.1499999,1.3551181554794312,-1.4676456451416016,-9.30386734008789,-15.13671875,13.1683349609375,-7.049560546875
4.1699999000000005,1.6615760326385498,-1.4508862495422363,-9.11233139038086,-15.2740478515625,15.13671875,2.13623046875
4.1899999,1.9129672050476074,-1.3766659498214722,-8.944737434387207,-8.6669921875,-1.373291015625,-4.150390625
4.209999900000001,2.013523578643799,-1.290474772453308,-8.793902397155762,-14.4195556640625,-6.8511962890625,-7.2479248046875
4.2299999,1.9752163887023926,-1.1659762859344482,-8.683769226074219,-25.726318359375,1.4801025390625,-3.753662109375
4.249999900000001,1.8195933103561401,-1.036689281463623,-8.662221908569336,-30.5328369140625,2.166748046875,4.058837890625
4.2699999,1.5658079385757446,-0.9002198576927185,-8.722076416015625,-26.5045166015625,-3.692626953125,4.5623779296875
4.289999900000001,1.2306196689605713,-0.8188169598579407,-8.868123054504395,-22.369384765625,-10.43701171875,-4.3182373046875
4.3099999,0.8834604024887085,-0.7422025203704834,-9.057265281677246,-15.9759521484375,-18.6767578125,-15.9149169921875
4.329999900000001,0.5913678407669067,-0.6631938815116882,-9.279925346374512,-23.0865478515625,-9.33837890625,-13.3514404296875
4.3499999,0.3878606855869293,-0.5506663918495178,-9.485827445983887,-31.0821533203125,3.5400390625,-7.293701171875
4.369999900000001,0.2849099934101105,-0.44532153010368347,-9.713275909423828,-21.6064453125,-5.340576171875,-13.5955810546875
4.3899999,0.2537853717803955,-0.3447650372982025,-9.883264541625977,-10.0250244140625,-11.8408203125,-28.9459228515625
4.409999900000001,0.33039984107017517,-0.19632454216480255,-9.99339771270752,-9.7808837890625,-8.056640625,-38.5589599609375
4.4299999,0.45250412821769714,-0.0694318488240242,-10.053253173828125,-18.6309814453125,-1.3580322265625,-22.6898193359375
4.449999900000001,0.6200982332229614,0.06703764945268631,-10.034099578857422,-16.2353515625,-2.6092529296875,-15.228271484375
4.4699999,0.7422025203704834,0.13168109953403473,-9.976638793945312,-6.65283203125,-9.1552734375,-24.90234375
4.489999900000001,0.7924807667732239,0.1388636976480484,-9.888052940368652,-6.4544677734375,-8.575439453125,-31.7230224609375
4.5099999,0.7852981686592102,0.17238251864910126,-9.852140426635742,-9.7808837890625,-8.880615234375,-26.6265869140625
4.529999900000001,0.7374141216278076,0.2537853717803955,-9.852140426635742,-5.0506591796875,-13.153076171875,-19.59228515625
4.5499999,0.6224924325942993,0.3471592366695404,-9.916783332824707,0.8392333984375,-12.9241943359375,-18.798828125
4.569999900000001,0.45489832758903503,0.40462008118629456,-10.02691650390625,4.852294921875,-14.7247314453125,-25.1922607421875
4.5899999000000005,0.2585737705230713,0.3998316824436188,-10.122684478759766,6.3934326171875,-14.8162841796875,-31.585693359375
4.609999900000001,0.11252748221158981,0.395043283700943,-10.170568466186523,1.40380859375,-4.57763671875,-33.721923828125
4.6299999000000005,0.08619125932455063,0.4357447028160095,-10.153809547424316,6.072998046875,-3.570556640625,-33.69140625
4.6499999,0.14365209639072418,0.5003881454467773,-10.067618370056152,15.7470703125,-9.521484375,-33.2183837890625
4.6699999000000005,0.21308395266532898,0.545877993106842,-9.938331604003906,13.73291015625,-8.4381103515625,-32.89794921875
4.6899999,0.23702596127986908,0.5793967843055725,-9.780313491821289,7.598876953125,-1.6326904296875,-37.1551513671875
4.709999900000001,0.24899697303771973,0.6033388376235962,-9.653421401977539,8.2855224609375,-1.800537109375,-42.5872802734375
4.7299999,0.272938996553421,0.6751648783683777,-9.57201862335205,10.8489990234375,-5.4779052734375,-41.5191650390625
4.749999900000001,0.33279404044151306,0.7661445140838623,-9.5408935546875,8.8653564453125,-3.5400390625,-37.6739501953125
4.7699999,0.3926490843296051,0.8451532125473022,-9.548076629638672,10.284423828125,-1.373291015625,-37.7960205078125
4.789999900000001,0.4118026793003082,0.8690952062606812,-9.581595420837402,13.7481689453125,-2.5787353515625,-42.1142578125
4.8099999,0.3926490843296051,0.8571242094039917,-9.634267807006836,11.3372802734375,-1.6632080078125,-46.7529296875
4.829999900000001,0.3902548849582672,0.8403648138046265,-9.66299819946289,7.01904296875,5.7373046875,-47.271728515625
4.8499999,0.4836287498474121,0.9050082564353943,-9.694122314453125,5.1422119140625,9.3231201171875,-47.05810546875
4.869999900000001,0.6320692300796509,0.9744400978088379,-9.684545516967773,14.58740234375,0.9307861328125,-45.257568359375
4.8899999,0.811634361743927,1.0438719987869263,-9.643844604492188,14.495849609375,2.197265625,-42.8466796875
4.909999900000001,0.9959878921508789,1.094150185585022,-9.567230224609375,6.988525390625,9.429931640625,-45.4559326171875
4.9299999,1.1899182796478271,1.1204863786697388,-9.493009567260742,5.31005859375,9.70458984375,-44.43359375
4.949999900000001,1.3958195447921753,1.1444283723831177,-9.437943458557129,12.26806640625,1.800537109375,-39.3524169921875
4.9699999,1.5753847360610962,1.1252747774124146,-9.370905876159668,16.1285400390625,1.220703125,-35.3240966796875
4.989999900000001,1.680729627609253,1.0582371950149536,-9.294290542602539,11.5814208984375,6.866455078125,-34.60693359375
5.0099999,1.6687586307525635,0.9457096457481384,-9.165003776550293,8.72802734375,6.8817138671875,-37.353515625
5.029999900000001,1.5322890281677246,0.8140285611152649,-9.047688484191895,6.591796875,2.471923828125,-35.6903076171875
5.0499999,1.3623007535934448,0.7637503147125244,-8.96389102935791,6.8817138671875,0.335693359375,-35.614013671875
5.069999900000001,1.2090718746185303,0.7805097699165344,-8.98543930053711,6.53076171875,-2.044677734375,-34.271240234375
5.0899999000000005,1.0893617868423462,0.8307880163192749,-9.093177795410156,4.4403076171875,-1.15966796875,-29.2816162109375
5.109999900000001,0.9409212470054626,0.8619126081466675,-9.272743225097656,0.946044921875,2.1209716796875,-25.3448486328125
5.1299999000000005,0.7996633648872375,0.8762778043746948,-9.493009567260742,0.3509521484375,2.1209716796875,-28.045654296875
5.1499999,0.7398083209991455,0.9002198576927185,-9.739612579345703,4.3487548828125,-1.03759765625,-32.379150390625
5.1699999000000005,0.7613561153411865,0.9696516990661621,-9.95748519897461,6.8511962890625,2.3651123046875,-29.266357421875
5.1899999,0.8379706144332886,0.9983820915222168,-10.132261276245117,4.4097900390625,7.4920654296875,-14.7705078125
5.209999900000001,0.9361328482627869,0.9313444495201111,-10.244789123535156,2.7923583984375,11.2457275390625,-11.3067626953125
5.2299999,1.070208191871643,0.8475474119186401,-10.326191902160645,10.2081298828125,5.79833984375,-25.299072265625
5.249999900000001,1.216254472732544,0.7493851184844971,-10.398017883300781,19.8974609375,-0.3509521484375,-25.9246826171875
5.2699999,1.357512354850769,0.7158663272857666,-10.424354553222656,22.2930908203125,3.0670166015625,-14.6484375
5.289999900000001,1.4676456451416016,0.667982280254364,-10.359710693359375,21.0418701171875,10.0860595703125,-17.4407958984375
5.3099999,1.5394717454910278,0.6105214357376099,-10.180145263671875,19.7601318359375,13.85498046875,-32.0892333984375
5.329999900000001,1.5873557329177856,0.5171475410461426,-9.909601211547852,21.5301513671875,13.5040283203125,-39.9169921875
5.3499999,1.659181833267212,0.48602294921875,-9.655815124511719,21.7437744140625,9.918212890625,-34.72900390625
5.369999900000001,1.8148049116134644,0.5147533416748047,-9.48343276977539,24.7650146484375,5.1727294921875,-32.2113037109375
5.3899999,1.8794482946395874,0.5530605912208557,-9.428366661071777,30.5633544921875,2.38037109375,-34.85107421875
5.409999900000001,1.843535304069519,0.5123591423034668,-9.452308654785156,29.4189453125,5.9356689453125,-32.928466796875
5.4299999,1.721431016921997,0.45010992884635925,-9.490615844726562,22.3846435546875,14.0228271484375,-30.792236328125
5.449999900000001,1.601720929145813,0.37828385829925537,-9.497797966003418,24.383544921875,12.603759765625,-31.31103515625
5.4699999,1.5322890281677246,0.33279404044151306,-9.459490776062012,33.782958984375,0.3204345703125,-33.294677734375
5.489999900000001,1.558625340461731,0.26575639843940735,-9.351752281188965,34.271240234375,-2.25830078125,-29.327392578125
5.5099999,1.6136919260025024,0.15083470940589905,-9.181763648986816,25.7415771484375,7.26318359375,-23.895263671875
5.529999900000001,1.6639702320098877,-0.021547814831137657,-9.014169692993164,23.1475830078125,4.1656494140625,-22.9034423828125
5.5499999,1.699883222579956,-0.26096799969673157,-8.89685344696045,23.529052734375,-6.5155029296875,-23.5443115234375
5.569999900000001,1.7405846118927002,-0.4908113479614258,-8.825027465820312,14.83154296875,1.5106201171875,-20.1568603515625
5.5899999000000005,1.8267759084701538,-0.6727706789970398,-8.884882926940918,3.173828125,11.749267578125,-11.8865966796875
5.609999900000001,1.9560627937316895,-0.751779317855835,-9.026140213012695,0.54931640625,13.9617919921875,-5.096435546875
5.6299999000000005,2.0685901641845703,-0.7541735172271729,-9.23682975769043,5.79833984375,6.5155029296875,-2.0294189453125
5.6499999,2.1571757793426514,-0.6991068720817566,-9.469067573547363,8.85009765625,-0.4425048828125,-5.096435546875
5.6699999000000005,2.188300371170044,-0.6584054827690125,-9.646238327026367,6.622314453125,13.7939453125,-2.7923583984375
5.6899999,2.1811177730560303,-0.6607996821403503,-9.720458984375,8.8653564453125,8.331298828125,-3.021240234375
5.709999900000001,2.1499931812286377,-0.7158663272857666,-9.701305389404297,6.134033203125,7.659912109375,-2.8533935546875
5.7299999,2.1068975925445557,-0.7924807667732239,-9.605537414550781,3.90625,13.2904052734375,-3.0670166015625
5.749999900000001,2.1092917919158936,-0.8259995579719543,-9.53849983215332,7.5836181640625,12.02392578125,-5.096435546875
5.7699999,2.161964178085327,-0.8188169598579407,-9.548076629638672,9.5062255859375,8.819580078125,-4.0130615234375
5.789999900000001,2.252943754196167,-0.7613561153411865,-9.57441234588623,7.6904296875,15.7318115234375,-6.0882568359375
5.8099999,2.408566951751709,-0.6799532771110535,-9.59835433959961,7.7972412109375,22.0489501953125,-11.0931396484375
5.829999900000001,2.63362193107605,-0.629675030708313,-9.543288230895996,12.1612548828125,15.167236328125,-12.3138427734375
5.8499999,2.940079689025879,-0.5889736413955688,-9.421183586120605,13.9007568359375,7.080078125,-10.31494140625
5.869999900000001,3.2537200450897217,-0.5817909836769104,-9.279925346374512,10.31494140625,6.7901611328125,-2.2430419921875
5.8899999,3.5027170181274414,-0.5746083855628967,-9.191340446472168,14.7552490234375,4.9591064453125,3.448486328125
5.909999900000001,3.665522813796997,-0.5985504388809204,-9.114726066589355,21.8353271484375,1.46484375,1.5869140625
5.9299999,3.6798880100250244,-0.6967126727104187,-9.045293807983398,16.0064697265625,4.150390625,3.5552978515625
5.949999900000001,3.5386300086975098,-0.8619126081466675,-8.93037223815918,11.0931396484375,0.640869140625,5.615234375
5.9699999,3.2537200450897217,-1.0773907899856567,-8.815450668334961,19.1650390625,-18.1732177734375,0.579833984375
5.989999900000001,2.9089550971984863,-1.2641384601593018,-8.75080680847168,28.5186767578125,-33.3404541015625,-6.805419921875
6.0099999,2.6431987285614014,-1.3886369466781616,-8.676587104797363,27.8778076171875,-23.0712890625,-8.1787109375
6.029999900000001,2.557007312774658,-1.4628572463989258,-8.65743350982666,18.00537109375,-21.1639404296875,-1.007080078125
6.0499999,2.6384103298187256,-1.4891934394836426,-8.707711219787598,9.8419189453125,-36.2701416015625,-2.4261474609375
6.069999900000001,2.7533318996429443,-1.4915876388549805,-8.858546257019043,4.57763671875,-25.5889892578125,-1.434326171875
6.0899999000000005,2.7724854946136475,-1.501164436340332,-9.030928611755371,7.9345703125,-8.4381103515625,1.2359619140625
6.109999900000001,2.6815059185028076,-1.4915876388549805,-9.255983352661133,2.44140625,-6.4697265625,2.44140625
6.1299999000000005,2.540247917175293,-1.5275006294250488,-9.390059471130371,-4.0740966796875,-14.9383544921875,2.4566650390625
6.149999900000001,2.3535003662109375,-1.5466543436050415,-9.473855972290039,-3.4332275390625,-15.9454345703125,0.732421875
6.1699999000000005,2.1954829692840576,-1.522712230682373,-9.543288230895996,0,-12.7105712890625,1.9073486328125
6.1899999,2.0901381969451904,-1.4676456451416016,-9.607931137084961,-0.5035400390625,-11.474609375,7.232666015625
6.209999900000001,2.0661959648132324,-1.4484920501708984,-9.646238327026367,-4.0130615234375,-15.594482421875,12.2222900390625
6.2299999,2.1116859912872314,-1.4987702369689941,-9.66539192199707,-4.730224609375,-20.5078125,13.6566162109375
6.249999900000001,2.1571757793426514,-1.6112977266311646,-9.658209800720215,-5.9661865234375,-15.19775390625,16.204833984375
6.2699999,2.2146365642547607,-1.745373010635376,-9.612719535827637,-7.6904296875,-2.74658203125,21.6217041015625
6.289999900000001,2.296039342880249,-1.8626888990402222,-9.512163162231445,-7.7362060546875,0.5340576171875,24.1851806640625
6.3099999,2.408566951751709,-1.987187385559082,-9.35893440246582,-2.3956298828125,-3.2958984375,28.900146484375
6.329999900000001,2.5522189140319824,-2.008735179901123,-9.196128845214844,4.1351318359375,-16.143798828125,19.3939208984375
6.3499999,2.6408045291900635,-2.013523578643799,-9.167398452758789,9.4757080078125,-30.242919921875,24.505615234375
6.369999900000001,2.647987127304077,-1.9177556037902832,-9.248801231384277,7.3089599609375,-14.4195556640625,38.421630859375
6.3899999,2.5953147411346436,-1.7956513166427612,-9.435548782348633,1.220703125,6.866455078125,43.6859130859375
6.409999900000001,2.4372973442077637,-1.723825216293335,-9.588777542114258,0.48828125,9.490966796875,46.875
6.4299999,2.2194249629974365,-1.6759412288665771,-9.607931137084961,2.227783203125,-2.655029296875,43.243408203125
6.449999900000001,1.9345149993896484,-1.680729627609253,-9.519346237182617,-0.030517578125,-7.5531005859375,45.257568359375
6.4699999,1.6496049165725708,-1.7070658206939697,-9.38048267364502,-10.2081298828125,2.5482177734375,53.1005859375
6.489999900000001,1.4101848602294922,-1.7597382068634033,-9.224859237670898,-19.317626953125,14.58740234375,53.741455078125
6.5099999,1.2737152576446533,-1.8363527059555054,-9.050082206726074,-20.81298828125,9.6893310546875,49.9267578125
6.529999900000001,1.237802267074585,-1.8842366933822632,-8.863334655761719,-19.927978515625,-4.45556640625,48.88916015625
6.5499999,1.2761094570159912,-1.8722656965255737,-8.705317497253418,-23.0255126953125,-14.129638671875,54.5806884765625
6.569999900000001,1.359906554222107,-1.7621324062347412,-8.631096839904785,-29.5257568359375,-10.223388671875,59.4329833984375
6.5899999000000005,1.4293384552001953,-1.6184803247451782,-8.669404029846191,-29.266357421875,-10.8489990234375,64.971923828125
6.609999900000001,1.4317326545715332,-1.5059528350830078,-8.80587387084961,-21.66748046875,-26.2603759765625,70.00732421875
6.6299999000000005,1.3431471586227417,-1.4891934394836426,-9.042900085449219,-24.4293212890625,-31.5093994140625,68.4661865234375
6.649999900000001,1.1875240802764893,-1.5466543436050415,-9.337387084960938,-30.45654296875,-19.1802978515625,67.6727294921875
6.6699999000000005,0.9864110946655273,-1.6759412288665771,-9.696516990661621,-34.942626953125,-5.6304931640625,71.563720703125
6.6899999,0.8667010068893433,-1.7932571172714233,-10.098742485046387,-34.7747802734375,-3.9520263671875,72.3114013671875
6.709999900000001,0.8690952062606812,-1.8722656965255737,-10.450690269470215,-30.059814453125,-5.2490234375,68.6492919921875
6.7299999,0.9864110946655273,-1.9177556037902832,-10.735600471496582,-27.374267578125,0.640869140625,68.695068359375
6.749999900000001,1.161187767982483,-1.9177556037902832,-10.927136421203613,-24.71923828125,0.518798828125,69.4732666015625
6.7699999,1.3192051649093628,-1.9177556037902832,-11.013327598571777,-20.4925537109375,-1.9073486328125,70.1751708984375
6.789999900000001,1.4484920501708984,-1.8938134908676147,-11.03248119354248,-17.6239013671875,5.706787109375,68.0084228515625
6.8099999,1.5729905366897583,-1.8602946996688843,-10.99656867980957,-17.486572265625,16.632080078125,66.192626953125
6.829999900000001,1.721431016921997,-1.7884687185287476,-10.917559623718262,-18.524169921875,22.613525390625,68.7103271484375
6.8499999,1.8387469053268433,-1.7118542194366455,-10.778696060180664,-13.7481689453125,19.6075439453125,69.64111328125
6.869999900000001,1.886630892753601,-1.6519991159439087,-10.623072624206543,-8.453369140625,15.350341796875,66.558837890625
6.8899999,1.8722656965255737,-1.601720929145813,-10.450690269470215,-6.1187744140625,15.6707763671875,60.2569580078125
6.909999900000001,1.821987509727478,-1.580173134803772,-10.278307914733887,-0.3509521484375,9.613037109375,57.3272705078125
6.9299999,1.7908629179000854,-1.5729905366897583,-10.070012092590332,6.3323974609375,-2.38037109375,58.7921142578125
6.949999900000001,1.7597382068634033,-1.5825673341751099,-9.854534149169922,3.0670166015625,0.244140625,55.2825927734375
6.9699999,1.7381904125213623,-1.5610195398330688,-9.68933391571045,-0.30517578125,11.2457275390625,53.314208984375
6.989999900000001,1.647210717201233,-1.5658079385757446,-9.677363395690918,-1.6326904296875,14.7857666015625,59.7076416015625
7.0099999,1.5849615335464478,-1.5275006294250488,-9.794678688049316,-3.204345703125,28.25927734375,58.685302734375
7.029999900000001,1.522712230682373,-1.534683346748352,-9.926360130310059,-9.7808837890625,54.5196533203125,59.08203125
7.0499999,1.4867992401123047,-1.5705963373184204,-9.921571731567383,-15.289306640625,55.11474609375,52.9937744140625
7.069999900000001,1.4652514457702637,-1.6136919260025024,-9.75637149810791,-14.251708984375,32.0281982421875,48.828125
7.0899999000000005,1.3958195447921753,-1.6615760326385498,-9.557653427124023,-13.8092041015625,17.303466796875,50.4150390625
7.109999900000001,1.278503656387329,-1.7046716213226318,-9.425971984863281,-17.364501953125,29.9072265625,47.54638671875
7.1299999000000005,1.161187767982483,-1.6400281190872192,-9.363722801208496,-14.892578125,35.675048828125,38.3148193359375
7.149999900000001,1.0127472877502441,-1.5729905366897583,-9.378087997436523,-11.1083984375,19.6380615234375,43.304443359375
7.1699999000000005,0.828393816947937,-1.4413094520568848,-9.425971984863281,-13.2904052734375,17.4102783203125,55.023193359375
7.1899999,0.629675030708313,-1.3623007535934448,-9.557653427124023,-1.64794921875,10.8489990234375,42.144775390625
7.209999900000001,0.5099649429321289,-1.2234370708465576,-9.763554573059082,4.241943359375,3.2501220703125,20.0347900390625
7.2299999,0.47644615173339844,-1.2186486721038818,-10.041281700134277,-10.009765625,9.2010498046875,31.1279296875
7.249999900000001,0.646434485912323,-1.2018892765045166,-10.168174743652344,-16.1590576171875,29.693603515625,33.2183837890625
7.2699999,0.8188169598579407,-1.3527239561080933,-10.156203269958496,-10.0250244140625,21.1639404296875,11.7340087890625
7.289999900000001,1.139639973640442,-1.2976573705673218,-10.005369186401367,4.791259765625,-15.4571533203125,-17.8070068359375
7.3099999,1.290474772453308,-1.4245500564575195,-9.876082420349121,-6.9732666015625,-12.847900390625,15.80810546875
7.329999900000001,1.4939818382263184,-1.357512354850769,-9.718064308166504,-20.6451416015625,27.191162109375,26.3824462890625
7.3499999,1.577778935432434,-1.4245500564575195,-9.648633003234863,-15.6707763671875,20.3094482421875,-0.7171630859375
7.369999900000001,1.6711528301239014,-1.3910311460494995,-9.5624418258667,-3.5552978515625,-8.5296630859375,-20.5230712890625
7.3899999,1.680729627609253,-1.4221558570861816,-9.560047149658203,-8.392333984375,-13.7481689453125,6.7138671875
7.409999900000001,1.7334020137786865,-1.2665326595306396,-9.591172218322754,-18.3563232421875,12.2833251953125,18.61572265625
7.4299999,1.7142484188079834,-1.2186486721038818,-9.713275909423828,-13.580322265625,13.7481689453125,12.9852294921875
7.449999900000001,1.656787633895874,-1.1755530834197998,-9.773131370544434,-3.509521484375,3.173828125,-5.615234375
7.4699999,1.625662922859192,-1.1252747774124146,-9.749189376831055,0.244140625,-11.8560791015625,-13.458251953125
7.489999900000001,1.6041151285171509,-1.0534487962722778,-9.643844604492188,-15.44189453125,1.007080078125,7.720947265625
7.5099999,1.6065093278884888,-0.9457096457481384,-9.488221168518066,-22.88818359375,13.397216796875,18.402099609375
7.529999900000001,1.5538369417190552,-0.8858546018600464,-9.35654067993164,-17.364501953125,0.5340576171875,-0.3509521484375
7.5499999,1.5203180313110352,-0.7254431247711182,-9.248801231384277,-5.7830810546875,-22.5677490234375,-23.9410400390625
7.569999900000001,1.3958195447921753,-0.6320692300796509,-9.29189682006836,-10.101318359375,-22.5830078125,6.8206787109375
7.5899999000000005,1.3287819623947144,-0.42377370595932007,-9.402029991149902,-20.8282470703125,-4.6234130859375,16.7083740234375
7.609999900000001,1.235408067703247,-0.31603461503982544,-9.586383819580078,-20.0653076171875,1.129150390625,5.6610107421875
7.6299999000000005,1.170764684677124,-0.21308395266532898,-9.734824180603027,-8.4991455078125,-12.6190185546875,-14.068603515625
7.649999900000001,1.1109095811843872,-0.1364694982767105,-9.86650562286377,-5.462646484375,-27.3590087890625,-11.9171142578125
7.6699999000000005,1.0965443849563599,-0.023942016065120697,-9.938331604003906,-18.4478759765625,-10.6353759765625,2.8228759765625
7.6899999,1.0893617868423462,0.10773907601833344,-9.998186111450195,-20.44677734375,0.9918212890625,-1.15966796875
7.709999900000001,1.0247182846069336,0.1412578970193863,-10.02691650390625,-8.697509765625,-6.7138671875,-12.4969482421875
7.7299999,0.9696516990661621,0.19632454216480255,-9.983820915222168,6.9580078125,-23.529052734375,-19.6380615234375
7.749999900000001,0.8595184087753296,0.19153612852096558,-9.962273597717285,-6.6986083984375,-15.2435302734375,-9.70458984375
7.7699999,0.7852981686592102,0.24181437492370605,-9.911994934082031,-15.380859375,-0.9002685546875,-8.7127685546875
7.789999900000001,0.7661445140838623,0.2777273952960968,-9.890447616577148,-6.4239501953125,-3.8299560546875,-17.1356201171875
7.8099999,0.7565677165985107,0.31603461503982544,-9.813833236694336,2.349853515625,-9.124755859375,-20.4620361328125
7.829999900000001,0.7733271718025208,0.31124621629714966,-9.713275909423828,3.7841796875,-13.0615234375,-10.80322265625
7.8499999,0.7972691655158997,0.2992752194404602,-9.622296333312988,-4.39453125,-10.467529296875,-5.43212890625
7.869999900000001,0.7876923680305481,0.2537853717803955,-9.557653427124023,-2.838134765625,-9.3994140625,-7.2784423828125
7.8899999,0.790086567401886,0.22744916379451752,-9.555258750915527,0.1983642578125,-9.765625,-13.458251953125
7.909999900000001,0.8068459630012512,0.24420857429504395,-9.586383819580078,3.448486328125,-14.923095703125,-13.2293701171875
7.9299999,0.7829039692878723,0.29209262132644653,-9.636661529541016,2.1209716796875,-13.763427734375,-3.2196044921875
7.949999900000001,0.751779317855835,0.3423708379268646,-9.701305389404297,0.396728515625,-11.53564453125,-4.2877197265625
7.9699999,0.6703764796257019,0.35673606395721436,-9.75637149810791,1.0986328125,-12.8021240234375,-11.0015869140625
7.989999900000001,0.5602431893348694,0.33039984107017517,-9.792284965515137,0.8697509765625,-10.1776123046875,-14.7552490234375
8.0099999,0.47165772318840027,0.3064578175544739,-9.818621635437012,0.579833984375,-9.796142578125,-13.4429931640625
8.0299999,0.42856210470199585,0.2992752194404602,-9.799467086791992,0.885009765625,-9.09423828125,-13.9007568359375
8.049999900000001,0.45489832758903503,0.31842881441116333,-9.763554573059082,-1.03759765625,-9.490966796875,-16.4642333984375
8.069999900000001,0.5195417404174805,0.3495534360408783,-9.72285270690918,2.3956298828125,-14.862060546875,-16.5252685546875
8.0899999,0.5841852426528931,0.3711012601852417,-9.710882186889648,3.0975341796875,-15.6097412109375,-17.5933837890625
8.1099999,0.6224924325942993,0.3878606855869293,-9.720458984375,-1.800537109375,-7.0037841796875,-19.9737548828125
8.129999900000001,0.6368576288223267,0.42616790533065796,-9.782708168029785,-5.2032470703125,-3.4027099609375,-22.064208984375
8.149999900000001,0.5937620401382446,0.4381389021873474,-9.849745750427246,-2.6702880859375,-4.364013671875,-19.2413330078125
8.1699999,0.5291185975074768,0.4668693244457245,-9.911994934082031,-1.2969970703125,-1.8463134765625,-21.8963623046875
8.1899999,0.4596867263317108,0.5267243981361389,-9.95748519897461,2.9754638671875,-4.241943359375,-27.3284912109375
8.2099999,0.3878606855869293,0.569819986820221,-9.967061996459961,7.415771484375,-5.8441162109375,-29.3121337890625
8.229999900000001,0.28730419278144836,0.5602431893348694,-9.90241813659668,6.8206787109375,-3.5858154296875,-26.123046875
8.2499999,0.17717093229293823,0.507570743560791,-9.797073364257812,5.1116943359375,1.8463134765625,-29.4189453125
8.2699999,0.11013327538967133,0.44771572947502136,-9.653421401977539,6.5460205078125,2.0599365234375,-39.1845703125
8.2899999,0.08140286058187485,0.363918662071228,-9.512163162231445,6.439208984375,0.8544921875,-40.0543212890625
8.309999900000001,0.1604115068912506,0.3447650372982025,-9.402029991149902,0.9765625,6.6375732421875,-36.9110107421875
8.3299999,0.35673606395721436,0.3974374830722809,-9.339780807495117,0.2593994140625,8.2244873046875,-38.1622314453125
8.3499999,0.5793967843055725,0.4572925269603729,-9.315838813781738,9.307861328125,-3.0364990234375,-36.8194580078125
8.3699999,0.7565677165985107,0.48602294921875,-9.32541561126709,13.4429931640625,-10.498046875,-33.2489013671875
8.389999900000001,0.8427590131759644,0.4836287498474121,-9.35654067993164,2.86865234375,0.0457763671875,-33.9813232421875
8.4099999,0.8475474119186401,0.47165772318840027,-9.41639518737793,-6.1798095703125,9.5672607421875,-38.2843017578125
8.4299999,0.7924807667732239,0.43335050344467163,-9.476250648498535,-1.15966796875,5.18798828125,-38.9862060546875
8.4499999,0.6919242739677429,0.4141969084739685,-9.519346237182617,1.2969970703125,4.2572021484375,-36.6363525390625
8.469999900000001,0.5722141861915588,0.4141969084739685,-9.550470352172852,-9.063720703125,15.167236328125,-41.7938232421875
8.4899999,0.524330198764801,0.4836287498474121,-9.564835548400879,-12.8936767578125,21.4691162109375,-50.9490966796875
8.5099999,0.5530605912208557,0.5817909836769104,-9.543288230895996,2.593994140625,7.6141357421875,-51.8798828125
8.5299999,0.667982280254364,0.7086837291717529,-9.493009567260742,-0.885009765625,9.2926025390625,-45.0439453125
8.549999900000001,0.828393816947937,0.7996633648872375,-9.402029991149902,-20.8892822265625,30.6396484375,-43.8232421875
8.569999900000001,1.036689281463623,0.9050082564353943,-9.318233489990234,-21.5911865234375,31.6925048828125,-49.8504638671875
8.5899999,1.3000515699386597,1.0319008827209473,-9.287108421325684,-2.4871826171875,7.0037841796875,-48.9654541015625
8.6099999,1.5682021379470825,1.1827356815338135,-9.315838813781738,6.3629150390625,-5.5999755859375,-36.041259765625
8.629999900000001,1.764526605606079,1.2665326595306396,-9.373299598693848,1.6632080078125,0.7476806640625,-29.3426513671875
8.649999900000001,1.7262194156646729,1.1755530834197998,-9.428366661071777,-2.6092529296875,6.8359375,-33.905029296875
8.6699999,1.5394717454910278,1.0462661981582642,-9.502586364746094,-1.2359619140625,3.692626953125,-43.1671142578125
8.6899999,1.3192051649093628,0.9361328482627869,-9.588777542114258,2.9754638671875,0.274658203125,-44.3267822265625
8.709999900000001,1.1300631761550903,0.8978256583213806,-9.682151794433594,-3.7384033203125,9.9945068359375,-36.4990234375
8.729999900000001,1.0414776802062988,0.950498104095459,-9.775525093078613,-9.58251953125,19.378662109375,-37.65869140625
8.7499999,1.0869675874710083,1.0893617868423462,-9.854534149169922,-0.091552734375,10.7421875,-46.356201171875
8.7699999,1.2258312702178955,1.2473790645599365,-9.926360130310059,15.9149169921875,-7.0648193359375,-44.5709228515625
8.7899999,1.4532804489135742,1.4628572463989258,-9.99339771270752,10.1776123046875,3.7078857421875,-33.0657958984375
8.809999900000001,1.5897499322891235,1.5825673341751099,-9.979032516479492,-0.30517578125,22.003173828125,-28.38134765625
8.8299999,1.5873557329177856,1.558625340461731,-9.923966407775879,9.979248046875,8.636474609375,-34.1033935546875
8.8499999,1.460463047027588,1.455674648284912,-9.84256362915039,16.5252685546875,-0.640869140625,-40.771484375
8.8699999,1.280897855758667,1.3120225667953491,-9.763554573059082,9.6282958984375,13.0615234375,-36.407470703125
8.889999900000001,1.1875240802764893,1.2521674633026123,-9.703699111938477,7.8125,18.4173583984375,-32.8826904296875
8.9099999,1.1659762859344482,1.1683704853057861,-9.636661529541016,14.4805908203125,8.209228515625,-29.327392578125
8.9299999,1.1803414821624756,1.091755986213684,-9.516951560974121,13.61083984375,8.087158203125,-28.4271240234375
8.9499999,1.256955862045288,1.0199298858642578,-9.3828763961792,7.781982421875,14.0838623046875,-31.585693359375
8.969999900000001,1.4245500564575195,1.0606313943862915,-9.279925346374512,9.735107421875,7.5531005859375,-31.18896484375
8.9899999,1.6400281190872192,1.1420341730117798,-9.193734169006348,20.44677734375,-7.415771484375,-23.5748291015625
9.0099999,1.8339585065841675,1.237802267074585,-9.124302864074707,15.9912109375,-3.9520263671875,-16.1285400390625
9.0299999,1.9345149993896484,1.235408067703247,-9.028534889221191,5.1116943359375,9.5977783203125,-16.5557861328125
9.049999900000001,1.9345149993896484,1.1204863786697388,-8.954314231872559,6.866455078125,2.01416015625,-20.0653076171875
9.069999900000001,1.824381709098816,0.9528923034667969,-8.927978515625,10.589599609375,-7.6751708984375,-23.7884521484375
9.0899999,1.702277421951294,0.8212111592292786,-9.014169692993164,5.5084228515625,-0.9613037109375,-24.3377685546875
9.1099999,1.656787633895874,0.7829039692878723,-9.20091724395752,0.1983642578125,9.8114013671875,-26.8096923828125
9.129999900000001,1.6711528301239014,0.8379706144332886,-9.411606788635254,4.0740966796875,11.932373046875,-30.82275390625
9.149999900000001,1.7381904125213623,0.8906430602073669,-9.593565940856934,10.040283203125,1.129150390625,-27.9541015625
9.1699999,1.845929503440857,0.9600749015808105,-9.725247383117676,6.40869140625,0.30517578125,-25.1312255859375
9.1899999,1.9943699836730957,1.0295066833496094,-9.830592155456543,0.7171630859375,7.9193115234375,-27.0233154296875
9.209999900000001,2.123656988143921,1.1228805780410767,-9.926360130310059,5.4473876953125,8.9263916015625,-23.49853515625
9.229999900000001,2.142810583114624,1.2018892765045166,-9.981427192687988,13.85498046875,4.486083984375,-16.8609619140625
9.2499999,2.0638017654418945,1.2425906658172607,-9.974244117736816,15.3961181640625,3.8604736328125,-17.15087890625
9.2699999,1.9369091987609863,1.2713210582733154,-9.923966407775879,11.41357421875,7.720947265625,-18.7835693359375
9.2899999,1.7980455160140991,1.256955862045288,-9.837775230407715,13.702392578125,9.3536376953125,-10.1470947265625
9.309999900000001,1.6950948238372803,1.2425906658172607,-9.75397777557373,23.7579345703125,1.4190673828125,-4.425048828125
9.3299999,1.580173134803772,1.1827356815338135,-9.68933391571045,25.69580078125,-2.7618408203125,-5.828857421875
9.3499999,1.4221558570861816,1.0606313943862915,-9.619902610778809,22.6287841796875,3.8299560546875,-13.9617919921875
9.3699999,1.3263877630233765,0.8882488012313843,-9.545681953430176,21.1944580078125,9.09423828125,-18.707275390625
9.389999900000001,1.403002142906189,0.7733271718025208,-9.476250648498535,22.6898193359375,6.3323974609375,-17.0135498046875
9.4099999,1.601720929145813,0.7086837291717529,-9.44991397857666,27.801513671875,-3.173828125,-11.260986328125
9.4299999,1.8411411046981812,0.6727706789970398,-9.48343276977539,33.4014892578125,-9.1705322265625,-10.7879638671875
9.4499999,1.9800047874450684,0.5650315880775452,-9.57441234588623,34.637451171875,-5.6304931640625,-13.48876953125
9.469999900000001,2.008735179901123,0.4165911078453064,-9.68694019317627,31.0821533203125,1.5869140625,-15.7470703125
9.4899999,1.9488801956176758,0.24420857429504395,-9.734824180603027,26.580810546875,7.720947265625,-13.641357421875
9.5099999,1.86508309841156,0.10295066982507706,-9.713275909423828,29.571533203125,2.0294189453125,-13.0767822265625
9.5299999,1.7501614093780518,-0.019153613597154617,-9.655815124511719,31.3262939453125,-4.5623779296875,-7.904052734375
9.549999900000001,1.623268723487854,-0.14365209639072418,-9.605537414550781,25.9552001953125,3.7689208984375,-1.3885498046875
9.569999900000001,1.5179238319396973,-0.2968810200691223,-9.567230224609375,16.41845703125,18.1427001953125,-4.058837890625
9.5899999,1.4532804489135742,-0.4884171485900879,-9.485827445983887,22.8729248046875,12.7105712890625,-11.8560791015625
9.6099999,1.4628572463989258,-0.6751648783683777,-9.425971984863281,28.594970703125,-6.0882568359375,-18.707275390625
9.629999900000001,1.5466543436050415,-0.7733271718025208,-9.404424667358398,28.717041015625,-11.1083984375,-24.1546630859375
9.649999900000001,1.7310078144073486,-0.7876923680305481,-9.481039047241211,24.932861328125,2.4566650390625,-25.787353515625
9.6699999,2.0183119773864746,-0.7015010714530945,-9.5624418258667,19.805908203125,17.059326171875,-26.9775390625
9.6899999,2.346317768096924,-0.5793967843055725,-9.62947940826416,21.636962890625,5.2032470703125,-26.4892578125
9.709999900000001,2.631227731704712,-0.45250412821769714,-9.653421401977539,28.7933349609375,-18.768310546875,-25.5279541015625
9.729999900000001,2.80361008644104,-0.3663128614425659,-9.651026725769043,30.6549072265625,-18.3258056640625,-22.1405029296875
9.7499999,2.8562827110290527,-0.3447650372982025,-9.634267807006836,23.8189697265625,2.5787353515625,-16.9219970703125
9.7699999,2.875436305999756,-0.3926490843296051,-9.59835433959961,19.012451171875,6.2255859375,-9.0789794921875
9.7899999,2.8443117141723633,-0.5410895943641663,-9.516951560974121,20.8282470703125,-4.82177734375,2.8839111328125
9.809999900000001,2.7724854946136475,-0.7541735172271729,-9.452308654785156,27.2369384765625,-17.303466796875,4.57763671875
9.8299999,2.6001031398773193,-0.9888052940368652,-9.509769439697266,30.4107666015625,-22.979736328125,0.4730224609375
9.8499999,2.4181437492370605,-1.2473790645599365,-9.636661529541016,28.3966064453125,-12.7410888671875,-4.1656494140625
9.8699999,2.2888567447662354,-1.4700398445129395,-9.794678688049316,25.9857177734375,-0.3814697265625,-8.8653564453125
9.889999900000001,2.229001760482788,-1.680729627609253,-9.801861763000488,20.81298828125,12.39013671875,-12.6953125
9.9099999,2.293645143508911,-1.8124107122421265,-9.66299819946289,21.1181640625,4.638671875,-20.5841064453125
9.9299999,2.4205379486083984,-1.8818424940109253,-9.428366661071777,23.7579345703125,-17.2882080078125,-24.59716796875
9.9499999,2.5929205417633057,-1.8579005002975464,-9.217676162719727,19.59228515625,-18.5699462890625,-19.2108154296875
9.969999900000001,2.784456491470337,-1.7932571172714233,-9.107542991638184,15.472412109375,-7.568359375,-11.0321044921875
9.9899999,2.935291290283203,-1.7310078144073486,-9.102754592895508,13.3209228515625,-0.1220703125,-4.1656494140625
10.0099999,3.0310592651367188,-1.6496049165725708,-9.119514465332031,14.9688720703125,-7.5531005859375,-2.5787353515625
10.0299999,3.028665065765381,-1.623268723487854,-9.114726066589355,18.829345703125,-21.6064453125,4.0130615234375
10.049999900000001,3.028665065765381,-1.6352397203445435,-9.05247688293457,19.10400390625,-26.2298583984375,9.7198486328125
10.069999900000001,2.9688100814819336,-1.7190368175506592,-9.030928611755371,16.0980224609375,-33.1573486328125,19.1650390625
10.0899999,2.8634653091430664,-1.8507179021835327,-8.978256225585938,10.2996826171875,-17.669677734375,21.05712890625
10.1099999,2.7030537128448486,-2.0207061767578125,-8.899248123168945,5.06591796875,-1.0223388671875,20.6451416015625
10.129999900000001,2.516305923461914,-2.183511972427368,-8.769960403442383,6.3323974609375,-4.3792724609375,21.7132568359375
10.149999900000001,2.3104045391082764,-2.360682964324951,-8.588001251220703,5.06591796875,-15.1214599609375,21.453857421875
10.1699999,2.1045033931732178,-2.497152328491211,-8.396465301513672,1.64794921875,-18.0206298828125,16.4794921875
10.1899999,1.8770540952682495,-2.5522189140319824,-8.29830265045166,-6.40869140625,-11.5509033203125,16.7388916015625
10.209999900000001,1.6184803247451782,-2.537853717803955,-8.35097599029541,-7.8887939453125,-18.2952880859375,25.57373046875
10.229999900000001,1.403002142906189,-2.451662540435791,-8.542511940002441,-4.0435791015625,-28.0303955078125,24.5208740234375
10.2499999,1.2545616626739502,-2.360682964324951,-8.774748802185059,-6.500244140625,-20.69091796875,20.1263427734375
10.2699999,1.2641384601593018,-2.252943754196167,-8.96389102935791,-15.8233642578125,-7.38525390625,19.3328857421875
10.2899999,1.3742717504501343,-2.164358377456665,-9.028534889221191,-21.1181640625,-7.537841796875,29.3426513671875
10.309999900000001,1.5490485429763794,-2.049436569213867,-9.050082206726074,-20.3857421875,-24.2919921875,38.4368896484375
10.3299999,1.6903064250946045,-1.968033790588379,-9.100360870361328,-16.998291015625,-34.1033935546875,40.0390625
10.3499999,1.7764976024627686,-1.8626888990402222,-9.2033109664917,-19.47021484375,-23.2391357421875,39.031982421875
10.3699999,1.778891921043396,-1.8076223134994507,-9.366117477416992,-24.7955322265625,-12.26806640625,50.3387451171875
10.389999900000001,1.7381904125213623,-1.723825216293335,-9.526528358459473,-24.7344970703125,-11.1541748046875,60.1348876953125
10.4099999,1.6400281190872192,-1.699883222579956,-9.68694019317627,-21.7437744140625,-13.7786865234375,63.7359619140625
10.4299999,1.4915876388549805,-1.721431016921997,-9.854534149169922,-19.683837890625,-11.6119384765625,64.9566650390625
10.4499999,1.2976573705673218,-1.764526605606079,-10.036493301391602,-20.2484130859375,-7.14111328125,66.4825439453125
10.469999900000001,1.0678139925003052,-1.8555063009262085,-10.216058731079102,-21.9573974609375,-0.946044921875,76.3092041015625
10.4899999,0.8619126081466675,-1.9369091987609863,-10.311826705932617,-23.3154296875,10.6658935546875,78.8116455078125
10.5099999,0.7134721279144287,-2.0398597717285156,-10.295066833496094,-26.2908935546875,19.073486328125,75.7293701171875
10.5299999,0.6703764796257019,-2.1499931812286377,-10.14902114868164,-25.2685546875,10.7421875,71.075439453125
10.549999900000001,0.7541735172271729,-2.250549554824829,-9.967061996459961,-20.1416015625,-5.7373046875,68.4051513671875
10.569999900000001,0.9648633003234863,-2.27209734916687,-9.840168952941895,-17.9595947265625,-5.79833984375,64.483642578125
10.5899999,1.1994950771331787,-2.2649147510528564,-9.849745750427246,-19.22607421875,6.2103271484375,72.0367431640625
10.6099999,1.400607943534851,-2.1930887699127197,-9.962273597717285,-22.94921875,24.0631103515625,81.48193359375
10.629999900000001,1.5179238319396973,-2.1164743900299072,-10.122684478759766,-21.0418701171875,27.7862548828125,78.2012939453125
10.649999900000001,1.5275006294250488,-2.0231003761291504,-10.292673110961914,-15.777587890625,20.721435546875,72.662353515625
10.6699999,1.4700398445129395,-1.889025092124939,-10.426748275756836,-11.688232421875,19.9737548828125,69.8394775390625
10.6899999,1.3910311460494995,-1.7597382068634033,-10.500968933105469,-10.7574462890625,27.64892578125,72.2808837890625
10.709999900000001,1.3311761617660522,-1.5729905366897583,-10.47942066192627,-12.725830078125,35.888671875,71.96044921875
10.729999900000001,1.2761094570159912,-1.4293384552001953,-10.362105369567871,-10.955810546875,33.050537109375,72.5555419921875
10.7499999,1.170764684677124,-1.3766659498214722,-10.196905136108398,-7.14111328125,24.2767333984375,73.638916015625
10.7699999,1.05105459690094,-1.3623007535934448,-10.041281700134277,-1.7852783203125,14.6026611328125,61.187744140625
10.7899999,0.8427590131759644,-1.4413094520568848,-9.995792388916016,0.9613037109375,7.9498291015625,56.549072265625
10.809999900000001,0.5961562395095825,-1.5753847360610962,-10.034099578857422,1.068115234375,16.17431640625,57.281494140625
10.8299999,0.3711012601852417,-1.721431016921997,-10.086771965026855,0.5035400390625,30.364990234375,46.8597412109375
10.8499999,0.2777273952960968,-1.8100165128707886,-10.067618370056152,6.0882568359375,24.23095703125,36.9415283203125
10.8699999,0.2801215946674347,-1.9393033981323242,-9.945513725280762,2.5482177734375,18.1427001953125,50.4150390625
10.889999900000001,0.42616790533065796,-2.030282974243164,-9.66539192199707,-7.8887939453125,33.87451171875,54.6875
10.9099999,0.5817909836769104,-2.2146365642547607,-9.327810287475586,-13.9007568359375,40.6341552734375,40.9393310546875
10.9299999,0.8044517636299133,-2.2840683460235596,-9.011775016784668,-8.148193359375,16.5557861328125,17.120361328125
10.9499999,0.9672574996948242,-2.3798365592956543,-8.851364135742188,-6.9580078125,-0.8697509765625,25.8026123046875
10.969999900000001,1.137245774269104,-2.3487119674682617,-8.83939266204834,-21.820068359375,22.674560546875,40.1153564453125
10.9899999,1.280897855758667,-2.3271639347076416,-8.96389102935791,-27.4658203125,34.515380859375,27.6031494140625
11.0099999,1.4197616577148438,-2.255337953567505,-9.093177795410156,-25.93994140625,23.2696533203125,14.5111083984375
11.0299999,1.4628572463989258,-2.2625205516815186,-9.220070838928223,-24.871826171875,5.6915283203125,30.8837890625
11.049999900000001,1.4844050407409668,-2.1954829692840576,-9.296685218811035,-23.49853515625,5.4931640625,35.0189208984375
11.069999900000001,1.3982137441635132,-2.169146776199341,-9.435548782348633,-24.322509765625,11.474609375,22.4761962890625
11.0899999,1.292868971824646,-2.0374655723571777,-9.557653427124023,-22.552490234375,12.4664306640625,5.9814453125
11.1099999,1.1348515748977661,-1.9512743949890137,-9.739612579345703,-18.4173583984375,-2.655029296875,15.167236328125
11.129999900000001,1.0055646896362305,-1.821987509727478,-9.895236015319824,-21.0113525390625,0.0457763671875,22.125244140625
11.149999900000001,0.8523358106613159,-1.764526605606079,-10.08198356628418,-20.4925537109375,8.3160400390625,3.6773681640625
11.1699999,0.7924807667732239,-1.6280571222305298,-10.256759643554688,-13.3209228515625,7.080078125,-11.7034912109375
11.1899999,0.768538773059845,-1.5322890281677246,-10.465055465698242,-12.75634765625,6.0577392578125,8.0718994140625
11.209999900000001,0.8619126081466675,-1.3239935636520386,-10.654197692871094,-11.138916015625,9.6435546875,16.5557861328125
11.229999900000001,0.9768342971801758,-1.2114660739898682,-10.828974723815918,-4.7760009765625,11.1541748046875,6.8359375
11.2499999,1.1563993692398071,-1.094150185585022,-10.809821128845215,-3.143310546875,17.242431640625,-7.9498291015625
11.2699999,1.3551181554794312,-1.039083480834961,-10.575188636779785,-11.2152099609375,16.9525146484375,-0.091552734375
11.2899999,1.4915876388549805,-0.9744400978088379,-10.168174743652344,-15.411376953125,7.7362060546875,18.798828125
11.309999900000001,1.5873557329177856,-0.9361328482627869,-9.746794700622559,-2.227783203125,-11.688232421875,13.7786865234375
11.3299999,1.5131354331970215,-0.9457096457481384,-9.464279174804688,-5.8441162109375,-5.5999755859375,-1.3275146484375
11.3499999,1.4437036514282227,-0.8451532125473022,-9.320627212524414,-19.012451171875,7.965087890625,-16.4947509765625
11.3699999,1.3239935636520386,-0.6919242739677429,-9.366117477416992,-20.2178955078125,3.23486328125,3.021240234375
11.389999900000001,1.280897855758667,-0.4381389021873474,-9.48343276977539,-12.0697021484375,-8.087158203125,8.23974609375
11.4099999,1.2617442607879639,-0.17717093229293823,-9.651026725769043,-12.8631591796875,-4.08935546875,-5.5389404296875
11.4299999,1.235408067703247,-0.014365210197865963,-9.821015357971191,-20.01953125,8.36181640625,-8.7738037109375
11.4499999,1.2090718746185303,0.05267243832349777,-9.962273597717285,-15.5181884765625,-0.5950927734375,-4.3182373046875
11.469999900000001,1.192312479019165,0.043095629662275314,-10.02691650390625,-10.1165771484375,-5.3558349609375,-12.725830078125
11.4899999,1.1875240802764893,0.026336219161748886,-10.000580787658691,-12.5274658203125,4.4097900390625,-25.57373046875
11.5099999,1.2234370708465576,0.028730420395731926,-9.873687744140625,-16.754150390625,8.11767578125,-28.01513671875
11.5299999,1.2473790645599365,0.07422025501728058,-9.696516990661621,-16.2811279296875,-2.6702880859375,-15.56396484375
11.549999900000001,1.235408067703247,0.1843535304069519,-9.550470352172852,-7.4462890625,-18.280029296875,-16.265869140625
11.569999900000001,1.1492167711257935,0.304063618183136,-9.497797966003418,-5.218505859375,-13.458251953125,-27.9998779296875
11.5899999,1.0773907899856567,0.4884171485900879,-9.485827445983887,-4.7607421875,-7.843017578125,-30.2276611328125
11.6099999,0.9672574996948242,0.5961562395095825,-9.521739959716797,-13.3056640625,-4.45556640625,-6.1187744140625
11.629999900000001,0.8954314589500427,0.706289529800415,-9.488221168518066,-14.70947265625,-4.7760009765625,-2.5634765625
11.649999900000001,0.7972691655158997,0.689530074596405,-9.469067573547363,-2.7923583984375,-15.0909423828125,-13.6260986328125
11.6699999,0.6823474764823914,0.608127236366272,-9.409213066101074,5.218505859375,-18.8751220703125,-24.84130859375
11.6899999,0.6392518281936646,0.5602431893348694,-9.342175483703613,-5.2337646484375,-11.0931396484375,-26.7181396484375
11.709999900000001,0.6536170840263367,0.545877993106842,-9.255983352661133,-11.6119384765625,-9.94873046875,-16.937255859375
11.729999900000001,0.6919242739677429,0.5578489899635315,-9.222464561462402,-8.636474609375,-16.4642333984375,-11.7645263671875
11.7499999,0.7015010714530945,0.5578489899635315,-9.284713745117188,-4.7607421875,-15.045166015625,-17.730712890625
11.7699999,0.6655880808830261,0.5770025849342346,-9.390059471130371,0.457763671875,-10.284423828125,-29.6173095703125
11.7899999,0.6584054827690125,0.6584054827690125,-9.519346237182617,0.1373291015625,-10.498046875,-32.40966796875
11.809999900000001,0.6416460275650024,0.751779317855835,-9.648633003234863,-6.2255859375,-12.0697021484375,-15.7012939453125
11.8299999,0.6344634294509888,0.8403648138046265,-9.761159896850586,-4.2724609375,-11.810302734375,-11.6424560546875
11.8499999,0.5889736413955688,0.8427590131759644,-9.8784761428833,1.9073486328125,-12.908935546875,-21.05712890625
11.8699999,0.5195417404174805,0.7829039692878723,-9.99339771270752,0.732421875,-11.3983154296875,-29.6478271484375
11.889999900000001,0.4668693244457245,0.7422025203704834,-10.067618370056152,-3.173828125,-7.01904296875,-27.5421142578125
11.9099999,0.4620809257030487,0.730231523513794,-10.070012092590332,-6.7291259765625,-0.06103515625,-23.0560302734375
11.9299999,0.47644615173339844,0.7326257228851318,-10.012551307678223,-4.547119140625,0.42724609375,-24.8565673828125
11.9499999,0.4429273009300232,0.7374141216278076,-9.890447616577148,-2.471923828125,-1.77001953125,-29.1748046875
11.969999900000001,0.363918662071228,0.7398083209991455,-9.749189376831055,-8.1024169921875,2.3040771484375,-33.2183837890625
11.9899999,0.2537853717803955,0.7541735172271729,-9.641449928283691,-7.537841796875,1.77001953125,-34.393310546875
12.0099999,0.13407529890537262,0.790086567401886,-9.57201862335205,-4.7454833984375,4.425048828125,-34.5611572265625
12.0299999,0.05985504388809204,0.790086567401886,-9.569623947143555,-6.2713623046875,8.0718994140625,-36.6058349609375
12.049999900000001,0.10055647045373917,0.8762778043746948,-9.603142738342285,-10.19287109375,14.46533203125,-42.694091796875
12.069999900000001,0.2825157940387726,1.0127472877502441,-9.648633003234863,-2.655029296875,7.9498291015625,-44.097900390625
12.0899999,0.5339069962501526,1.1827356815338135,-9.696516990661621,3.814697265625,1.5411376953125,-37.2314453125
12.1099999,0.7805097699165344,1.3192051649093628,-9.710882186889648,1.2054443359375,5.462646484375,-32.65380859375
12.129999900000001,0.9385270476341248,1.3958195447921753,-9.72285270690918,0.6866455078125,6.927490234375,-38.8946533203125
12.149999900000001,1.0079588890075684,1.4269442558288574,-9.715670585632324,2.0294189453125,7.2784423828125,-44.43359375
12.1699999,0.9840168952941895,1.4389152526855469,-9.720458984375,4.5013427734375,6.927490234375,-40.5120849609375
12.1899999,0.9145850539207458,1.460463047027588,-9.703699111938477,2.86865234375,10.0860595703125,-38.1622314453125
12.209999900000001,0.8403648138046265,1.4915876388549805,-9.66539192199707,-0.1220703125,13.1378173828125,-42.66357421875
12.229999900000001,0.7876923680305481,1.534683346748352,-9.610325813293457,2.0599365234375,12.5579833984375,-46.0205078125
12.2499999,0.7613561153411865,1.5682021379470825,-9.557653427124023,11.3983154296875,5.4931640625,-41.80908203125
12.2699999,0.7829039692878723,1.623268723487854,-9.519346237182617,12.39013671875,6.134033203125,-42.1142578125
12.289999900000002,0.8834604024887085,1.723825216293335,-9.500192642211914,5.218505859375,11.810302734375,-47.271728515625
12.309999900000001,0.9241618514060974,1.7310078144073486,-9.445125579833984,7.080078125,8.8653564453125,-44.342041015625
12.3299999,0.950498104095459,1.7190368175506592,-9.399636268615723,8.7890625,7.8887939453125,-40.3900146484375
12.3499999,0.9145850539207458,1.6663644313812256,-9.368511199951172,7.14111328125,13.2293701171875,-45.166015625
12.3699999,0.8355764150619507,1.5825673341751099,-9.399636268615723,9.1705322265625,14.9993896484375,-50.689697265625
12.389999900000001,0.7972691655158997,1.5705963373184204,-9.50498104095459,13.580322265625,13.9617919921875,-51.94091796875
12.4099999,0.7781155705451965,1.599326729774475,-9.605537414550781,17.02880859375,15.8843994140625,-49.0264892578125
12.4299999,0.7326257228851318,1.5945383310317993,-9.655815124511719,17.63916015625,19.6075439453125,-50.1861572265625
12.4499999,0.7038952708244324,1.5682021379470825,-9.62947940826416,16.998291015625,22.674560546875,-59.8297119140625
12.469999900000001,0.6943184733390808,1.522712230682373,-9.516951560974121,24.7344970703125,18.6309814453125,-68.1915283203125
12.4899999,0.7374141216278076,1.45806884765625,-9.349357604980469,32.623291015625,10.9100341796875,-63.2781982421875
12.5099999,0.8236053586006165,1.3838485479354858,-9.14585018157959,18.585205078125,19.866943359375,-59.4482421875
12.5299999,1.0007762908935547,1.3287819623947144,-8.975862503051758,7.6446533203125,25.3753662109375,-66.22314453125
12.549999900000001,1.2018892765045166,1.3072341680526733,-8.851364135742188,14.7247314453125,16.448974609375,-71.014404296875
12.569999900000001,1.4437036514282227,1.3431471586227417,-8.832210540771484,17.578125,6.77490234375,-59.6466064453125
12.5899999,1.647210717201233,1.3886369466781616,-8.868123054504395,11.8408203125,9.3994140625,-50.7354736328125
12.6099999,1.7142484188079834,1.3455413579940796,-8.942343711853027,11.1083984375,9.124755859375,-55.7403564453125
12.629999900000001,1.6496049165725708,1.2282254695892334,-9.030928611755371,14.1448974609375,4.974365234375,-67.93212890625
12.649999900000001,1.5275006294250488,1.1300631761550903,-9.10993766784668,11.627197265625,6.4239501953125,-72.1893310546875
12.6699999,1.4724340438842773,1.1348515748977661,-9.215282440185547,-0.152587890625,15.9149169921875,-64.5751953125
12.6899999,1.5131354331970215,1.2952631711959839,-9.339780807495117,-4.2724609375,15.869140625,-62.5457763671875
12.709999900000001,1.601720929145813,1.4867992401123047,-9.466673851013184,4.547119140625,9.09423828125,-67.07763671875
12.729999900000001,1.6974890232086182,1.7118542194366455,-9.581595420837402,6.8817138671875,11.566162109375,-68.695068359375
12.7499999,1.7860745191574097,1.9632453918457031,-9.66539192199707,8.1787109375,16.1895751953125,-67.779541015625
12.7699999,1.8770540952682495,2.209848165512085,-9.696516990661621,11.8408203125,16.7694091796875,-63.140869140625
12.789999900000002,1.9776105880737305,2.4157495498657227,-9.696516990661621,13.4429931640625,13.6871337890625,-56.549072265625
12.809999900000001,2.0901381969451904,2.537853717803955,-9.670180320739746,8.697509765625,18.2037353515625,-54.8095703125
12.8299999,2.2170307636260986,2.626439332962036,-9.648633003234863,7.50732421875,18.829345703125,-58.04443359375
12.8499999,2.298433542251587,2.7006595134735107,-9.624691009521484,12.6953125,11.4593505859375,-50.7659912109375
12.8699999,2.319981336593628,2.6815059185028076,-9.586383819580078,14.556884765625,11.7034912109375,-34.8968505859375
12.889999900000001,2.3487119674682617,2.650381326675415,-9.53849983215332,8.7432861328125,20.6451416015625,-35.64453125
12.9099999,2.4372973442077637,2.6144683361053467,-9.476250648498535,7.6141357421875,20.4010009765625,-39.97802734375
12.9299999,2.5665841102600098,2.6024973392486572,-9.44991397857666,8.7738037109375,12.6953125,-22.369384765625
12.9499999,2.652775526046753,2.5905263423919678,-9.399636268615723,11.199951171875,12.3748779296875,0.579833984375
12.969999900000001,2.6384103298187256,2.4636335372924805,-9.35654067993164,18.798828125,7.38525390625,-2.0751953125
12.9899999,2.494758129119873,2.183511972427368,-9.337387084960938,18.8140869140625,2.2735595703125,-16.021728515625
13.0099999,2.3511061668395996,1.8195933103561401,-9.289502143859863,17.08984375,6.103515625,-18.9666748046875
13.0299999,2.315192937850952,1.577778935432434,-9.277531623840332,15.899658203125,5.7373046875,-8.3770751953125
13.049999900000001,2.3511061668395996,1.4221558570861816,-9.241618156433105,23.01025390625,-1.739501953125,-1.40380859375
13.069999900000001,2.3774423599243164,1.3000515699386597,-9.198522567749023,39.0777587890625,-11.0321044921875,-4.5013427734375
13.0899999,2.229001760482788,1.1085153818130493,-9.083600997924805,55.0537109375,-15.0146484375,-4.1656494140625
13.1099999,1.9512743949890137,0.8164227604866028,-9.011775016784668,41.7327880859375,-9.09423828125,-1.190185546875
13.129999900000001,1.6519991159439087,0.5889736413955688,-8.96389102935791,17.6239013671875,-0.1220703125,-12.3291015625
13.149999900000001,1.4939818382263184,0.40940847992897034,-8.96389102935791,19.9432373046875,-3.021240234375,-16.4031982421875
13.1699999,1.50355863571167,0.272938996553421,-9.069235801696777,17.974853515625,-6.1492919921875,-6.317138671875
13.1899999,1.6903064250946045,0.21547815203666687,-9.265560150146484,18.951416015625,-9.1552734375,-2.105712890625
13.209999900000001,1.9584569931030273,0.17717093229293823,-9.485827445983887,19.378662109375,-3.90625,-3.72314453125
13.229999900000001,2.276885747909546,0.1843535304069519,-9.694122314453125,18.157958984375,2.197265625,-1.5106201171875
13.2499999,2.5713725090026855,0.2537853717803955,-9.883264541625977,16.448974609375,-6.622314453125,6.744384765625
13.2699999,2.8227639198303223,0.33279404044151306,-10.0580415725708,13.3514404296875,-10.1165771484375,19.622802734375
13.289999900000002,2.918531894683838,0.3758896589279175,-10.189722061157227,9.979248046875,-4.9896240234375,16.5863037109375
13.309999900000001,2.935291290283203,0.3902548849582672,-10.261548042297363,11.962890625,11.3372802734375,20.7977294921875
13.3299999,2.87064790725708,0.33758243918418884,-10.230423927307129,8.85009765625,16.4947509765625,32.7301025390625
13.3499999,2.8395233154296875,0.2849099934101105,-10.050858497619629,11.962890625,4.7760009765625,36.43798828125
13.3699999,2.7964274883270264,0.21308395266532898,-9.830592155456543,13.8397216796875,-2.0751953125,37.90283203125
13.389999900000001,2.7437551021575928,0.15083470940589905,-9.564835548400879,12.39013671875,1.129150390625,42.17529296875
13.4099999,2.7054479122161865,0.09576806426048279,-9.32541561126709,14.2974853515625,-4.486083984375,45.8984375
13.4299999,2.674323320388794,-0.004788403399288654,-9.169792175292969,11.65771484375,-13.0767822265625,54.26025390625
13.4499999,2.6791117191314697,-0.1173158809542656,-9.129091262817383,6.072998046875,-9.8419189453125,53.77197265625
13.469999900000001,2.650381326675415,-0.2753331959247589,-9.251194953918457,9.2926025390625,-12.3443603515625,53.1463623046875
13.4899999,2.561795711517334,-0.4189853072166443,-9.466673851013184,14.678955078125,-18.798828125,53.375244140625
13.5099999,2.454056739807129,-0.5099649429321289,-9.667786598205566,8.331298828125,-5.8746337890625,55.9539794921875
13.5299999,2.3774423599243164,-0.569819986820221,-9.75637149810791,2.044677734375,14.58740234375,65.4296875
13.549999900000001,2.389413356781006,-0.6727706789970398,-9.66539192199707,1.9683837890625,19.775390625,77.5604248046875
13.569999900000001,2.4372973442077637,-0.912190854549408,-9.560047149658203,9.8419189453125,-9.2926025390625,80.6427001953125
13.5899999,2.497152328491211,-1.2473790645599365,-9.488221168518066,16.357421875,-25.7720947265625,64.1021728515625
13.6099999,2.5522189140319824,-1.6112977266311646,-9.524134635925293,10.8795166015625,-6.53076171875,42.8009033203125
13.629999900000001,2.607285737991333,-1.845929503440857,-9.634267807006836,7.0037841796875,9.1552734375,36.0260009765625
13.649999900000001,2.669534921646118,-1.920149803161621,-9.672574996948242,7.7972412109375,7.38525390625,33.3709716796875
13.6699999,2.715024709701538,-1.8483237028121948,-9.588777542114258,4.0283203125,-1.7547607421875,20.050048828125
13.6899999,2.7269957065582275,-1.6496049165725708,-9.351752281188965,5.37109375,-6.8206787109375,4.39453125
13.709999900000001,2.695871114730835,-1.3958195447921753,-9.05487060546875,5.2032470703125,-11.4593505859375,6.072998046875
13.729999900000001,2.655169725418091,-1.0821791887283325,-8.774748802185059,-3.1585693359375,-12.6800537109375,19.22607421875
13.7499999,2.6455929279327393,-0.7805097699165344,-8.537723541259766,-11.4898681640625,-9.8724365234375,28.0609130859375
13.7699999,2.6647465229034424,-0.5434837937355042,-8.396465301513672,-15.44189453125,-9.765625,33.1878662109375
13.789999900000002,2.7126305103302,-0.4165911078453064,-8.348581314086914,-19.5770263671875,-12.603759765625,41.015625
13.809999900000001,2.765302896499634,-0.37828385829925537,-8.379706382751465,-25.20751953125,-13.275146484375,51.6204833984375
13.8299999,2.808398485183716,-0.42856210470199585,-8.489839553833008,-28.4576416015625,-13.1072998046875,60.760498046875
13.8499999,2.829946517944336,-0.5530605912208557,-8.676587104797363,-29.9072265625,-15.8233642578125,67.9931640625
13.8699999,2.808398485183716,-0.7541735172271729,-8.932766914367676,-29.6630859375,-24.0020751953125,71.8536376953125
13.889999900000001,2.7485435009002686,-1.036689281463623,-9.227252960205078,-28.1524658203125,-29.205322265625,71.77734375
13.9099999,2.7269957065582275,-1.316810965538025,-9.521739959716797,-30.4412841796875,-21.3470458984375,68.267822265625
13.9299999,2.7676970958709717,-1.5753847360610962,-9.763554573059082,-35.1715087890625,-7.6446533203125,72.662353515625
13.9499999,2.8850131034851074,-1.764526605606079,-9.907206535339355,-40.0390625,2.5482177734375,82.7178955078125
13.969999900000001,3.028665065765381,-1.867477297782898,-9.940725326538086,-40.58837890625,5.279541015625,86.0595703125
13.9899999,3.134010076522827,-1.86508309841156,-9.940725326538086,-39.36767578125,5.9967041015625,81.298828125
14.0099999,3.181894063949585,-1.745373010635376,-10.022128105163574,-35.15625,3.5858154296875,79.315185546875
14.0299999,3.1196448802948,-1.558625340461731,-10.244789123535156,-29.9072265625,6.7596435546875,85.3271484375
14.049999900000001,2.96162748336792,-1.3335703611373901,-10.579977035522461,-24.688720703125,13.6871337890625,82.1380615234375
14.069999900000001,2.7437551021575928,-1.1300631761550903,-10.891223907470703,-17.669677734375,14.556884765625,73.91357421875
14.0899999,2.454056739807129,-0.9864110946655273,-11.039664268493652,-21.453857421875,26.458740234375,78.765869140625
14.1099999,2.1978771686553955,-0.912190854549408,-10.931924819946289,-30.1055908203125,47.027587890625,92.376708984375
14.129999900000001,1.9608511924743652,-0.9074024558067322,-10.611102104187012,-33.294677734375,54.840087890625,99.12109375
14.149999900000001,1.723825216293335,-0.9816226959228516,-10.256759643554688,-26.6571044921875,37.9486083984375,90.33203125
14.1699999,1.4532804489135742,-1.113303780555725,-10.017339706420898,-15.44189453125,15.9149169921875,83.3740234375
14.1899999,1.170764684677124,-1.2952631711959839,-9.976638793945312,-13.4429931640625,21.453857421875,80.4901123046875
14.209999900000001,0.9217676520347595,-1.4891934394836426,-10.029311180114746,-19.012451171875,42.4652099609375,69.2291259765625
14.229999900000001,0.790086567401886,-1.6927006244659424,-10.050858497619629,-16.5557861328125,40.34423828125,55.72509765625
14.2499999,0.7852981686592102,-1.8698714971542358,-9.959878921508789,-9.1705322265625,17.578125,45.4864501953125
14.2699999,0.8786720037460327,-1.9991583824157715,-9.847352027893066,-3.143310546875,-1.129150390625,37.8875732421875
14.289999900000002,1.0414776802062988,-2.0805611610412598,-9.794678688049316,-2.593994140625,2.960205078125,24.688720703125
14.309999900000001,1.2210428714752197,-2.078166961669922,-9.806650161743164,-5.2032470703125,18.585205078125,6.2408447265625
14.3299999,1.4628572463989258,-1.9512743949890137,-9.821015357971191,0.274658203125,5.3558349609375,1.52587890625
14.3499999,1.702277421951294,-1.7717092037200928,-9.84256362915039,-0.5035400390625,-5.5694580078125,21.759033203125
14.3699999,1.965639591217041,-1.522712230682373,-9.801861763000488,-4.33349609375,8.2550048828125,21.30126953125
14.389999900000001,2.1930887699127197,-1.2617442607879639,-9.775525093078613,-7.0037841796875,21.575927734375,8.5601806640625
14.4099999,2.3702597618103027,-1.0199298858642578,-9.75397777557373,-1.64794921875,4.94384765625,10.2691650390625
14.4299999,2.4229321479797363,-0.8427590131759644,-9.761159896850586,-10.3302001953125,4.5928955078125,30.8074951171875
14.4499999,2.403778553009033,-0.7038952708244324,-9.746794700622559,-13.5498046875,16.0980224609375,24.96337890625
14.469999900000001,2.296039342880249,-0.6224924325942993,-9.730035781860352,-12.8936767578125,16.4947509765625,9.185791015625
14.4899999,2.166752576828003,-0.6224924325942993,-9.646238327026367,-12.2833251953125,6.4849853515625,5.8441162109375
14.5099999,2.0829553604125977,-0.646434485912323,-9.454702377319336,-17.059326171875,1.129150390625,5.615234375
14.5299999,2.0614075660705566,-0.6536170840263367,-9.210494041442871,-16.11328125,-4.5623779296875,-6.1187744140625
14.549999900000001,2.075772762298584,-0.5602431893348694,-8.927978515625,-11.993408203125,-11.932373046875,-11.16943359375
14.569999900000001,2.097320795059204,-0.48602294921875,-8.801085472106934,-15.411376953125,-16.4947509765625,10.9710693359375
14.5899999,2.0422539710998535,-0.3280056416988373,-8.75080680847168,-20.6298828125,-20.6146240234375,4.57763671875
14.6099999,1.8602946996688843,-0.2944868206977844,-8.87291145324707,-13.1988525390625,-25.93994140625,-7.1563720703125
14.629999900000001,1.6543933153152466,-0.2059013396501541,-9.066842079162598,-10.894775390625,-27.89306640625,-20.7366943359375
14.649999900000001,1.4293384552001953,-0.0933738648891449,-9.255983352661133,-13.458251953125,-26.5655517578125,-8.30078125
14.6699999,1.256955862045288,0.06703764945268631,-9.457097053527832,-25.08544921875,-16.6473388671875,14.8773193359375
14.6899999,1.1300631761550903,0.19153612852096558,-9.59596061706543,-24.566650390625,-11.199951171875,2.593994140625
14.709999900000001,0.9792284965515137,0.2346317619085312,-9.694122314453125,-17.120361328125,-14.3585205078125,-21.05712890625
14.729999900000001,0.8619126081466675,0.28969839215278625,-9.782708168029785,-11.260986328125,-26.702880859375,-29.96826171875
14.7499999,0.7613561153411865,0.31364041566848755,-9.914389610290527,-21.4080810546875,-21.78955078125,-3.8604736328125
14.7699999,0.751779317855835,0.4644751250743866,-10.02452278137207,-27.4200439453125,0.0152587890625,-2.5634765625
14.789999900000002,0.7661445140838623,0.5434837937355042,-10.153809547424316,-17.242431640625,-4.3487548828125,-16.021728515625
14.809999900000001,0.7613561153411865,0.5506663918495178,-10.199298858642578,-7.6446533203125,-18.61572265625,-28.1982421875
14.8299999,0.7757213711738586,0.6009446382522583,-10.18493366241455,-4.0740966796875,-25.146484375,-37.506103515625
14.8499999,0.7996633648872375,0.6847416758537292,-10.17296314239502,-6.9427490234375,-16.9677734375,-30.853271484375
14.8699999,0.8259995579719543,0.8188169598579407,-10.20887565612793,-10.589599609375,-5.9051513671875,-17.51708984375
14.889999900000001,0.8307880163192749,0.9528923034667969,-10.266336441040039,-4.8065185546875,-4.5318603515625,-19.744873046875
14.9099999,0.7733271718025208,1.0079588890075684,-10.309432983398438,6.1492919921875,-11.1541748046875,-32.0892333984375
14.9299999,0.727837324142456,1.070208191871643,-10.299856185913086,8.11767578125,-11.3372802734375,-41.6107177734375
14.9499999,0.6823474764823914,1.0965443849563599,-10.256759643554688,1.7852783203125,-1.1444091796875,-25.634765625
14.969999900000001,0.6727706789970398,1.137245774269104,-10.139444351196289,-2.3345947265625,11.6119384765625,-13.946533203125
14.9899999,0.6871358752250671,1.1204863786697388,-9.995792388916016,3.082275390625,7.8582763671875,-22.2015380859375
15.0099999,0.6847416758537292,1.039083480834961,-9.821015357971191,10.1318359375,-2.2125244140625,-33.6456298828125
15.0299999,0.7182605266571045,0.9576807022094727,-9.660603523254395,8.5296630859375,-0.640869140625,-38.6810302734375
15.049999900000001,0.8092401623725891,0.9361328482627869,-9.550470352172852,3.0670166015625,5.462646484375,-31.280517578125
15.069999900000001,0.9289502501487732,0.9648633003234863,-9.481039047241211,-0.3814697265625,7.3394775390625,-22.735595703125
15.0899999,1.0438719987869263,1.0199298858642578,-9.44752025604248,-2.8533935546875,8.209228515625,-26.7181396484375
15.1099999,1.115697979927063,1.0630255937576294,-9.428366661071777,-0.091552734375,2.777099609375,-33.2794189453125
15.129999900000001,1.1324573755264282,1.1013327836990356,-9.399636268615723,1.861572265625,0.518798828125,-34.66796875
15.149999900000001,1.0965443849563599,1.1300631761550903,-9.378087997436523,0.5035400390625,0.9765625,-30.5023193359375
15.1699999,1.015141487121582,1.1563993692398071,-9.368511199951172,-0.1220703125,2.1209716796875,-29.6630859375
15.1899999,0.8882488012313843,1.173158884048462,-9.349357604980469,-1.2969970703125,6.0272216796875,-32.5164794921875
15.209999900000001,0.7781155705451965,1.1875240802764893,-9.315838813781738,-2.50244140625,9.552001953125,-36.224365234375
15.229999900000001,0.7422025203704834,1.2234370708465576,-9.284713745117188,-2.6702880859375,6.65283203125,-35.2630615234375
15.2499999,0.7924807667732239,1.256955862045288,-9.241618156433105,-4.0283203125,7.598876953125,-30.181884765625
15.2699999,0.9361328482627869,1.3120225667953491,-9.21288776397705,-1.678466796875,7.720947265625,-29.541015625
15.289999900000002,1.1300631761550903,1.3407529592514038,-9.205705642700195,-1.6021728515625,8.5906982421875,-31.2347412109375
15.309999900000001,1.316810965538025,1.3958195447921753,-9.224859237670898,-3.326416015625,7.5531005859375,-31.8145751953125
15.3299999,1.4700398445129395,1.45806884765625,-9.294290542602539,-2.3651123046875,1.953125,-27.557373046875
15.3499999,1.5275006294250488,1.501164436340332,-9.375694274902344,2.38037109375,-1.4801025390625,-24.8565673828125
15.3699999,1.4748282432556152,1.50355863571167,-9.473855972290039,4.08935546875,-1.5869140625,-26.5045166015625
15.389999900000001,1.338358759880066,1.4963760375976562,-9.57201862335205,-0.274658203125,4.7607421875,-30.2581787109375
15.4099999,1.2042834758758545,1.5179238319396973,-9.643844604492188,1.46484375,6.28662109375,-29.9530029296875
15.4299999,1.0630255937576294,1.5275006294250488,-9.684545516967773,10.8642578125,-1.8310546875,-23.7274169921875
15.4499999,0.9552865028381348,1.5634137392044067,-9.718064308166504,13.916015625,-5.859375,-23.6968994140625
15.469999900000001,0.8906430602073669,1.5897499322891235,-9.720458984375,14.46533203125,-3.5400390625,-30.975341796875
15.4899999,0.8523358106613159,1.5705963373184204,-9.682151794433594,20.5230712890625,-4.9285888671875,-30.517578125
15.5099999,0.8379706144332886,1.534683346748352,-9.605537414550781,21.148681640625,-6.6680908203125,-24.2156982421875
15.5299999,0.8643068075180054,1.4867992401123047,-9.495404243469238,16.9525146484375,-5.67626953125,-26.5655517578125
15.549999900000001,0.8810662031173706,1.45806884765625,-9.390059471130371,16.326904296875,-6.53076171875,-30.181884765625
15.569999900000001,0.8738836050033569,1.41257905960083,-9.334992408752441,18.3563232421875,-10.25390625,-26.275634765625
15.5899999,0.8403648138046265,1.4245500564575195,-9.306262016296387,15.7012939453125,-6.6375732421875,-24.4903564453125
15.6099999,0.8164227604866028,1.41257905960083,-9.301473617553711,10.6964111328125,-1.8310546875,-27.8167724609375
15.629999900000001,0.8738836050033569,1.4460978507995605,-9.289502143859863,6.8817138671875,0.0457763671875,-32.53173828125
15.649999900000001,1.0247182846069336,1.53707754611969,-9.289502143859863,7.9345703125,-3.265380859375,-30.6549072265625
15.6699999,1.1899182796478271,1.6615760326385498,-9.344569206237793,3.23486328125,-1.77001953125,-16.845703125
15.6899999,1.2617442607879639,1.7262194156646729,-9.402029991149902,2.25830078125,-1.3885498046875,-10.7269287109375
15.709999900000001,1.2066776752471924,1.6663644313812256,-9.512163162231445,4.6844482421875,-8.1024169921875,-19.4091796875
15.729999900000001,1.0821791887283325,1.5705963373184204,-9.600749015808105,3.7994384765625,-4.4403076171875,-29.6478271484375
15.7499999,0.9744400978088379,1.4963760375976562,-9.677363395690918,0.30517578125,2.7923583984375,-23.49853515625
15.7699999,0.8523358106613159,1.436521053314209,-9.720458984375,-2.0599365234375,2.6702880859375,-8.2244873046875
15.789999900000002,0.7086837291717529,1.316810965538025,-9.749189376831055,4.2877197265625,-6.4544677734375,-9.9639892578125
15.809999900000001,0.5770025849342346,1.1755530834197998,-9.813833236694336,5.8441162109375,-5.706787109375,-30.1361083984375
15.8299999,0.5674257874488831,1.0869675874710083,-9.928754806518555,0.579833984375,10.650634765625,-36.3006591796875
15.8499999,0.7158663272857666,1.2090718746185303,-10.074800491333008,7.2479248046875,11.077880859375,-24.3988037109375
15.869999900000002,0.8595184087753296,1.314416766166687,-10.153809547424316,20.4315185546875,-0.1983642578125,-8.7890625
15.889999900000001,0.9433154463768005,1.3096283674240112,-10.163386344909668,20.5841064453125,1.3885498046875,-19.6685791015625
15.9099999,1.0558429956436157,1.2449848651885986,-10.089165687561035,14.2822265625,16.082763671875,-44.6319580078125
15.9299999,1.2449848651885986,1.161187767982483,-9.995792388916016,19.622802734375,17.8985595703125,-45.196533203125
15.9499999,1.4844050407409668,1.1444283723831177,-9.856928825378418,27.4200439453125,8.3160400390625,-26.79443359375
15.969999900000001,1.6711528301239014,1.0965443849563599,-9.72285270690918,29.4189453125,-1.3885498046875,-27.313232421875
15.9899999,1.6831238269805908,0.9481038451194763,-9.59596061706543,22.1710205078125,6.2255859375,-49.468994140625
16.0099999,1.6280571222305298,0.8427590131759644,-9.560047149658203,15.44189453125,19.7906494140625,-64.971923828125
16.0299999,1.601720929145813,0.8690952062606812,-9.610325813293457,19.2413330078125,16.937255859375,-54.2755126953125
16.0499999,1.6160861253738403,1.0295066833496094,-9.670180320739746,23.4832763671875,12.8326416015625,-42.4041748046875
16.0699999,1.623268723487854,1.2018892765045166,-9.674968719482422,21.4996337890625,12.8173828125,-47.1038818359375
16.089999900000002,1.577778935432434,1.2880805730819702,-9.581595420837402,16.0064697265625,17.2119140625,-50.0640869140625
16.109999900000002,1.5538369417190552,1.3000515699386597,-9.411606788635254,19.83642578125,13.153076171875,-45.166015625
16.1299999,1.556231141090393,1.280897855758667,-9.186552047729492,23.8189697265625,8.270263671875,-37.841796875
16.1499999,1.5203180313110352,1.2186486721038818,-8.971074104309082,16.8609619140625,12.6953125,-35.797119140625
16.1699999,1.4269442558288574,1.1468225717544556,-8.789113998413086,13.671875,14.0838623046875,-43.3349609375
16.1899999,1.2641384601593018,1.0749965906143188,-8.628703117370605,18.6614990234375,7.3394775390625,-52.8564453125
16.2099999,1.1755530834197998,0.9816226959228516,-8.537723541259766,18.00537109375,0.213623046875,-54.4586181640625
16.2299999,1.2282254695892334,0.9792284965515137,-8.51138687133789,8.0108642578125,4.7149658203125,-55.2825927734375
16.249999900000002,1.460463047027588,0.9744400978088379,-8.576030731201172,0.8544921875,13.7786865234375,-56.7474365234375
16.269999900000002,1.8076223134994507,1.0438719987869263,-8.731653213500977,0.7171630859375,15.4876708984375,-53.6956787109375
16.2899999,2.145204782485962,1.1228805780410767,-8.987833023071289,3.7078857421875,9.9029541015625,-42.90771484375
16.3099999,2.3942017555236816,1.1779472827911377,-9.289502143859863,5.6915283203125,5.1422119140625,-37.4755859375
16.3299999,2.5450363159179688,1.1683704853057861,-9.583989143371582,4.08935546875,10.2691650390625,-43.27392578125
16.3499999,2.58813214302063,1.1037269830703735,-9.81143856048584,0.9307861328125,19.7601318359375,-41.4886474609375
16.3699999,2.6024973392486572,1.0749965906143188,-9.979032516479492,3.3721923828125,16.54052734375,-34.5001220703125
16.3899999,2.6408045291900635,1.094150185585022,-10.089165687561035,10.8184814453125,4.7607421875,-28.4576416015625
16.4099999,2.719813108444214,1.1180921792984009,-10.170568466186523,10.2996826171875,9.8114013671875,-20.965576171875
16.429999900000002,2.782062292098999,1.115697979927063,-10.249577522277832,9.4757080078125,19.500732421875,-15.533447265625
16.4499999,2.894589900970459,1.1085153818130493,-10.27591323852539,22.308349609375,7.38525390625,-14.46533203125
16.4699999,2.9759926795959473,1.0606313943862915,-10.287884712219238,24.871826171875,5.645751953125,2.3956298828125
16.4899999,3.0142998695373535,0.9672574996948242,-10.27591323852539,20.904541015625,11.7950439453125,17.486572265625
16.5099999,2.978386878967285,0.8547300100326538,-10.27591323852539,19.2413330078125,18.402099609375,17.425537109375
16.5299999,2.8610711097717285,0.7015010714530945,-10.273519515991211,24.871826171875,14.434814453125,8.7432861328125
16.5499999,2.7269957065582275,0.5650315880775452,-10.247182846069336,33.63037109375,4.1046142578125,6.0882568359375
16.5699999,2.6360161304473877,0.4381389021873474,-10.165780067443848,31.5704345703125,13.336181640625,14.5416259765625
16.589999900000002,2.6431987285614014,0.3423708379268646,-9.988609313964844,23.5595703125,30.09033203125,20.56884765625
16.609999900000002,2.7222073078155518,0.23702596127986908,-9.627084732055664,31.7840576171875,25.2532958984375,10.009765625
16.6299999,2.832340717315674,0.05506663769483566,-9.119514465332031,45.5169677734375,-6.2408447265625,-4.21142578125
16.6499999,2.9281086921691895,-0.08858546614646912,-8.53532886505127,48.4161376953125,-26.91650390625,-14.8773193359375
16.6699999,3.004723072052002,-0.2513911724090576,-8.094796180725098,40.2984619140625,-27.618408203125,-1.9989013671875
16.6899999,3.0095114707946777,-0.35434186458587646,-7.8745293617248535,25.3448486328125,-9.613037109375,21.8048095703125
16.7099999,2.978386878967285,-0.4908113479614258,-7.836222171783447,22.39990234375,-5.55419921875,23.92578125
16.7299999,2.911349296569824,-0.6488286852836609,-7.90086555480957,24.0325927734375,-22.6287841796875,22.369384765625
16.749999900000002,2.7940332889556885,-0.9002198576927185,-8.058882713317871,20.111083984375,-36.2091064453125,34.24072265625
16.769999900000002,2.6001031398773193,-1.139639973640442,-8.281543731689453,17.1661376953125,-32.867431640625,38.6810302734375
16.7899999,2.3127987384796143,-1.3910311460494995,-8.571242332458496,16.632080078125,-26.763916015625,30.76171875
16.8099999,2.0254945755004883,-1.6041151285171509,-8.801085472106934,13.5345458984375,-20.6298828125,18.6614990234375
16.8299999,1.8626888990402222,-1.8148049116134644,-8.978256225585938,6.6375732421875,-27.496337890625,12.603759765625
16.8499999,1.922544002532959,-1.886630892753601,-9.126696586608887,5.5084228515625,-38.9862060546875,10.589599609375
16.8699999,2.145204782485962,-1.8315643072128296,-9.373299598693848,12.1612548828125,-39.7491455078125,14.8773193359375
16.8899999,2.346317768096924,-1.678335428237915,-9.648633003234863,17.730712890625,-28.0914306640625,26.2908935546875
16.9099999,2.470816135406494,-1.4293384552001953,-9.916783332824707,1.8157958984375,-14.34326171875,17.791748046875
16.929999900000002,2.4588451385498047,-1.2186486721038818,-10.010157585144043,-0.42724609375,-19.10400390625,14.4195556640625
16.9499999,2.3942017555236816,-1.0223240852355957,-9.955090522766113,-0.6866455078125,-21.8963623046875,16.4031982421875
16.9699999,2.3104045391082764,-0.8619126081466675,-9.797073364257812,-5.9356689453125,-17.059326171875,22.5677490234375
16.9899999,2.2002713680267334,-0.7589619159698486,-9.57201862335205,-12.2833251953125,-10.6048583984375,29.0069580078125
17.0099999,2.0590133666992188,-0.7254431247711182,-9.318233489990234,-20.3857421875,-10.162353515625,33.5540771484375
17.0299999,1.9153614044189453,-0.7541735172271729,-9.08838939666748,-21.17919921875,-17.51708984375,39.5355224609375
17.0499999,1.8124107122421265,-0.811634361743927,-8.918401718139648,-20.904541015625,-24.9481201171875,44.0216064453125
17.0699999,1.7334020137786865,-0.9217676520347595,-8.844181060791016,-25.9857177734375,-20.4620361328125,53.924560546875
17.089999900000002,1.656787633895874,-1.0678139925003052,-8.887276649475098,-31.280517578125,-17.8375244140625,59.6160888671875
17.109999900000002,1.580173134803772,-1.235408067703247,-9.006986618041992,-27.7862548828125,-26.9012451171875,58.6395263671875
17.1299999,1.4963760375976562,-1.414973258972168,-9.227252960205078,-24.444580078125,-33.355712890625,60.9588623046875
17.1499999,1.4413094520568848,-1.558625340461731,-9.512163162231445,-24.0325927734375,-28.0303955078125,67.0013427734375
17.1699999,1.4437036514282227,-1.644816517829895,-9.799467086791992,-23.3306884765625,-21.270751953125,70.4193115234375
17.1899999,1.45806884765625,-1.702277421951294,-10.019734382629395,-22.3236083984375,-17.1356201171875,78.5675048828125
17.2099999,1.4508862495422363,-1.7477672100067139,-10.137049674987793,-25.1007080078125,-13.00048828125,83.099365234375
17.2299999,1.4077905416488647,-1.7860745191574097,-10.168174743652344,-26.7333984375,-9.8876953125,83.2977294921875
17.249999900000002,1.3024457693099976,-1.8531121015548706,-10.15141487121582,-22.4609375,-9.9945068359375,83.221435546875
17.269999900000002,1.1659762859344482,-1.9273324012756348,-10.139444351196289,-14.2059326171875,-16.0675048828125,83.587646484375
17.2899999,1.0414776802062988,-1.968033790588379,-10.129867553710938,-14.3890380859375,-11.23046875,81.9549560546875
17.3099999,0.9696516990661621,-1.968033790588379,-10.110713958740234,-20.6451416015625,3.753662109375,81.451416015625
17.3299999,0.9983820915222168,-1.8794482946395874,-10.108319282531738,-24.96337890625,12.39013671875,80.902099609375
17.3499999,1.1109095811843872,-1.7262194156646729,-10.182539939880371,-20.721435546875,8.1787109375,82.2906494140625
17.3699999,1.2330138683319092,-1.5610195398330688,-10.338163375854492,-15.2587890625,8.9111328125,86.0748291015625
17.3899999,1.3048399686813354,-1.4532804489135742,-10.54406452178955,-10.650634765625,17.913818359375,79.2388916015625
17.409999900000003,1.3934253454208374,-1.290474772453308,-10.6925048828125,-5.9051513671875,23.0255126953125,65.460205078125
17.429999900000002,1.4317326545715332,-1.1994950771331787,-10.735600471496582,-3.9825439453125,22.125244140625,74.6307373046875
17.4499999,1.479616641998291,-1.0534487962722778,-10.656591415405273,-11.7950439453125,32.958984375,88.775634765625
17.4699999,1.4532804489135742,-0.9744400978088379,-10.472238540649414,-12.359619140625,41.9158935546875,86.029052734375
17.4899999,1.2856862545013428,-0.9720458984375,-10.29746150970459,-5.6915283203125,30.9906005859375,77.7740478515625
17.5099999,1.0606313943862915,-0.9959878921508789,-10.144232749938965,3.173828125,12.420654296875,67.291259765625
17.5299999,0.7829039692878723,-1.0678139925003052,-10.050858497619629,1.89208984375,14.251708984375,70.9686279296875
17.5499999,0.5650315880775452,-1.0869675874710083,-9.983820915222168,0.48828125,24.200439453125,66.6656494140625
17.5699999,0.40940847992897034,-1.1228805780410767,-10.014945983886719,4.94384765625,13.031005859375,61.7218017578125
17.589999900000002,0.2849099934101105,-1.1492167711257935,-10.137049674987793,5.584716796875,12.1917724609375,60.1654052734375
17.609999900000002,0.22505496442317963,-1.1827356815338135,-10.390835762023926,3.6163330078125,24.0478515625,57.4493408203125
17.6299999,0.2322375625371933,-1.2114660739898682,-10.673351287841797,1.251220703125,41.961669921875,48.248291015625
17.6499999,0.3926490843296051,-1.1803414821624756,-10.83855152130127,-0.5035400390625,50.445556640625,40.10009765625
17.6699999,0.6919242739677429,-1.1180921792984009,-10.793061256408691,-2.410888671875,44.8760986328125,44.891357421875
17.6899999,1.0462661981582642,-1.0319008827209473,-10.553641319274902,-3.4332275390625,35.614013671875,50.4150390625
17.7099999,1.338358759880066,-0.9911994934082031,-10.268731117248535,0.9307861328125,26.06201171875,45.3033447265625
17.7299999,1.4939818382263184,-0.9768342971801758,-10.06043529510498,1.922607421875,24.1241455078125,36.1785888671875
17.749999900000002,1.460463047027588,-1.1037269830703735,-9.964667320251465,-3.6468505859375,31.5704345703125,42.1295166015625
17.769999900000002,1.3431471586227417,-1.290474772453308,-9.907206535339355,-8.3160400390625,39.9169921875,40.771484375
17.7899999,1.2042834758758545,-1.5682021379470825,-9.830592155456543,-2.6092529296875,25.5126953125,26.9622802734375
17.8099999,1.1348515748977661,-1.8387469053268433,-9.694122314453125,-1.129150390625,16.5252685546875,10.833740234375
17.8299999,1.1324573755264282,-2.049436569213867,-9.531316757202148,-9.3231201171875,20.99609375,11.4898681640625
17.8499999,1.1803414821624756,-2.1595699787139893,-9.421183586120605,-14.404296875,20.294189453125,17.8375244140625
17.8699999,1.2330138683319092,-2.2002713680267334,-9.409213066101074,-7.720947265625,8.575439453125,9.0789794921875
17.8899999,1.2952631711959839,-2.1140801906585693,-9.452308654785156,-6.134033203125,8.85009765625,-6.256103515625
17.909999900000003,1.3239935636520386,-2.0015525817871094,-9.526528358459473,-12.75634765625,13.6871337890625,-2.3345947265625
17.929999900000002,1.314416766166687,-1.8315643072128296,-9.57441234588623,-15.7318115234375,14.007568359375,7.50732421875
17.9499999,1.2210428714752197,-1.7046716213226318,-9.658209800720215,-5.2490234375,-4.08935546875,-1.129150390625
17.9699999,1.0773907899856567,-1.5442601442337036,-9.72285270690918,-0.7171630859375,-13.7939453125,-33.050537109375
17.9899999,0.9624691009521484,-1.3910311460494995,-9.825803756713867,-6.9122314453125,0.0457763671875,-25.0701904296875
18.0099999,0.9169792532920837,-1.173158884048462,-9.888052940368652,-20.4010009765625,17.822265625,-1.52587890625
18.0299999,1.0055646896362305,-0.9265560507774353,-9.876082420349121,-12.7105712890625,7.568359375,-10.1165771484375
18.0499999,1.113303780555725,-0.7637503147125244,-9.804255485534668,-2.7313232421875,-6.4544677734375,-26.3214111328125
18.0699999,1.2641384601593018,-0.5674257874488831,-9.627084732055664,-0.2593994140625,-11.1541748046875,-38.14697265625
18.089999900000002,1.3407529592514038,-0.4620809257030487,-9.466673851013184,-7.2784423828125,-16.2353515625,-19.866943359375
18.109999900000002,1.3862427473068237,-0.33039984107017517,-9.294290542602539,-15.472412109375,-8.2855224609375,-8.209228515625
18.1299999,1.3263877630233765,-0.2801215946674347,-9.160215377807617,-14.007568359375,-4.0283203125,-17.6239013671875
18.1499999,1.1827356815338135,-0.2753331959247589,-9.069235801696777,-9.2926025390625,-11.4593505859375,-35.33935546875
18.1699999,1.0319008827209473,-0.2346317619085312,-9.030928611755371,-0.3814697265625,-31.951904296875,-42.5567626953125
18.1899999,0.8762778043746948,-0.1604115068912506,-9.08838939666748,-5.37109375,-31.524658203125,-28.25927734375
18.2099999,0.7996633648872375,0,-9.222464561462402,-15.3350830078125,-11.23046875,-27.801513671875
18.2299999,0.768538773059845,0.1843535304069519,-9.3828763961792,-13.916015625,-6.011962890625,-38.848876953125
18.249999900000002,0.7805097699165344,0.3495534360408783,-9.500192642211914,-3.0364990234375,-19.2718505859375,-43.212890625
18.269999900000002,0.8020575642585754,0.49799394607543945,-9.57201862335205,1.5106201171875,-32.501220703125,-35.064697265625
18.2899999,0.8068459630012512,0.5793967843055725,-9.617507934570312,-1.28173828125,-29.754638671875,-29.3426513671875
18.3099999,0.7661445140838623,0.6057330369949341,-9.636661529541016,-4.0435791015625,-16.66259765625,-38.4979248046875
18.3299999,0.7110779285430908,0.6248866319656372,-9.612719535827637,-0.9765625,-16.6015625,-47.8668212890625
18.3499999,0.6512228846549988,0.6368576288223267,-9.560047149658203,-0.2899169921875,-24.932861328125,-34.6527099609375
18.3699999,0.5267243981361389,0.6129156351089478,-9.461885452270508,-10.5743408203125,-14.2822265625,-15.228271484375
18.3899999,0.3758896589279175,0.5363011956214905,-9.399636268615723,-13.092041015625,-6.591796875,-21.8353271484375
18.409999900000003,0.20111294090747833,0.4165911078453064,-9.418789863586426,-11.474609375,-8.4075927734375,-32.7911376953125
18.429999900000002,0.08140286058187485,0.31364041566848755,-9.485827445983887,-2.838134765625,-12.2833251953125,-36.7889404296875
18.4499999,0.05746084079146385,0.26336219906806946,-9.59596061706543,-1.1444091796875,-8.5296630859375,-32.989501953125
18.4699999,0.10534487664699554,0.2968810200691223,-9.701305389404297,-5.889892578125,-2.349853515625,-33.4320068359375
18.4899999,0.18914192914962769,0.3519476354122162,-9.77791976928711,-5.4931640625,-3.8604736328125,-38.9862060546875
18.5099999,0.2825157940387726,0.42377370595932007,-9.825803756713867,-1.1138916015625,-8.2244873046875,-42.877197265625
18.5299999,0.3974374830722809,0.545877993106842,-9.888052940368652,-3.3721923828125,-3.2196044921875,-42.2210693359375
18.5499999,0.5099649429321289,0.6919242739677429,-9.962273597717285,-6.1187744140625,4.9285888671875,-37.04833984375
18.5699999,0.5817909836769104,0.8427590131759644,-10.041281700134277,-6.195068359375,7.1868896484375,-34.698486328125
18.589999900000002,0.6200982332229614,0.9959878921508789,-10.127472877502441,-2.86865234375,2.62451171875,-39.1998291015625
18.609999900000002,0.6153098344802856,1.1300631761550903,-10.18493366241455,-0.7171630859375,3.7384033203125,-43.731689453125
18.6299999,0.6057330369949341,1.2449848651885986,-10.237606048583984,-1.28173828125,6.805419921875,-41.6107177734375
18.6499999,0.6200982332229614,1.3455413579940796,-10.247182846069336,0.30517578125,9.9334716796875,-41.046142578125
18.6699999,0.6200982332229614,1.414973258972168,-10.20648193359375,0.762939453125,12.14599609375,-42.2210693359375
18.6899999,0.5650315880775452,1.434126853942871,-10.072406768798828,3.143310546875,13.031005859375,-43.8995361328125
18.7099999,0.47644615173339844,1.4293384552001953,-9.943120002746582,1.983642578125,12.3291015625,-45.0286865234375
18.7299999,0.4165911078453064,1.4748282432556152,-9.825803756713867,6.7291259765625,9.4146728515625,-46.417236328125
18.749999900000002,0.38546648621559143,1.479616641998291,-9.744400978088379,16.7694091796875,5.035400390625,-44.586181640625
18.769999900000002,0.4141969084739685,1.482010841369629,-9.701305389404297,14.16015625,10.894775390625,-44.1131591796875
18.7899999,0.4908113479614258,1.482010841369629,-9.624691009521484,7.7362060546875,20.6298828125,-49.072265625
18.8099999,0.646434485912323,1.4460978507995605,-9.509769439697266,11.0931396484375,15.869140625,-50.750732421875
18.8299999,0.8259995579719543,1.4724340438842773,-9.342175483703613,19.3939208984375,8.0718994140625,-50.2166748046875
18.8499999,1.0031704902648926,1.5083470344543457,-9.20091724395752,22.4761962890625,0.30517578125,-42.999267578125
18.8699999,1.115697979927063,1.5155296325683594,-9.141061782836914,20.08056640625,-2.9754638671875,-37.1856689453125
18.8899999,1.072602391242981,1.4508862495422363,-9.14345645904541,23.193359375,-1.5411376953125,-42.8619384765625
18.909999900000003,0.8810662031173706,1.314416766166687,-9.253589630126953,19.744873046875,3.0670166015625,-45.3948974609375
18.929999900000002,0.7158663272857666,1.237802267074585,-9.41639518737793,19.989013671875,4.4403076171875,-47.6837158203125
18.9499999,0.6416460275650024,1.1827356815338135,-9.543288230895996,34.66796875,-4.3792724609375,-49.6368408203125
18.9699999,0.6727706789970398,1.1755530834197998,-9.619902610778809,34.3780517578125,-2.50244140625,-43.8690185546875
18.9899999,0.811634361743927,1.1875240802764893,-9.576807022094727,26.5960693359375,2.960205078125,-44.12841796875
19.0099999,0.9409212470054626,1.137245774269104,-9.428366661071777,21.1639404296875,5.767822265625,-47.149658203125
19.0299999,1.0055646896362305,1.05105459690094,-9.239224433898926,19.287109375,4.9591064453125,-48.614501953125
19.0499999,1.072602391242981,1.0079588890075684,-9.133879661560059,16.8914794921875,0.4425048828125,-47.4395751953125
19.0699999,1.1300631761550903,1.0295066833496094,-9.105149269104004,14.4805908203125,4.302978515625,-43.182373046875
19.089999900000002,1.2018892765045166,1.0606313943862915,-9.17936897277832,17.88330078125,3.4942626953125,-37.8265380859375
19.109999900000002,1.259350061416626,1.0845733880996704,-9.289502143859863,20.7366943359375,-2.3040771484375,-34.1644287109375
19.1299999,1.2737152576446533,1.0558429956436157,-9.378087997436523,13.946533203125,-0.762939453125,-30.5023193359375
19.1499999,1.2473790645599365,0.9720458984375,-9.428366661071777,4.33349609375,8.8043212890625,-27.3895263671875
19.1699999,1.2042834758758545,0.9002198576927185,-9.423578262329102,8.880615234375,4.5623779296875,-32.501220703125
19.1899999,1.137245774269104,0.7852981686592102,-9.38048267364502,15.625,-8.392333984375,-34.8663330078125
19.2099999,1.0654197931289673,0.7374141216278076,-9.337387084960938,12.4359130859375,-6.6986083984375,-37.41455078125
19.2299999,0.9744400978088379,0.7230489253997803,-9.30386734008789,7.62939453125,4.0740966796875,-36.3922119140625
19.249999900000002,0.8738836050033569,0.6727706789970398,-9.337387084960938,5.37109375,10.4522705078125,-35.2020263671875
19.269999900000002,0.7852981686592102,0.6177040338516235,-9.387664794921875,6.7291259765625,10.4217529296875,-42.633056640625
19.2899999,0.7422025203704834,0.586579442024231,-9.39245319366455,4.69970703125,16.387939453125,-52.2308349609375
19.3099999,0.7781155705451965,0.5985504388809204,-9.35654067993164,5.5999755859375,11.932373046875,-53.009033203125
19.3299999,0.9074024558067322,0.6799532771110535,-9.282320022583008,8.8043212890625,2.8076171875,-47.8973388671875
19.3499999,1.0773907899856567,0.7876923680305481,-9.215282440185547,8.0718994140625,-0.2899169921875,-48.03466796875
19.3699999,1.3192051649093628,0.8810662031173706,-9.224859237670898,6.3018798828125,0,-52.581787109375
19.3899999,1.6400281190872192,0.9911994934082031,-9.29189682006836,6.6375732421875,-0.4730224609375,-49.3621826171875
19.409999900000003,2.0374655723571777,1.0965443849563599,-9.41639518737793,4.45556640625,-1.1444091796875,-34.820556640625
19.429999900000002,2.406172752380371,1.2330138683319092,-9.564835548400879,8.941650390625,-5.462646484375,-27.984619140625
19.4499999,2.6192567348480225,1.237802267074585,-9.727641105651855,12.1002197265625,-6.7901611328125,-29.8919677734375
19.4699999,2.5977089405059814,1.1300631761550903,-9.86650562286377,7.293701171875,3.662109375,-33.7066650390625
19.4899999,2.410961151123047,0.9385270476341248,-9.99339771270752,6.3629150390625,6.9427490234375,-31.890869140625
19.5099999,2.190694570541382,0.7733271718025208,-10.089165687561035,8.209228515625,0.946044921875,-28.045654296875
19.5299999,2.027888774871826,0.6631938815116882,-10.182539939880371,4.302978515625,3.41796875,-29.022216796875
19.5499999,1.9752163887023926,0.6440402865409851,-10.27591323852539,4.8370361328125,10.6658935546875,-31.2042236328125
19.5699999,2.0422539710998535,0.6440402865409851,-10.335768699645996,4.547119140625,19.4091796875,-27.3284912109375
19.589999900000002,2.209848165512085,0.6703764796257019,-10.362105369567871,6.7291259765625,16.448974609375,-22.979736328125
19.609999900000002,2.3942017555236816,0.7015010714530945,-10.359710693359375,9.33837890625,10.2081298828125,-25.20751953125
19.6299999,2.647987127304077,0.7398083209991455,-10.304644584655762,7.8582763671875,26.3671875,-21.5911865234375
19.6499999,2.782062292098999,0.7589619159698486,-10.218452453613281,3.3721923828125,43.792724609375,-7.720947265625
19.6699999,2.918531894683838,0.7948749661445618,-10.134655952453613,11.5203857421875,23.345947265625,-1.9073486328125
19.6899999,2.985569477081299,0.8236053586006165,-10.007762908935547,11.5966796875,19.8516845703125,4.0435791015625
19.7099999,3.050212860107422,0.8643068075180054,-9.859322547912598,6.866455078125,37.5518798828125,14.9993896484375
19.7299999,3.155557870864868,0.8954314589500427,-9.72285270690918,0.946044921875,50.8575439453125,31.219482421875
19.749999900000002,3.3207578659057617,0.8571242094039917,-9.526528358459473,1.7242431640625,56.2591552734375,42.1295166015625
19.769999900000002,3.533841609954834,0.7350199222564697,-9.277531623840332,14.1143798828125,36.92626953125,41.56494140625
19.7899999,3.7493197917938232,0.524330198764801,-8.96389102935791,27.557373046875,1.89208984375,31.7535400390625
19.8099999,3.9240965843200684,0.2346317619085312,-8.609549522399902,30.3192138671875,-21.8963623046875,25.4669189453125
19.8299999,4.003105163574219,-0.043095629662275314,-8.288725852966309,25.238037109375,-26.9012451171875,25.20751953125
19.8499999,3.995922565460205,-0.3016694188117981,-8.051700592041016,20.2484130859375,-25.0701904296875,28.8543701171875
19.8699999,3.8714241981506348,-0.5363011956214905,-7.960720539093018,13.5650634765625,-26.5350341796875,28.7322998046875
19.8899999,3.6343982219696045,-0.7350199222564697,-7.970297336578369,7.537841796875,-29.998779296875,20.233154296875
19.909999900000003,3.335123062133789,-0.8307880163192749,-8.061277389526367,4.9896240234375,-35.614013671875,6.134033203125
19.929999900000002,3.066972494125366,-0.871489405632019,-8.219294548034668,4.730224609375,-44.12841796875,5.523681640625
19.9499999,2.875436305999756,-0.811634361743927,-8.38449478149414,-0.701904296875,-36.1785888671875,19.22607421875
19.9699999,2.762908697128296,-0.7110779285430908,-8.547300338745117,-9.70458984375,-21.05712890625,24.3682861328125
19.9899999,2.715024709701538,-0.5937620401382446,-8.62391471862793,-12.237548828125,-26.4892578125,13.946533203125
20.0099999,2.669534921646118,-0.5027823448181152,-8.65982723236084,-13.7786865234375,-40.6036376953125,16.754150390625
20.0299999,2.6168625354766846,-0.4381389021873474,-8.69095230102539,-18.4783935546875,-47.5921630859375,31.1431884765625
20.0499999,2.559401512145996,-0.3758896589279175,-8.796297073364258,-23.3612060546875,-41.046142578125,41.2750244140625
20.0699999,2.477998733520508,-0.31603461503982544,-8.992621421813965,-27.0843505859375,-31.31103515625,47.9736328125
20.089999900000002,2.3487119674682617,-0.26336219906806946,-9.251194953918457,-27.313232421875,-29.7088623046875,54.1229248046875
20.109999900000002,2.1715409755706787,-0.24420857429504395,-9.555258750915527,-17.4102783203125,-47.2869873046875,62.347412109375
20.1299999,1.9488801956176758,-0.2825157940387726,-9.84256362915039,-11.16943359375,-54.4281005859375,65.97900390625
20.1499999,1.6950948238372803,-0.3758896589279175,-10.120290756225586,-21.6827392578125,-32.257080078125,67.2760009765625
20.1699999,1.4173674583435059,-0.4884171485900879,-10.333374977111816,-29.388427734375,-14.2364501953125,69.15283203125
